index,date,GYRO_X,GYRO_Y,GYRO_Z,1,2,3,4,5
0,1765220698549,5,-9,1,0,0,0,0,0
1,1765220698648,5,-8,0,0,0,0,0,0
2,1765220698848,5,-8,-2,0,0,0,0,0
3,1765220698932,6,-10,1,0,0,0,0,0
4,1765220699198,7,-9,0,0,0,0,0,0
5,1765220699282,6,-11,-1,0,0,0,0,0
6,1765220699483,5,-9,-2,0,0,0,0,0
7,1765220699565,5,-7,-1,0,0,0,0,0
8,1765220699848,5,-8,-2,0,0,0,0,0
9,1765220699915,7,-9,-1,0,0,0,0,0
10,1765220700115,6,-9,1,0,0,0,0,0
11,1765220700199,7,-9,0,0,0,0,0,0
12,1765220700449,5,-9,0,0,0,0,0,0
13,1765220700549,6,-8,0,0,0,0,0,0
14,1765220700765,4,-9,0,0,0,0,0,0
15,1765220700832,7,-9,-1,0,0,0,0,0
16,1765220701148,5,-10,0,0,0,0,0,0
17,1765220701232,4,-8,-1,0,0,0,0,0
18,1765220701432,7,-9,-1,0,0,0,0,0
19,1765220701565,6,-10,1,0,0,0,0,0
20,1765220701749,6,-10,0,0,0,0,0,0
21,1765220701898,5,-9,0,0,0,0,0,0
22,1765220702049,5,-9,2,0,0,0,0,0
23,1765220702248,5,-9,1,0,0,0,0,0
24,1765220702349,5,-9,1,0,0,0,0,0
25,1765220702598,4,-8,0,0,0,0,0,0
26,1765220702682,6,-10,-1,0,0,0,0,0
27,1765220702898,7,-9,1,0,0,0,0,0
28,1765220702998,6,-8,0,0,0,0,0,0
29,1765220703232,6,-9,0,0,0,0,0,0
30,1765220703365,6,-9,0,0,0,0,0,0
31,1765220703531,6,-10,0,0,0,0,0,0
32,1765220703698,4,-11,-2,0,0,0,0,0
33,1765220703815,7,-8,0,0,0,0,0,0
34,1765220703848,4,-9,-2,0,0,0,0,0
35,1765220704065,6,-9,1,0,0,0,0,0
36,1765220704148,3,-8,0,0,0,0,0,0
37,1765220704382,6,-9,1,0,0,0,0,0
38,1765220704482,6,-8,-1,0,0,0,0,0
39,1765220704699,3,-9,0,0,0,0,0,0
40,1765220704831,6,-8,1,0,0,0,0,0
41,1765220704998,6,-9,1,0,0,0,0,0
42,1765220705183,3,-9,-1,0,0,0,0,0
43,1765220705316,5,-9,-1,0,0,0,0,0
44,1765220705515,5,-9,0,0,0,0,0,0
45,1765220705614,5,-8,0,0,0,0,0,0
46,1765220705849,6,-9,0,0,0,0,0,0
47,1765220705931,5,-7,0,0,0,0,0,0
48,1765220706165,7,-10,0,0,0,0,0,0
49,1765220706282,7,-8,0,0,0,0,0,0
50,1765220706464,5,-8,-2,0,0,0,0,0
51,1765220706665,6,-8,-2,0,0,0,0,0
52,1765220706799,14,-8,-1,0,0,0,0,0
53,1765220707015,3,-13,2,0,0,0,0,0
54,1765220707082,8,-7,-2,0,0,0,0,0
55,1765220707330,7,-7,-1,0,0,0,0,0
56,1765220707349,4,-10,-2,0,0,0,0,0
57,1765220707448,6,-8,1,0,0,0,0,0
58,1765220707648,6,-8,0,0,0,0,0,0
59,1765220707781,5,-8,-1,0,0,0,0,0
60,1765220707948,5,-9,0,0,0,0,0,0
61,1765220708131,6,-9,0,0,0,0,0,0
62,1765220708265,5,-9,0,0,0,0,0,0
63,1765220708499,6,-10,-1,0,0,0,0,0
64,1765220708565,5,-8,-1,0,0,0,0,0
65,1765220708831,5,-10,-1,0,0,0,0,0
66,1765220708898,5,-7,0,0,0,0,0,0
67,1765220709115,3,-9,0,0,0,0,0,0
68,1765220709232,5,-9,-1,0,0,0,0,0
69,1765220709415,5,-9,-2,0,0,0,0,0
70,1765220709448,5,-8,-3,0,0,0,0,0
71,1765220709615,5,-10,1,0,0,0,0,0
72,1765220709748,5,-8,1,0,0,0,0,0
73,1765220709948,4,-9,1,0,0,0,0,0
74,1765220710031,5,-9,0,0,0,0,0,0
75,1765220710298,6,-9,-1,0,0,0,0,0
76,1765220710382,6,-10,0,0,0,0,0,0
77,1765220710598,4,-8,-1,0,0,0,0,0
78,1765220710715,5,-9,0,0,0,0,0,0
79,1765220710932,6,-9,1,0,0,0,0,0
80,1765220711065,5,-9,0,0,0,0,0,0
81,1765220711214,5,-8,0,0,0,0,0,0
82,1765220711399,5,-10,-1,0,0,0,0,0
83,1765220711515,4,-7,-2,0,0,0,0,0
84,1765220711782,3,-8,0,0,0,0,0,0
85,1765220711848,4,-9,-1,0,0,0,0,0
86,1765220712065,6,-10,-1,0,0,0,0,0
87,1765220712198,5,-9,0,0,0,0,0,0
88,1765220712398,6,-10,1,0,0,0,0,0
89,1765220712581,5,-11,-1,0,0,0,0,0
90,1765220712698,5,-8,-2,0,0,0,0,0
91,1765220712915,4,-10,0,0,0,0,0,0
92,1765220713015,6,-10,0,0,0,0,0,0
93,1765220713248,6,-9,-256,0,0,0,0,0
94,1765220713348,7,-8,1,0,0,0,0,0
95,1765220713549,5,-11,1,0,0,0,0,0
96,1765220713682,5,-8,-1,0,0,0,0,0
97,1765220713866,8,-9,0,0,0,0,0,0
98,1765220714032,3,-13,1,0,0,0,0,0
99,1765220714164,3,-10,-2,0,0,0,0,0
100,1765220714415,6,-8,1,0,0,0,0,0
101,1765220714498,6,-11,3,0,0,0,0,0
102,1765220714731,5,-8,0,0,0,0,0,0
103,1765220714831,7,-10,-2,0,0,0,0,0
104,1765220715014,5,-9,1,0,0,0,0,0
105,1765220715199,5,-8,-2,0,0,0,0,0
106,1765220715348,4,-10,-1,0,0,0,0,0
107,1765220715549,7,-9,5,0,0,0,0,0
108,1765220715648,7,-10,0,0,0,0,0,0
109,1765220715914,3,-10,-2,0,0,0,0,0
110,1765220715998,7,-8,0,0,0,0,0,0
111,1765220716215,6,-11,1,0,0,0,0,0
112,1765220716366,1,-11,-1,0,0,0,0,0
113,1765220716532,3,-10,-1,0,0,0,0,0
114,1765220716732,6,-8,1,0,0,0,0,0
115,1765220716831,6,-9,1,0,0,0,0,0
116,1765220717065,5,-9,0,0,0,0,0,0
117,1765220717165,5,-8,-2,0,0,0,0,0
118,1765220717397,5,-10,-1,0,0,0,0,0
119,1765220717533,6,-9,1,0,0,0,0,0
120,1765220717683,5,-9,1,0,0,0,0,0
121,1765220717898,3,-7,-1,0,0,0,0,0
122,1765220718015,6,-10,-1,0,0,0,0,0
123,1765220718248,4,-9,1,0,0,0,0,0
124,1765220718315,5,-8,1,0,0,0,0,0
125,1765220718549,6,-9,-1,0,0,0,0,0
126,1765220718565,4,-8,-1,0,0,0,0,0
127,1765220718683,6,-9,1,0,0,0,0,0
128,1765220718865,5,-9,-1,0,0,0,0,0
129,1765220719014,5,-9,0,0,0,0,0,0
130,1765220719165,7,-9,0,0,0,0,0,0
131,1765220719282,4,-8,1,0,0,0,0,0
132,1765220719530,6,-8,0,0,0,0,0,0
133,1765220719648,5,-9,1,0,0,0,0,0
134,1765220719832,5,-9,0,0,0,0,0,0
135,1765220719881,4,-10,1,0,0,0,0,0
136,1765220719999,5,-10,0,0,0,0,0,0
137,1765220720299,4,-8,0,0,0,0,0,0
138,1765220720448,6,-10,-1,0,0,0,0,0
139,1765220720699,5,-10,2,0,0,0,0,0
140,1765220720798,6,-9,-1,0,0,0,0,0
141,1765220720997,6,-9,-1,0,0,0,0,0
142,1765220721199,3,-8,0,0,0,0,0,0
143,1765220721465,3,-10,-1,0,0,0,0,0
144,1765220721582,7,-10,0,0,0,0,0,0
145,1765220721832,4,-9,-2,0,0,0,0,0
146,1765220721932,5,-9,-1,0,0,0,0,0
147,1765220722248,7,-11,2,0,0,0,0,0
148,1765220722282,4,-9,-1,0,0,0,0,0
149,1765220722399,5,-10,0,0,0,0,0,0
150,1765220722632,7,-9,0,0,0,0,0,0
151,1765220722699,2,-9,2,0,0,0,0,0
152,1765220722915,5,-8,-1,0,0,0,0,0
153,1765220723148,6,-9,0,0,0,0,0,0
154,1765220723365,7,-11,0,0,0,0,0,0
155,1765220723449,4,-7,-2,0,0,0,0,0
156,1765220723549,7,-10,0,0,0,0,0,0
157,1765220723682,5,-8,-3,0,0,0,0,0
158,1765220723915,5,-10,1,0,0,0,0,0
159,1765220724282,6,-8,-2,0,0,0,0,0
160,1765220724382,3,-9,-1,0,0,0,0,0
161,1765220724582,4,-11,3,0,0,0,0,0
162,1765220725048,6,-9,-1,0,0,0,0,0
163,1765220725132,5,-9,0,0,0,0,0,0
164,1765220725336,5,-9,0,0,0,0,0,0
165,1765220725482,6,-8,1,0,0,0,0,0
166,1765220725735,5,-10,0,0,0,0,0,0
167,1765220725833,4,-10,0,0,0,0,0,0
168,1765220725984,-14,8,7,0,0,0,0,0
169,1765220726231,-41,32,6,0,0,0,0,0
170,1765220726282,46,-25,-19,0,0,0,0,0
171,1765220726514,8,-3,-4,0,0,0,0,0
172,1765220726632,3,-10,-1,0,0,0,0,0
173,1765220726815,3,-9,0,0,0,0,0,0
174,1765220726898,4,-8,0,0,0,0,0,0
175,1765220727115,3,-9,-1,0,0,0,0,0
176,1765220727182,6,-9,-1,0,0,0,0,0
177,1765220727482,5,-9,1,0,0,0,0,0
178,1765220727764,5,-10,0,0,0,0,0,0
179,1765220727847,6,-9,-1,0,0,0,0,0
180,1765220727965,4,-8,1,0,0,0,0,0
181,1765220728116,9,-12,0,0,0,0,0,0
182,1765220728249,5,-9,3,0,0,0,0,0
183,1765220728416,6,-10,-3,0,0,0,0,0
184,1765220728683,4,-8,-3,0,0,0,0,0
185,1765220728898,7,-9,1,0,0,0,0,0
186,1765220729048,5,-9,4,0,0,0,0,0
187,1765220729198,7,-9,-1,0,0,0,0,0
188,1765220729282,4,-9,-1,0,0,0,0,0
189,1765220729482,5,-10,-2,0,0,0,0,0
190,1765220729814,6,-6,-1,0,0,0,0,0
191,1765220729997,5,-8,0,0,0,0,0,0
192,1765220730098,4,-8,1,0,0,0,0,0
193,1765220730282,5,-10,-2,0,0,0,0,0
194,1765220730415,5,-9,1,0,0,0,0,0
195,1765220730482,7,-9,0,0,0,0,0,0
196,1765220730765,6,-8,-2,0,0,0,0,0
197,1765220730965,6,-9,1,0,0,0,0,0
198,1765220731148,5,-8,-2,0,0,0,0,0
199,1765220731264,6,-10,0,0,0,0,0,0
200,1765220731515,4,-11,-2,0,0,0,0,0
201,1765220731764,4,-9,1,0,0,0,0,0
202,1765220731947,5,-9,2,0,0,0,0,0
203,1765220732049,5,-8,1,0,0,0,0,0
204,1765220732198,4,-9,-1,0,0,0,0,0
205,1765220732315,5,-8,0,0,0,0,0,0
206,1765220732498,4,-9,1,0,0,0,0,0
207,1765220732632,5,-9,0,0,0,0,0,0
208,1765220732765,7,-10,-1,0,0,0,0,0
209,1765220732997,7,-9,-1,0,0,0,0,0
210,1765220733066,5,-10,1,0,0,0,0,0
211,1765220733365,4,-9,-1,0,0,0,0,0
212,1765220733466,7,-9,1,0,0,0,0,0
213,1765220733782,5,-11,0,0,0,0,0,0
214,1765220733965,6,-9,0,0,0,0,0,0
215,1765220734165,6,-10,-1,0,0,0,0,0
216,1765220734265,7,-9,-2,0,0,0,0,0
217,1765220734515,6,-9,0,0,0,0,0,0
218,1765220734732,6,-10,0,0,0,0,0,0
219,1765220734899,4,-9,0,0,0,0,0,0
220,1765220735016,4,-10,0,0,0,0,0,0
221,1765220735149,6,-9,1,0,0,0,0,0
222,1765220735248,6,-10,0,0,0,0,0,0
223,1765220735464,5,-10,1,0,0,0,0,0
224,1765220735932,6,-8,-2,0,0,0,0,0
225,1765220735997,4,-7,0,0,0,0,0,0
226,1765220736231,5,-10,0,0,0,0,0,0
227,1765220736231,4,-7,-1,0,0,0,0,0
228,1765220736398,4,-9,0,0,0,0,0,0
229,1765220736682,6,-10,-2,0,0,0,0,0
230,1765220736749,6,-8,-1,0,0,0,0,0
231,1765220736848,5,-9,0,0,0,0,0,0
232,1765220736997,5,-9,0,0,0,0,0,0
233,1765220737149,4,-9,2,0,0,0,0,0
234,1765220737598,3,-9,0,0,0,0,0,0
235,1765220737814,5,-10,0,0,0,0,0,0
236,1765220737915,4,-10,-1,0,0,0,0,0
237,1765220738130,6,-10,0,0,0,0,0,0
238,1765220738332,4,-8,-1,0,0,0,0,0
239,1765220738566,2,-9,-1,0,0,0,0,0
240,1765220738665,4,-10,-1,0,0,0,0,0
241,1765220738765,4,-8,1,0,0,0,0,0
242,1765220738915,5,-9,-1,0,0,0,0,0
243,1765220739082,5,-8,0,0,0,0,0,0
244,1765220739366,5,-10,0,0,0,0,0,0
245,1765220739532,5,-10,-1,0,0,0,0,0
246,1765220739715,5,-9,0,0,0,0,0,0
247,1765220739813,6,-8,-1,0,0,0,0,0
248,1765220739948,4,-10,0,0,0,0,0,0
249,1765220740033,4,-9,-2,0,0,0,0,0
250,1765220740298,5,-9,-1,0,0,0,0,0
251,1765220740481,6,-11,-1,0,0,0,0,0
252,1765220740699,6,-9,1,0,0,0,0,0
253,1765220740799,6,-8,1,0,0,0,0,0
254,1765220741064,5,-10,1,0,0,0,0,0
255,1765220741264,5,-9,1,0,0,0,0,0
256,1765220741465,6,-10,2,0,0,0,0,0
257,1765220741615,4,-10,0,0,0,0,0,0
258,1765220741866,5,-9,0,0,0,0,0,0
259,1765220742065,5,-9,-1,0,0,0,0,0
260,1765220742233,4,-9,1,0,0,0,0,0
261,1765220742334,5,-10,-1,0,0,0,0,0
262,1765220742382,5,-10,-2,0,0,0,0,0
263,1765220742616,4,-10,0,0,0,0,0,0
264,1765220742865,4,-10,0,0,0,0,0,0
265,1765220743082,5,-9,0,0,0,0,0,0
266,1765220743166,6,-8,1,0,0,0,0,0
267,1765220743382,5,-7,0,0,0,0,0,0
268,1765220743516,5,-10,0,0,0,0,0,0
269,1765220743750,6,-10,-1,0,0,0,0,0
270,1765220743915,6,-10,2,0,0,0,0,0
271,1765220744149,5,-8,-1,0,0,0,0,0
272,1765220744199,5,-8,0,0,0,0,0,0
273,1765220744316,5,-9,-1,0,0,0,0,0
274,1765220744565,5,-9,1,0,0,0,0,0
275,1765220744798,4,-9,0,0,0,0,0,0
276,1765220745032,5,-9,-1,0,0,0,0,0
277,1765220745149,5,-7,0,0,0,0,0,0
278,1765220745332,5,-9,1,0,0,0,0,0
279,1765220745381,4,-8,1,0,0,0,0,0
280,1765220745498,7,-10,0,0,0,0,0,0
281,1765220745799,6,-10,1,0,0,0,0,0
282,1765220745915,5,-8,-1,0,0,0,0,0
283,1765220746148,5,-8,0,0,0,0,0,0
284,1765220746249,5,-9,0,0,0,0,0,0
285,1765220746565,6,-8,-1,0,0,0,0,0
286,1765220746732,5,-8,1,0,0,0,0,0
287,1765220746930,5,-8,-1,0,0,0,0,0
288,1765220747014,6,-7,-3,0,0,0,0,0
289,1765220747265,5,-9,2,0,0,0,0,0
290,1765220747498,4,-6,-2,0,0,0,0,0
291,1765220747716,5,-10,0,0,0,0,0,0
292,1765220747915,4,-10,2,0,0,0,0,0
293,1765220748065,3,-6,-2,0,0,0,0,0
294,1765220748282,5,-9,-1,0,0,0,0,0
295,1765220748532,4,-8,-1,0,0,0,0,0
296,1765220748681,9,-12,0,0,0,0,0,0
297,1765220748899,6,-11,-1,0,0,0,0,0
298,1765220748980,2,-8,3,0,0,0,0,0
299,1765220749081,6,-9,-3,0,0,0,0,0
300,1765220749215,4,-10,2,0,0,0,0,0
301,1765220749415,5,-9,3,0,0,0,0,0
302,1765220749598,5,-10,-4,0,0,0,0,0
303,1765220749798,4,-9,-4,0,0,0,0,0
304,1765220749882,4,-8,-1,0,0,0,0,0
305,1765220750165,7,-10,2,0,0,0,0,0
306,1765220750347,4,-10,0,0,0,0,0,0
307,1765220750565,6,-7,-1,0,0,0,0,0
308,1765220750732,5,-9,-2,0,0,0,0,0
309,1765220750981,4,-9,1,0,0,0,0,0
310,1765220751148,6,-8,-1,0,0,0,0,0
311,1765220751332,6,-9,0,0,0,0,0,0
312,1765220751714,5,-7,-2,0,0,0,0,0
313,1765220751965,5,-10,0,0,0,0,0,0
314,1765220752198,7,-7,5,0,0,0,0,0
315,1765220752299,5,-10,-1,0,0,0,0,0
316,1765220752498,4,-8,0,0,0,0,0,0
317,1765220752948,5,-9,2,0,0,0,0,0
318,1765220753014,6,-9,-1,0,0,0,0,0
319,1765220753257,5,-10,-2,0,0,0,0,0
320,1765220753382,3,-9,-1,0,0,0,0,0
321,1765220753581,5,-9,-1,0,0,0,0,0
322,1765220753814,6,-7,-1,0,0,0,0,0
323,1765220754082,6,-9,2,0,0,0,0,0
324,1765220754164,6,-8,1,0,0,0,0,0
325,1765220754415,5,-7,-2,0,0,0,0,0
326,1765220754565,5,-8,-1,0,0,0,0,0
327,1765220754831,5,-10,2,0,0,0,0,0
328,1765220754915,6,-11,0,0,0,0,0,0
329,1765220755148,6,-8,-2,0,0,0,0,0
330,1765220755298,4,-9,-3,0,0,0,0,0
331,1765220755550,3,-8,-1,0,0,0,0,0
332,1765220755664,7,-9,3,0,0,0,0,0
333,1765220755783,5,-8,-2,0,0,0,0,0
334,1765220755881,4,-8,-1,0,0,0,0,0
335,1765220756065,6,-9,0,0,0,0,0,0
336,1765220756214,5,-8,0,0,0,0,0,0
337,1765220756482,7,-10,-3,0,0,0,0,0
338,1765220756648,5,-10,2,0,0,0,0,0
339,1765220756848,15,-11,1,0,0,0,0,0
340,1765220757015,5,-9,0,0,0,0,0,0
341,1765220757248,5,-10,-3,0,0,0,0,0
342,1765220757497,7,-10,3,0,0,0,0,0
343,1765220757715,6,-11,-1,0,0,0,0,0
344,1765220757832,5,-9,1,0,0,0,0,0
345,1765220758014,5,-9,-1,0,0,0,0,0
346,1765220758432,4,-11,2,0,0,0,0,0
347,1765220758516,6,-10,-3,0,0,0,0,0
348,1765220758747,5,-9,1,0,0,0,0,0
349,1765220758880,6,-9,0,0,0,0,0,0
350,1765220758981,4,-9,0,0,0,0,0,0
351,1765220759248,5,-9,0,0,0,0,0,0
352,1765220759431,7,-9,-1,0,0,0,0,0
353,1765220759664,3,-9,0,0,0,0,0,0
354,1765220759765,5,-11,0,0,0,0,0,0
355,1765220760164,4,-8,1,0,0,0,0,0
356,1765220760382,4,-8,1,0,0,0,0,0
357,1765220760465,4,-8,-1,0,0,0,0,0
358,1765220760632,5,-9,-1,0,0,0,0,0
359,1765220760849,5,-9,-1,0,0,0,0,0
360,1765220761147,5,-8,0,0,0,0,0,0
361,1765220761265,4,-8,0,0,0,0,0,0
362,1765220761382,5,-9,1,0,0,0,0,0
363,1765220761581,5,-9,0,0,0,0,0,0
364,1765220761664,8,-11,0,0,0,0,0,0
365,1765220762064,6,-9,-1,0,0,0,0,0
366,1765220762148,6,-8,-1,0,0,0,0,0
367,1765220762381,5,-7,-1,0,0,0,0,0
368,1765220762465,5,-9,-1,0,0,0,0,0
369,1765220762598,5,-11,0,0,0,0,0,0
370,1765220762749,3,-8,0,0,0,0,0,0
371,1765220762965,6,-9,-1,0,0,0,0,0
372,1765220763098,2,-9,-1,0,0,0,0,0
373,1765220763298,4,-9,-4,0,0,0,0,0
374,1765220763398,6,-11,1,0,0,0,0,0
375,1765220763599,7,-10,0,0,0,0,0,0
376,1765220763715,6,-9,0,0,0,0,0,0
377,1765220763848,6,-11,-1,0,0,0,0,0
378,1765220764099,3,-8,-2,0,0,0,0,0
379,1765220764315,3,-7,10,0,0,0,0,0
380,1765220764448,5,-12,-5,0,0,0,0,0
381,1765220764600,6,-9,-2,0,0,0,0,0
382,1765220764816,4,-9,-3,0,0,0,0,0
383,1765220765098,4,-8,-1,0,0,0,0,0
384,1765220765265,6,-8,0,0,0,0,0,0
385,1765220765515,7,-9,-1,0,0,0,0,0
386,1765220765615,4,-8,2,0,0,0,0,0
387,1765220765863,6,-9,-1,0,0,0,0,0
388,1765220766082,5,-9,1,0,0,0,0,0
389,1765220766298,7,-9,1,0,0,0,0,0
390,1765220766364,7,-8,-1,0,0,0,0,0
391,1765220766682,6,-9,1,0,0,0,0,0
392,1765220766865,6,-10,-1,0,0,0,0,0
393,1765220767115,5,-8,-2,0,0,0,0,0
394,1765220767181,5,-10,0,0,0,0,0,0
395,1765220767298,5,-8,0,0,0,0,0,0
396,1765220767481,4,-8,1,0,0,0,0,0
397,1765220767581,5,-9,-1,0,0,0,0,0
398,1765220767881,5,-9,-1,0,0,0,0,0
399,1765220768064,6,-9,0,0,0,0,0,0
400,1765220768215,5,-9,0,0,0,0,0,0
401,1765220768499,5,-9,0,0,0,0,0,0
402,1765220768581,5,-8,0,0,0,0,0,0
403,1765220768865,5,-9,-1,0,0,0,0,0
404,1765220769115,4,-10,0,0,0,0,0,0
405,1765220769298,6,-10,0,0,0,0,0,0
406,1765220769380,5,-10,0,0,0,0,0,0
407,1765220769699,5,-10,-1,0,0,0,0,0
408,1765220769847,4,-8,0,0,0,0,0,0
409,1765220770081,4,-8,-256,0,0,0,0,0
410,1765220770249,3,-10,1,0,0,0,0,0
411,1765220770413,5,-8,-1,0,0,0,0,0
412,1765220770549,5,-9,0,0,0,0,0,0
413,1765220770798,5,-9,0,0,0,0,0,0
414,1765220771014,4,-10,0,0,0,0,0,0
415,1765220771199,5,-6,0,0,0,0,0,0
416,1765220771315,6,-9,1,0,0,0,0,0
417,1765220771415,6,-9,1,0,0,0,0,0
418,1765220771498,5,-7,-1,0,0,0,0,0
419,1765220771782,5,-9,1,0,0,0,0,0
420,1765220771931,3,-9,-3,0,0,0,0,0
421,1765220772166,3,-9,-1,0,0,0,0,0
422,1765220772231,6,-8,1,0,0,0,0,0
423,1765220772532,5,-8,0,0,0,0,0,0
424,1765220772765,6,-9,-1,0,0,0,0,0
425,1765220772948,6,-9,0,0,0,0,0,0
426,1765220773081,5,-10,0,0,0,0,0,0
427,1765220773332,3,-9,-3,0,0,0,0,0
428,1765220773515,6,-10,0,0,0,0,0,0
429,1765220773698,6,-10,2,0,0,0,0,0
430,1765220773846,5,-9,1,0,0,0,0,0
431,1765220774082,6,-9,-1,0,0,0,0,0
432,1765220774281,5,-10,1,0,0,0,0,0
433,1765220774414,6,-10,0,0,0,0,0,0
434,1765220774614,5,-9,1,0,0,0,0,0
435,1765220774848,5,-8,-2,0,0,0,0,0
436,1765220774932,5,-8,1,0,0,0,0,0
437,1765220775014,5,-9,1,0,0,0,0,0
438,1765220775163,5,-9,-2,0,0,0,0,0
439,1765220775364,5,-9,-1,0,0,0,0,0
440,1765220775765,5,-8,-256,0,0,0,0,0
441,1765220775931,6,-9,0,0,0,0,0,0
442,1765220776165,4,-9,0,0,0,0,0,0
443,1765220776448,5,-8,0,0,0,0,0,0
444,1765220776532,5,-9,-1,0,0,0,0,0
445,1765220776781,4,-9,1,0,0,0,0,0
446,1765220776948,5,-9,1,0,0,0,0,0
447,1765220777165,6,-7,-1,0,0,0,0,0
448,1765220777297,4,-8,0,0,0,0,0,0
449,1765220777465,6,-9,0,0,0,0,0,0
450,1765220777681,5,-10,0,0,0,0,0,0
451,1765220777931,6,-9,-1,0,0,0,0,0
452,1765220778048,4,-10,0,0,0,0,0,0
453,1765220778131,7,-9,-1,0,0,0,0,0
454,1765220778232,6,-9,-1,0,0,0,0,0
455,1765220778432,5,-9,0,0,0,0,0,0
456,1765220778566,8,-9,0,0,0,0,0,0
457,1765220778831,4,-10,1,0,0,0,0,0
458,1765220779031,7,-11,0,0,0,0,0,0
459,1765220779198,5,-7,-256,0,0,0,0,0
460,1765220779298,5,-9,1,0,0,0,0,0
461,1765220779364,4,-8,1,0,0,0,0,0
462,1765220779597,5,-9,0,0,0,0,0,0
463,1765220780082,6,-10,-2,0,0,0,0,0
464,1765220780248,6,-9,0,0,0,0,0,0
465,1765220780365,5,-9,-2,0,0,0,0,0
466,1765220780815,5,-11,1,0,0,0,0,0
467,1765220780948,7,-9,2,0,0,0,0,0
468,1765220781098,5,-9,0,0,0,0,0,0
469,1765220781166,5,-9,1,0,0,0,0,0
470,1765220781265,1,-10,-3,0,0,0,0,0
471,1765220781564,4,-8,1,0,0,0,0,0
472,1765220781732,4,-9,0,0,0,0,0,0
473,1765220781965,6,-9,1,0,0,0,0,0
474,1765220782082,5,-10,-1,0,0,0,0,0
475,1765220782315,5,-7,0,0,0,0,0,0
476,1765220782348,5,-9,0,0,0,0,0,0
477,1765220782498,6,-10,0,0,0,0,0,0
478,1765220782748,6,-9,-1,0,0,0,0,0
479,1765220782849,5,-9,-1,0,0,0,0,0
480,1765220783148,6,-9,1,0,0,0,0,0
481,1765220783348,3,-9,0,0,0,0,0,0
482,1765220783514,4,-9,0,0,0,0,0,0
483,1765220783581,6,-11,0,0,0,0,0,0
484,1765220783682,4,-7,-1,0,0,0,0,0
485,1765220783915,6,-8,0,0,0,0,0,0
486,1765220784014,3,-9,1,0,0,0,0,0
487,1765220784248,6,-9,0,0,0,0,0,0
488,1765220784430,3,-7,0,0,0,0,0,0
489,1765220784664,2,-10,-1,0,0,0,0,0
490,1765220784832,4,-9,0,0,0,0,0,0
491,1765220785015,5,-9,0,0,0,0,0,0
492,1765220785280,5,-10,-1,0,0,0,0,0
493,1765220785531,4,-8,1,0,0,0,0,0
494,1765220785615,4,-7,-1,0,0,0,0,0
495,1765220785830,4,-8,-2,0,0,0,0,0
496,1765220786298,5,-8,0,0,0,0,0,0
497,1765220786383,6,-9,-2,0,0,0,0,0
498,1765220786598,5,-10,2,0,0,0,0,0
499,1765220786765,6,-10,-1,0,0,0,0,0
500,1765220787082,6,-7,-2,0,0,0,0,0
501,1765220787166,6,-10,0,0,0,0,0,0
502,1765220787230,4,-9,0,0,0,0,0,0
503,1765220787397,7,-13,0,0,0,0,0,0
504,1765220787530,2,-10,0,0,0,0,0,0
505,1765220787731,5,-9,-1,0,0,0,0,0
506,1765220787948,6,-8,-1,0,0,0,0,0
507,1765220788099,4,-8,0,0,0,0,0,0
508,1765220788265,5,-9,-1,0,0,0,0,0
509,1765220788664,6,-9,1,0,0,0,0,0
510,1765220788947,5,-9,1,0,0,0,0,0
511,1765220789047,4,-9,0,0,0,0,0,0
512,1765220789131,4,-9,1,0,0,0,0,0
513,1765220789264,5,-9,-1,0,0,0,0,0
514,1765220789432,4,-8,0,0,0,0,0,0
515,1765220789880,5,-9,-2,0,0,0,0,0
516,1765220789963,4,-9,1,0,0,0,0,0
517,1765220790182,6,-10,-1,0,0,0,0,0
518,1765220790315,5,-10,0,0,0,0,0,0
519,1765220790632,6,-8,1,0,0,0,0,0
520,1765220790764,5,-9,-1,0,0,0,0,0
521,1765220790998,7,-9,1,0,0,0,0,0
522,1765220791082,5,-9,0,0,0,0,0,0
523,1765220791313,5,-9,1,0,0,0,0,0
524,1765220791497,5,-9,-1,0,0,0,0,0
525,1765220791530,5,-9,255,0,0,0,0,0
526,1765220791780,6,-10,0,0,0,0,0,0
527,1765220791848,5,-9,-1,0,0,0,0,0
528,1765220792080,5,-9,-1,0,0,0,0,0
529,1765220792246,5,-9,-1,0,0,0,0,0
530,1765220792546,6,-7,0,0,0,0,0,0
531,1765220792647,4,-9,-1,0,0,0,0,0
532,1765220792830,5,-8,-1,0,0,0,0,0
533,1765220792998,7,-9,0,0,0,0,0,0
534,1765220793196,5,-9,0,0,0,0,0,0
535,1765220793498,5,-9,-1,0,0,0,0,0
536,1765220793679,6,-9,0,0,0,0,0,0
537,1765220793780,5,-10,-1,0,0,0,0,0
538,1765220794248,5,-10,-2,0,0,0,0,0
539,1765220794413,6,-9,0,0,0,0,0,0
540,1765220794598,6,-10,0,0,0,0,0,0
541,1765220794697,5,-8,0,0,0,0,0,0
542,1765220794896,5,-10,0,0,0,0,0,0
543,1765220795047,5,-9,0,0,0,0,0,0
544,1765220795265,6,-9,0,0,0,0,0,0
545,1765220795446,5,-9,0,0,0,0,0,0
546,1765220795598,6,-9,0,0,0,0,0,0
547,1765220795747,5,-9,0,0,0,0,0,0
548,1765220795814,5,-9,1,0,0,0,0,0
549,1765220796013,4,-9,0,0,0,0,0,0
550,1765220796114,6,-8,-1,0,0,0,0,0
551,1765220796315,5,-9,2,0,0,0,0,0
552,1765220796398,6,-9,-1,0,0,0,0,0
553,1765220796697,8,-10,0,0,0,0,0,0
554,1765220796764,4,-9,0,0,0,0,0,0
555,1765220797006,5,-8,1,0,0,0,0,0
556,1765220797082,6,-9,-1,0,0,0,0,0
557,1765220797165,3,-8,0,0,0,0,0,0
558,1765220797348,5,-11,0,0,0,0,0,0
559,1765220797448,5,-7,1,0,0,0,0,0
560,1765220797631,6,-10,-1,0,0,0,0,0
561,1765220797747,5,-9,1,0,0,0,0,0
562,1765220797864,5,-9,-2,0,0,0,0,0
563,1765220797997,5,-10,0,0,0,0,0,0
564,1765220798148,5,-10,0,0,0,0,0,0
565,1765220798281,4,-9,-1,0,0,0,0,0
566,1765220798431,5,-8,0,0,0,0,0,0
567,1765220798530,5,-9,0,0,0,0,0,0
568,1765220798630,5,-9,-1,0,0,0,0,0
569,1765220798814,6,-7,1,0,0,0,0,0
570,1765220798931,6,-9,-1,0,0,0,0,0
571,1765220799115,4,-9,0,0,0,0,0,0
572,1765220799181,6,-9,0,0,0,0,0,0
573,1765220799282,4,-10,-1,0,0,0,0,0
574,1765220799464,3,-8,-1,0,0,0,0,0
575,1765220799581,7,-10,0,0,0,0,0,0
576,1765220799765,5,-9,0,0,0,0,0,0
577,1765220799831,6,-7,0,0,0,0,0,0
578,1765220799930,5,-8,0,0,0,0,0,0
579,1765220800114,6,-11,-1,0,0,0,0,0
580,1765220800213,8,-9,0,0,0,0,0,0
581,1765220800414,7,-10,2,0,0,0,0,0
582,1765220800513,1,-10,-2,0,0,0,0,0
583,1765220800564,4,-6,-1,0,0,0,0,0
584,1765220800780,7,-8,0,0,0,0,0,0
585,1765220800863,5,-8,0,0,0,0,0,0
586,1765220801080,1,-8,-3,0,0,0,0,0
587,1765220801148,8,-10,-2,0,0,0,0,0
588,1765220801214,6,-10,-2,0,0,0,0,0
589,1765220801447,5,-9,1,0,0,0,0,0
590,1765220801515,7,-9,-1,0,0,0,0,0
591,1765220801748,5,-8,-2,0,0,0,0,0
592,1765220801796,4,-11,0,0,0,0,0,0
593,1765220801881,5,-10,-2,0,0,0,0,0
594,1765220802097,5,-8,-1,0,0,0,0,0
595,1765220802199,5,-8,0,0,0,0,0,0
596,1765220802381,6,-9,0,0,0,0,0,0
597,1765220802464,6,-10,-1,0,0,0,0,0
598,1765220802730,7,-10,2,0,0,0,0,0
599,1765220802830,7,-9,2,0,0,0,0,0
600,1765220803029,6,-8,-2,0,0,0,0,0
601,1765220803114,7,-10,-1,0,0,0,0,0
602,1765220803381,5,-7,1,0,0,0,0,0
603,1765220803481,6,-9,0,0,0,0,0,0
604,1765220803664,7,-9,1,0,0,0,0,0
605,1765220803764,6,-9,1,0,0,0,0,0
606,1765220804032,6,-9,-1,0,0,0,0,0
607,1765220804164,6,-8,-1,0,0,0,0,0
608,1765220804315,5,-8,0,0,0,0,0,0
609,1765220804480,5,-9,-1,0,0,0,0,0
610,1765220804647,4,-9,-1,0,0,0,0,0
611,1765220804798,4,-9,3,0,0,0,0,0
612,1765220804930,5,-9,0,0,0,0,0,0
613,1765220805167,5,-10,0,0,0,0,0,0
614,1765220805230,5,-8,0,0,0,0,0,0
615,1765220805497,5,-9,0,0,0,0,0,0
616,1765220805582,4,-10,0,0,0,0,0,0
617,1765220805781,6,-10,0,0,0,0,0,0
618,1765220805914,6,-8,0,0,0,0,0,0
619,1765220806114,6,-9,1,0,0,0,0,0
620,1765220806264,6,-9,-1,0,0,0,0,0
621,1765220806416,5,-9,-1,0,0,0,0,0
622,1765220806614,5,-8,0,0,0,0,0,0
623,1765220806731,6,-9,1,0,0,0,0,0
624,1765220806963,6,-8,0,0,0,0,0,0
625,1765220807048,6,-8,1,0,0,0,0,0
626,1765220807264,5,-8,0,0,0,0,0,0
627,1765220807381,6,-10,-1,0,0,0,0,0
628,1765220807615,4,-10,-1,0,0,0,0,0
629,1765220807714,5,-9,0,0,0,0,0,0
630,1765220808081,6,-10,1,0,0,0,0,0
631,1765220808398,5,-10,-1,0,0,0,0,0
632,1765220808448,5,-8,-1,0,0,0,0,0
633,1765220808648,6,-7,0,0,0,0,0,0
634,1765220808812,5,-7,0,0,0,0,0,0
635,1765220808980,4,-9,-1,0,0,0,0,0
636,1765220809146,5,-9,-2,0,0,0,0,0
637,1765220809314,5,-10,-1,0,0,0,0,0
638,1765220809513,5,-9,0,0,0,0,0,0
639,1765220809631,6,-8,-1,0,0,0,0,0
640,1765220809848,7,-9,0,0,0,0,0,0
641,1765220810098,6,-8,1,0,0,0,0,0
642,1765220810265,5,-8,-2,0,0,0,0,0
643,1765220810448,4,-9,2,0,0,0,0,0
644,1765220810646,6,-9,-1,0,0,0,0,0
645,1765220810779,5,-8,1,0,0,0,0,0
646,1765220810963,6,-9,-1,0,0,0,0,0
647,1765220811115,6,-10,0,0,0,0,0,0
648,1765220811330,4,-9,-2,0,0,0,0,0
649,1765220811414,6,-9,-1,0,0,0,0,0
650,1765220811848,-1,-2,-1,0,0,0,0,0
651,1765220812065,7,-5,-1,0,0,0,0,0
652,1765220812131,7,-8,0,0,0,0,0,0
653,1765220812531,4,-10,-1,0,0,0,0,0
654,1765220812714,4,-8,0,0,0,0,0,0
655,1765220812831,5,-8,1,0,0,0,0,0
656,1765220813164,5,-8,0,0,0,0,0,0
657,1765220813314,6,-8,0,0,0,0,0,0
658,1765220813464,4,-9,1,0,0,0,0,0
659,1765220813848,6,-9,0,0,0,0,0,0
660,1765220813948,6,-11,-1,0,0,0,0,0
661,1765220814131,4,-10,-1,0,0,0,0,0
662,1765220814265,5,-9,-1,0,0,0,0,0
663,1765220814431,5,-8,255,0,0,0,0,0
664,1765220814531,5,-9,0,0,0,0,0,0
665,1765220814798,5,-9,0,0,0,0,0,0
666,1765220814881,4,-8,-1,0,0,0,0,0
667,1765220815081,6,-10,-1,0,0,0,0,0
668,1765220815231,5,-10,1,0,0,0,0,0
669,1765220815415,7,-9,-1,0,0,0,0,0
670,1765220815514,5,-10,0,0,0,0,0,0
671,1765220815698,4,-9,-2,0,0,0,0,0
672,1765220815898,6,-9,-1,0,0,0,0,0
673,1765220816098,6,-8,-1,0,0,0,0,0
674,1765220816198,3,-9,0,0,0,0,0,0
675,1765220816281,5,-8,0,0,0,0,0,0
676,1765220816381,3,-7,-1,0,0,0,0,0
677,1765220816564,6,-9,0,0,0,0,0,0
678,1765220816997,6,-9,-1,0,0,0,0,0
679,1765220817147,5,-10,1,0,0,0,0,0
680,1765220817297,5,-9,-1,0,0,0,0,0
681,1765220817714,7,-9,1,0,0,0,0,0
682,1765220817814,6,-12,4,0,0,0,0,0
683,1765220818014,4,-12,-6,0,0,0,0,0
684,1765220818147,6,-10,1,0,0,0,0,0
685,1765220818448,4,-9,-2,0,0,0,0,0
686,1765220818598,5,-9,-1,0,0,0,0,0
687,1765220818883,5,-10,0,0,0,0,0,0
688,1765220818896,4,-9,1,0,0,0,0,0
689,1765220819114,6,-9,-1,0,0,0,0,0
690,1765220819280,6,-9,0,0,0,0,0,0
691,1765220819515,5,-10,2,0,0,0,0,0
692,1765220819581,4,-10,-1,0,0,0,0,0
693,1765220819815,4,-9,0,0,0,0,0,0
694,1765220820264,6,-8,1,0,0,0,0,0
695,1765220820381,4,-9,-1,0,0,0,0,0
696,1765220820564,5,-10,2,0,0,0,0,0
697,1765220820697,5,-10,0,0,0,0,0,0
698,1765220820964,4,-9,0,0,0,0,0,0
699,1765220821047,6,-9,-2,0,0,0,0,0
700,1765220821398,4,-10,1,0,0,0,0,0
701,1765220821664,6,-10,1,0,0,0,0,0
702,1765220821798,5,-9,-1,0,0,0,0,0
703,1765220822031,5,-9,0,0,0,0,0,0
704,1765220822148,6,-10,0,0,0,0,0,0
705,1765220822381,6,-9,0,0,0,0,0,0
706,1765220822514,5,-9,-1,0,0,0,0,0
707,1765220822531,5,-9,-2,0,0,0,0,0
708,1765220822731,5,-9,0,0,0,0,0,0
709,1765220822864,5,-10,0,0,0,0,0,0
710,1765220823065,4,-10,-1,0,0,0,0,0
711,1765220823214,8,-7,3,0,0,0,0,0
712,1765220823498,3,-10,0,0,0,0,0,0
713,1765220823581,7,-9,0,0,0,0,0,0
714,1765220823964,7,-10,0,0,0,0,0,0
715,1765220824098,5,-9,-1,0,0,0,0,0
716,1765220824281,4,-9,1,0,0,0,0,0
717,1765220824631,6,-9,-2,0,0,0,0,0
718,1765220824698,5,-10,2,0,0,0,0,0
719,1765220825014,6,-11,1,0,0,0,0,0
720,1765220825165,4,-8,0,0,0,0,0,0
721,1765220825380,6,-10,0,0,0,0,0,0
722,1765220825514,6,-9,0,0,0,0,0,0
723,1765220825764,6,-10,-1,0,0,0,0,0
724,1765220825865,4,-11,0,0,0,0,0,0
725,1765220826098,4,-10,0,0,0,0,0,0
726,1765220826231,6,-10,0,0,0,0,0,0
727,1765220826431,5,-10,1,0,0,0,0,0
728,1765220826531,4,-9,-1,0,0,0,0,0
729,1765220826831,4,-9,0,0,0,0,0,0
730,1765220826948,5,-9,2,0,0,0,0,0
731,1765220827114,4,-8,0,0,0,0,0,0
732,1765220827247,5,-10,0,0,0,0,0,0
733,1765220827529,6,-10,0,0,0,0,0,0
734,1765220827563,5,-8,0,0,0,0,0,0
735,1765220827714,4,-10,0,0,0,0,0,0
736,1765220827948,5,-9,1,0,0,0,0,0
737,1765220828014,5,-10,-2,0,0,0,0,0
738,1765220828447,5,-10,1,0,0,0,0,0
739,1765220828614,6,-8,0,0,0,0,0,0
740,1765220828731,6,-11,-2,0,0,0,0,0
741,1765220828764,6,-9,1,0,0,0,0,0
742,1765220828864,6,-10,-1,0,0,0,0,0
743,1765220829081,8,-8,1,0,0,0,0,0
744,1765220829214,6,-9,-2,0,0,0,0,0
745,1765220829564,5,-9,-1,0,0,0,0,0
746,1765220829681,7,-11,0,0,0,0,0,0
747,1765220829845,6,-10,0,0,0,0,0,0
748,1765220830064,5,-9,0,0,0,0,0,0
749,1765220830331,3,-9,0,0,0,0,0,0
750,1765220830497,4,-6,1,0,0,0,0,0
751,1765220830614,6,-9,3,0,0,0,0,0
752,1765220830731,5,-10,-1,0,0,0,0,0
753,1765220830898,5,-9,0,0,0,0,0,0
754,1765220831048,7,-9,0,0,0,0,0,0
755,1765220831248,5,-10,1,0,0,0,0,0
756,1765220831314,6,-10,1,0,0,0,0,0
757,1765220831464,5,-10,0,0,0,0,0,0
758,1765220831598,6,-9,1,0,0,0,0,0
759,1765220831830,4,-9,0,0,0,0,0,0
760,1765220831881,5,-9,0,0,0,0,0,0
761,1765220832098,4,-10,0,0,0,0,0,0
762,1765220832247,4,-10,0,0,0,0,0,0
763,1765220832397,5,-9,-1,0,0,0,0,0
764,1765220832648,7,-9,0,0,0,0,0,0
765,1765220832731,4,-9,0,0,0,0,0,0
766,1765220832980,5,-9,0,0,0,0,0,0
767,1765220833098,5,-9,0,0,0,0,0,0
768,1765220833181,6,-8,-1,0,0,0,0,0
769,1765220833398,6,-9,3,0,0,0,0,0
770,1765220833465,5,-9,0,0,0,0,0,0
771,1765220833730,3,-9,-2,0,0,0,0,0
772,1765220833947,4,-7,0,0,0,0,0,0
773,1765220834131,6,-12,0,0,0,0,0,0
774,1765220834231,5,-9,0,0,0,0,0,0
775,1765220834364,6,-11,1,0,0,0,0,0
776,1765220834514,6,-9,-1,0,0,0,0,0
777,1765220834681,3,-10,-1,0,0,0,0,0
778,1765220834831,5,-10,0,0,0,0,0,0
779,1765220834914,12,-13,8,0,0,0,0,0
780,1765220835115,9,-13,5,0,0,0,0,0
781,1765220835198,3,-8,8,0,0,0,0,0
782,1765220835396,5,-10,255,0,0,0,0,0
783,1765220835480,3,-10,-3,0,0,0,0,0
784,1765220835614,4,-7,-3,0,0,0,0,0
785,1765220835882,5,-10,0,0,0,0,0,0
786,1765220835983,7,-9,3,0,0,0,0,0
787,1765220836214,6,-10,1,0,0,0,0,0
788,1765220836329,6,-9,0,0,0,0,0,0
789,1765220836548,5,-10,0,0,0,0,0,0
790,1765220836647,6,-9,0,0,0,0,0,0
791,1765220836747,6,-11,0,0,0,0,0,0
792,1765220836847,5,-10,-1,0,0,0,0,0
793,1765220837047,5,-9,-1,0,0,0,0,0
794,1765220837132,6,-9,0,0,0,0,0,0
795,1765220837396,6,-9,-1,0,0,0,0,0
796,1765220837580,5,-10,0,0,0,0,0,0
797,1765220837797,5,-10,0,0,0,0,0,0
798,1765220837882,6,-10,1,0,0,0,0,0
799,1765220837980,6,-11,2,0,0,0,0,0
800,1765220838146,6,-9,-1,0,0,0,0,0
801,1765220838299,5,-8,1,0,0,0,0,0
802,1765220838497,3,-10,0,0,0,0,0,0
803,1765220838579,5,-10,0,0,0,0,0,0
804,1765220838713,4,-9,-2,0,0,0,0,0
805,1765220838897,4,-8,2,0,0,0,0,0
806,1765220839031,7,-8,-1,0,0,0,0,0
807,1765220839264,1,-10,-2,0,0,0,0,0
808,1765220839464,6,-9,-9,0,0,0,0,0
809,1765220839646,11,-12,11,0,0,0,0,0
810,1765220839830,4,-11,0,0,0,0,0,0
811,1765220839897,7,-10,3,0,0,0,0,0
812,1765220840165,4,-9,-3,0,0,0,0,0
813,1765220840329,6,-9,-2,0,0,0,0,0
814,1765220840514,6,-9,0,0,0,0,0,0
815,1765220840613,6,-9,1,0,0,0,0,0
816,1765220840914,6,-9,0,0,0,0,0,0
817,1765220841064,5,-9,0,0,0,0,0,0
818,1765220841298,4,-8,1,0,0,0,0,0
819,1765220841413,4,-9,0,0,0,0,0,0
820,1765220841597,5,-9,-1,0,0,0,0,0
821,1765220841664,6,-9,-1,0,0,0,0,0
822,1765220841763,5,-9,2,0,0,0,0,0
823,1765220841996,7,-9,0,0,0,0,0,0
824,1765220842099,5,-10,0,0,0,0,0,0
825,1765220842331,6,-11,0,0,0,0,0,0
826,1765220842430,6,-10,0,0,0,0,0,0
827,1765220842747,6,-10,-1,0,0,0,0,0
828,1765220842880,5,-8,0,0,0,0,0,0
829,1765220843081,3,-9,1,0,0,0,0,0
830,1765220843181,6,-8,0,0,0,0,0,0
831,1765220843447,7,-8,1,0,0,0,0,0
832,1765220843597,5,-10,2,0,0,0,0,0
833,1765220843764,4,-9,0,0,0,0,0,0
834,1765220843882,6,-9,-1,0,0,0,0,0
835,1765220844330,5,-9,0,0,0,0,0,0
836,1765220844563,6,-9,-1,0,0,0,0,0
837,1765220844631,5,-9,1,0,0,0,0,0
838,1765220844864,5,-9,0,0,0,0,0,0
839,1765220844996,6,-8,0,0,0,0,0,0
840,1765220845281,7,-9,-2,0,0,0,0,0
841,1765220845348,6,-9,-1,0,0,0,0,0
842,1765220845412,4,-10,1,0,0,0,0,0
843,1765220845531,7,-12,0,0,0,0,0,0
844,1765220845714,5,-10,-2,0,0,0,0,0
845,1765220846164,7,-10,3,0,0,0,0,0
846,1765220846297,7,-9,-3,0,0,0,0,0
847,1765220846447,11,-15,-1,0,0,0,0,0
848,1765220846647,8,-12,1,0,0,0,0,0
849,1765220846831,6,-10,0,0,0,0,0,0
850,1765220846948,5,-8,3,0,0,0,0,0
851,1765220847148,7,-9,-4,0,0,0,0,0
852,1765220847281,6,-9,1,0,0,0,0,0
853,1765220847514,7,-9,1,0,0,0,0,0
854,1765220847747,6,-10,-2,0,0,0,0,0
855,1765220847962,5,-9,1,0,0,0,0,0
856,1765220848047,6,-10,0,0,0,0,0,0
857,1765220848281,6,-10,-1,0,0,0,0,0
858,1765220848414,5,-11,0,0,0,0,0,0
859,1765220848631,4,-9,1,0,0,0,0,0
860,1765220848748,6,-9,-1,0,0,0,0,0
861,1765220848981,4,-10,-1,0,0,0,0,0
862,1765220849047,7,-9,1,0,0,0,0,0
863,1765220849214,6,-10,0,0,0,0,0,0
864,1765220849481,5,-9,-1,0,0,0,0,0
865,1765220849714,6,-9,1,0,0,0,0,0
866,1765220849864,5,-9,-1,0,0,0,0,0
867,1765220849997,6,-10,0,0,0,0,0,0
868,1765220850197,5,-12,1,0,0,0,0,0
869,1765220850381,7,-8,0,0,0,0,0,0
870,1765220850597,6,-10,0,0,0,0,0,0
871,1765220850697,4,-8,0,0,0,0,0,0
872,1765220850947,5,-9,-1,0,0,0,0,0
873,1765220851181,4,-9,-1,0,0,0,0,0
874,1765220851347,6,-9,-1,0,0,0,0,0
875,1765220851514,7,-8,0,0,0,0,0,0
876,1765220851713,6,-10,0,0,0,0,0,0
877,1765220851797,7,-10,2,0,0,0,0,0
878,1765220852047,6,-9,-2,0,0,0,0,0
879,1765220852181,6,-10,1,0,0,0,0,0
880,1765220852431,5,-10,0,0,0,0,0,0
881,1765220852497,3,-9,-2,0,0,0,0,0
882,1765220852814,4,-9,0,0,0,0,0,0
883,1765220852931,7,-11,-1,0,0,0,0,0
884,1765220853164,7,-10,1,0,0,0,0,0
885,1765220853264,6,-11,1,0,0,0,0,0
886,1765220853514,5,-7,-2,0,0,0,0,0
887,1765220853662,8,-9,-1,0,0,0,0,0
888,1765220853897,4,-9,0,0,0,0,0,0
889,1765220853997,5,-8,-1,0,0,0,0,0
890,1765220854230,5,-9,-1,0,0,0,0,0
891,1765220854464,5,-9,-2,0,0,0,0,0
892,1765220854647,5,-8,-2,0,0,0,0,0
893,1765220854731,6,-9,0,0,0,0,0,0
894,1765220854797,5,-8,0,0,0,0,0,0
895,1765220855047,6,-10,0,0,0,0,0,0
896,1765220855147,5,-11,0,0,0,0,0,0
897,1765220855362,3,-10,0,0,0,0,0,0
898,1765220855397,7,-10,2,0,0,0,0,0
899,1765220855514,7,-8,-2,0,0,0,0,0
900,1765220855731,6,-10,1,0,0,0,0,0
901,1765220855813,7,-9,0,0,0,0,0,0
902,1765220856248,6,-10,-2,0,0,0,0,0
903,1765220856495,6,-8,0,0,0,0,0,0
904,1765220856581,7,-11,0,0,0,0,0,0
905,1765220856797,6,-9,-1,0,0,0,0,0
906,1765220856964,5,-8,-1,0,0,0,0,0
907,1765220857198,7,-9,0,0,0,0,0,0
908,1765220857346,6,-10,1,0,0,0,0,0
909,1765220857514,5,-10,-1,0,0,0,0,0
910,1765220857714,7,-9,1,0,0,0,0,0
911,1765220858081,6,-8,-1,0,0,0,0,0
912,1765220858280,6,-9,0,0,0,0,0,0
913,1765220858381,6,-8,-1,0,0,0,0,0
914,1765220858531,5,-10,-1,0,0,0,0,0
915,1765220858797,5,-9,-1,0,0,0,0,0
916,1765220858912,8,-10,-1,0,0,0,0,0
917,1765220859097,4,-11,-1,0,0,0,0,0
918,1765220859114,7,-9,-1,0,0,0,0,0
919,1765220859247,6,-10,0,0,0,0,0,0
920,1765220859547,4,-10,-2,0,0,0,0,0
921,1765220859681,6,-9,0,0,0,0,0,0
922,1765220859898,7,-10,1,0,0,0,0,0
923,1765220859996,6,-10,0,0,0,0,0,0
924,1765220860231,6,-7,0,0,0,0,0,0
925,1765220860364,5,-8,-1,0,0,0,0,0
926,1765220860563,7,-10,0,0,0,0,0,0
927,1765220860696,5,-9,-1,0,0,0,0,0
928,1765220860897,6,-8,0,0,0,0,0,0
929,1765220861064,4,-8,-2,0,0,0,0,0
930,1765220861297,6,-9,2,0,0,0,0,0
931,1765220861431,6,-10,-1,0,0,0,0,0
932,1765220861748,6,-9,1,0,0,0,0,0
933,1765220861848,5,-9,-2,0,0,0,0,0
934,1765220862098,6,-9,0,0,0,0,0,0
935,1765220862180,6,-9,-1,0,0,0,0,0
936,1765220862230,5,-9,-2,0,0,0,0,0
937,1765220862330,4,-9,1,0,0,0,0,0
938,1765220862514,7,-10,-1,0,0,0,0,0
939,1765220862649,5,-10,-1,0,0,0,0,0
940,1765220863063,5,-10,-1,0,0,0,0,0
941,1765220863281,5,-8,1,0,0,0,0,0
942,1765220863398,5,-9,-1,0,0,0,0,0
943,1765220863547,5,-9,-3,0,0,0,0,0
944,1765220863697,5,-9,-1,0,0,0,0,0
945,1765220863930,5,-10,-1,0,0,0,0,0
946,1765220864031,5,-9,0,0,0,0,0,0
947,1765220864079,6,-11,1,0,0,0,0,0
948,1765220864164,5,-9,-1,0,0,0,0,0
949,1765220864397,3,-10,0,0,0,0,0,0
950,1765220864580,5,-9,-1,0,0,0,0,0
951,1765220864897,4,-8,-2,0,0,0,0,0
952,1765220864963,5,-9,0,0,0,0,0,0
953,1765220865180,6,-11,1,0,0,0,0,0
954,1765220865280,7,-9,-2,0,0,0,0,0
955,1765220865347,5,-8,0,0,0,0,0,0
956,1765220865513,4,-7,-2,0,0,0,0,0
957,1765220865663,6,-10,1,0,0,0,0,0
958,1765220865847,5,-11,2,0,0,0,0,0
959,1765220866081,6,-9,2,0,0,0,0,0
960,1765220866197,5,-8,-3,0,0,0,0,0
961,1765220866430,5,-9,1,0,0,0,0,0
962,1765220866714,5,-9,-1,0,0,0,0,0
963,1765220866847,7,-9,1,0,0,0,0,0
964,1765220866997,5,-10,-1,0,0,0,0,0
965,1765220867264,5,-8,0,0,0,0,0,0
966,1765220867331,5,-10,-1,0,0,0,0,0
967,1765220867614,4,-11,0,0,0,0,0,0
968,1765220867798,6,-8,1,0,0,0,0,0
969,1765220867980,7,-8,-2,0,0,0,0,0
970,1765220868080,6,-8,0,0,0,0,0,0
971,1765220868363,5,-8,1,0,0,0,0,0
972,1765220868563,4,-10,-1,0,0,0,0,0
973,1765220868781,4,-10,-1,0,0,0,0,0
974,1765220868864,5,-8,-2,0,0,0,0,0
975,1765220868963,4,-8,-1,0,0,0,0,0
976,1765220869097,6,-8,0,0,0,0,0,0
977,1765220869281,2,-9,-1,0,0,0,0,0
978,1765220869431,6,-9,1,0,0,0,0,0
979,1765220869697,6,-8,1,0,0,0,0,0
980,1765220869764,6,-10,-2,0,0,0,0,0
981,1765220869981,6,-11,1,0,0,0,0,0
982,1765220870180,4,-9,-2,0,0,0,0,0
983,1765220870463,6,-9,0,0,0,0,0,0
984,1765220870548,7,-10,1,0,0,0,0,0
985,1765220870813,5,-8,0,0,0,0,0,0
986,1765220870947,6,-10,0,0,0,0,0,0
987,1765220871147,6,-10,0,0,0,0,0,0
988,1765220871263,5,-9,0,0,0,0,0,0
989,1765220871381,5,-10,-1,0,0,0,0,0
990,1765220871480,6,-8,0,0,0,0,0,0
991,1765220871664,5,-8,-1,0,0,0,0,0
992,1765220871779,5,-10,-1,0,0,0,0,0
993,1765220872013,5,-8,0,0,0,0,0,0
994,1765220872231,2,-8,-1,0,0,0,0,0
995,1765220872431,6,-10,0,0,0,0,0,0
996,1765220872530,6,-9,0,0,0,0,0,0
997,1765220872613,6,-8,0,0,0,0,0,0
998,1765220872813,5,-9,0,0,0,0,0,0
999,1765220872947,4,-8,-1,0,0,0,0,0
1000,1765220873314,6,-9,-1,0,0,0,0,0
1001,1765220873414,5,-7,0,0,0,0,0,0
1002,1765220873612,5,-10,1,0,0,0,0,0
1003,1765220874080,5,-10,-1,0,0,0,0,0
1004,1765220874247,4,-10,0,0,0,0,0,0
1005,1765220874364,5,-8,-2,0,0,0,0,0
1006,1765220874464,6,-8,-1,0,0,0,0,0
1007,1765220874531,6,-9,2,0,0,0,0,0
1008,1765220874780,5,-9,0,0,0,0,0,0
1009,1765220874897,4,-9,0,0,0,0,0,0
1010,1765220875114,5,-10,0,0,0,0,0,0
1011,1765220875213,4,-8,0,0,0,0,0,0
1012,1765220875514,7,-9,-1,0,0,0,0,0
1013,1765220875914,6,-10,0,0,0,0,0,0
1014,1765220875997,6,-8,0,0,0,0,0,0
1015,1765220876197,4,-9,1,0,0,0,0,0
1016,1765220876347,3,-9,0,0,0,0,0,0
1017,1765220876614,4,-9,0,0,0,0,0,0
1018,1765220876714,4,-8,0,0,0,0,0,0
1019,1765220876913,5,-10,0,0,0,0,0,0
1020,1765220877064,4,-10,0,0,0,0,0,0
1021,1765220877364,6,-8,1,0,0,0,0,0
1022,1765220877464,5,-8,1,0,0,0,0,0
1023,1765220877680,6,-8,-2,0,0,0,0,0
1024,1765220877797,5,-10,0,0,0,0,0,0
1025,1765220878080,5,-10,0,0,0,0,0,0
1026,1765220878130,5,-9,-1,0,0,0,0,0
1027,1765220878197,5,-8,0,0,0,0,0,0
1028,1765220878330,6,-10,-1,0,0,0,0,0
1029,1765220878481,6,-9,0,0,0,0,0,0
1030,1765220878664,5,-10,1,0,0,0,0,0
1031,1765220878864,5,-9,0,0,0,0,0,0
1032,1765220879097,3,-9,1,0,0,0,0,0
1033,1765220879230,6,-8,0,0,0,0,0,0
1034,1765220879613,5,-10,0,0,0,0,0,0
1035,1765220879814,5,-10,-2,0,0,0,0,0
1036,1765220879946,6,-9,1,0,0,0,0,0
1037,1765220880113,5,-9,1,0,0,0,0,0
1038,1765220880330,4,-10,-1,0,0,0,0,0
1039,1765220880580,5,-8,0,0,0,0,0,0
1040,1765220880780,5,-9,-1,0,0,0,0,0
1041,1765220880864,5,-10,-1,0,0,0,0,0
1042,1765220881064,5,-9,1,0,0,0,0,0
1043,1765220881214,6,-11,1,0,0,0,0,0
1044,1765220881414,7,-9,1,0,0,0,0,0
1045,1765220881547,5,-7,1,0,0,0,0,0
1046,1765220881764,5,-9,0,0,0,0,0,0
1047,1765220881881,5,-9,-1,0,0,0,0,0
1048,1765220882113,4,-10,1,0,0,0,0,0
1049,1765220882347,4,-9,0,0,0,0,0,0
1050,1765220882514,5,-9,1,0,0,0,0,0
1051,1765220882563,7,-9,1,0,0,0,0,0
1052,1765220882646,5,-9,-2,0,0,0,0,0
1053,1765220882880,6,-9,0,0,0,0,0,0
1054,1765220883013,4,-7,-1,0,0,0,0,0
1055,1765220883214,5,-9,-1,0,0,0,0,0
1056,1765220883330,7,-9,-1,0,0,0,0,0
1057,1765220883531,5,-9,0,0,0,0,0,0
1058,1765220883631,6,-9,1,0,0,0,0,0
1059,1765220884080,4,-9,-1,0,0,0,0,0
1060,1765220884313,5,-9,-1,0,0,0,0,0
1061,1765220884397,6,-7,0,0,0,0,0,0
1062,1765220884579,6,-8,0,0,0,0,0,0
1063,1765220884763,5,-10,0,0,0,0,0,0
1064,1765220884964,6,-9,0,0,0,0,0,0
1065,1765220885063,5,-10,1,0,0,0,0,0
1066,1765220885130,6,-9,-1,0,0,0,0,0
1067,1765220885230,4,-9,1,0,0,0,0,0
1068,1765220885497,4,-8,1,0,0,0,0,0
1069,1765220885881,5,-10,-1,0,0,0,0,0
1070,1765220886014,7,-10,0,0,0,0,0,0
1071,1765220886164,5,-10,-1,0,0,0,0,0
1072,1765220886597,5,-8,0,0,0,0,0,0
1073,1765220886730,6,-10,-1,0,0,0,0,0
1074,1765220886897,3,-10,-1,0,0,0,0,0
1075,1765220887030,5,-8,0,0,0,0,0,0
1076,1765220887346,6,-9,1,0,0,0,0,0
1077,1765220887480,5,-9,-1,0,0,0,0,0
1078,1765220887680,7,-10,0,0,0,0,0,0
1079,1765220887780,6,-10,0,0,0,0,0,0
1080,1765220888014,5,-10,-1,0,0,0,0,0
1081,1765220888131,5,-10,1,0,0,0,0,0
1082,1765220888397,6,-10,0,0,0,0,0,0
1083,1765220888481,6,-9,1,0,0,0,0,0
1084,1765220888730,4,-9,0,0,0,0,0,0
1085,1765220888863,3,-8,-2,0,0,0,0,0
1086,1765220889180,6,-10,-1,0,0,0,0,0
1087,1765220889297,4,-9,3,0,0,0,0,0
1088,1765220889497,6,-8,-1,0,0,0,0,0
1089,1765220889613,5,-10,0,0,0,0,0,0
1090,1765220889880,4,-8,0,0,0,0,0,0
1091,1765220889979,6,-7,0,0,0,0,0,0
1092,1765220890130,4,-9,0,0,0,0,0,0
1093,1765220890297,5,-10,1,0,0,0,0,0
1094,1765220890614,4,-10,-1,0,0,0,0,0
1095,1765220890697,6,-9,-1,0,0,0,0,0
1096,1765220890747,7,-9,1,0,0,0,0,0
1097,1765220890930,6,-8,-1,0,0,0,0,0
1098,1765220891063,5,-9,1,0,0,0,0,0
1099,1765220891280,6,-11,-2,0,0,0,0,0
1100,1765220891429,5,-9,-1,0,0,0,0,0
1101,1765220891647,6,-10,2,0,0,0,0,0
1102,1765220891764,5,-9,0,0,0,0,0,0
1103,1765220892146,6,-9,-2,0,0,0,0,0
1104,1765220892431,4,-9,0,0,0,0,0,0
1105,1765220892530,6,-11,1,0,0,0,0,0
1106,1765220892580,7,-9,1,0,0,0,0,0
1107,1765220892680,6,-9,1,0,0,0,0,0
1108,1765220892880,6,-8,1,0,0,0,0,0
1109,1765220893046,6,-8,-3,0,0,0,0,0
1110,1765220893247,5,-10,2,0,0,0,0,0
1111,1765220893363,6,-9,-1,0,0,0,0,0
1112,1765220893597,5,-10,255,0,0,0,0,0
1113,1765220893664,4,-8,0,0,0,0,0,0
1114,1765220893880,5,-8,0,0,0,0,0,0
1115,1765220894114,5,-9,-1,0,0,0,0,0
1116,1765220894346,7,-8,-1,0,0,0,0,0
1117,1765220894496,8,-11,-1,0,0,0,0,0
1118,1765220894663,4,-8,-1,0,0,0,0,0
1119,1765220894830,4,-10,-1,0,0,0,0,0
1120,1765220895214,6,-8,-2,0,0,0,0,0
1121,1765220895330,6,-9,-1,0,0,0,0,0
1122,1765220895513,5,-9,-1,0,0,0,0,0
1123,1765220895929,6,-9,1,0,0,0,0,0
1124,1765220896013,5,-9,-2,0,0,0,0,0
1125,1765220896230,5,-8,-2,0,0,0,0,0
1126,1765220896347,6,-10,0,0,0,0,0,0
1127,1765220896464,8,-10,-1,0,0,0,0,0
1128,1765220896663,6,-8,0,0,0,0,0,0
1129,1765220896847,6,-9,1,0,0,0,0,0
1130,1765220896965,5,-9,-2,0,0,0,0,0
1131,1765220897096,5,-8,0,0,0,0,0,0
1132,1765220897313,6,-9,0,0,0,0,0,0
1133,1765220897497,5,-10,0,0,0,0,0,0
1134,1765220897664,5,-10,0,0,0,0,0,0
1135,1765220897830,5,-8,2,0,0,0,0,0
1136,1765220897981,6,-8,-1,0,0,0,0,0
1137,1765220898163,5,-8,-1,0,0,0,0,0
1138,1765220898264,6,-7,0,0,0,0,0,0
1139,1765220898497,6,-8,0,0,0,0,0,0
1140,1765220898597,5,-10,-2,0,0,0,0,0
1141,1765220898913,4,-10,1,0,0,0,0,0
1142,1765220899012,6,-10,0,0,0,0,0,0
1143,1765220899314,3,-9,-1,0,0,0,0,0
1144,1765220899497,7,-9,1,0,0,0,0,0
1145,1765220899697,5,-9,3,0,0,0,0,0
1146,1765220899780,7,-8,-1,0,0,0,0,0
1147,1765220900046,5,-9,0,0,0,0,0,0
1148,1765220900213,7,-10,0,0,0,0,0,0
1149,1765220900363,7,-9,0,0,0,0,0,0
1150,1765220900497,5,-9,-2,0,0,0,0,0
1151,1765220900630,6,-9,0,0,0,0,0,0
1152,1765220900747,6,-9,1,0,0,0,0,0
1153,1765220900930,5,-8,-1,0,0,0,0,0
1154,1765220901163,5,-9,1,0,0,0,0,0
1155,1765220901230,5,-8,0,0,0,0,0,0
1156,1765220901413,6,-9,1,0,0,0,0,0
1157,1765220901513,5,-9,1,0,0,0,0,0
1158,1765220901696,6,-10,-1,0,0,0,0,0
1159,1765220901880,5,-9,0,0,0,0,0,0
1160,1765220902146,4,-8,0,0,0,0,0,0
1161,1765220902213,8,-9,1,0,0,0,0,0
1162,1765220902430,3,-8,-1,0,0,0,0,0
1163,1765220902463,4,-9,-2,0,0,0,0,0
1164,1765220902613,6,-9,-1,0,0,0,0,0
1165,1765220902880,7,-9,0,0,0,0,0,0
1166,1765220902979,7,-9,1,0,0,0,0,0
1167,1765220903097,5,-8,-1,0,0,0,0,0
1168,1765220903230,4,-10,-1,0,0,0,0,0
1169,1765220903380,5,-9,0,0,0,0,0,0
1170,1765220903513,5,-10,0,0,0,0,0,0
1171,1765220903763,6,-9,0,0,0,0,0,0
1172,1765220903896,4,-11,-1,0,0,0,0,0
1173,1765220904095,6,-9,1,0,0,0,0,0
1174,1765220904178,6,-8,-2,0,0,0,0,0
1175,1765220904295,5,-8,-1,0,0,0,0,0
1176,1765220904412,5,-8,0,0,0,0,0,0
1177,1765220904596,4,-10,-1,0,0,0,0,0
1178,1765220905080,5,-10,-1,0,0,0,0,0
1179,1765220905196,6,-8,1,0,0,0,0,0
1180,1765220905380,4,-8,1,0,0,0,0,0
1181,1765220905463,4,-9,1,0,0,0,0,0
1182,1765220905547,6,-9,0,0,0,0,0,0
1183,1765220905812,5,-8,-1,0,0,0,0,0
1184,1765220905879,5,-9,0,0,0,0,0,0
1185,1765220906130,4,-10,0,0,0,0,0,0
1186,1765220906375,5,-8,-1,0,0,0,0,0
1187,1765220906412,5,-8,-2,0,0,0,0,0
1188,1765220906663,5,-9,-2,0,0,0,0,0
1189,1765220906880,6,-9,1,0,0,0,0,0
1190,1765220907063,7,-9,0,0,0,0,0,0
1191,1765220907163,4,-8,-1,0,0,0,0,0
1192,1765220907447,5,-8,-1,0,0,0,0,0
1193,1765220907580,7,-8,-1,0,0,0,0,0
1194,1765220907797,3,-9,0,0,0,0,0,0
1195,1765220907947,4,-9,1,0,0,0,0,0
1196,1765220908114,5,-9,1,0,0,0,0,0
1197,1765220908247,5,-9,0,0,0,0,0,0
1198,1765220908680,5,-9,-1,0,0,0,0,0
1199,1765220908847,7,-10,0,0,0,0,0,0
1200,1765220908980,5,-10,1,0,0,0,0,0
1201,1765220909380,6,-11,-1,0,0,0,0,0
1202,1765220909512,3,-8,0,0,0,0,0,0
1203,1765220909680,7,-10,1,0,0,0,0,0
1204,1765220909813,5,-9,-1,0,0,0,0,0
1205,1765220910081,5,-10,-1,0,0,0,0,0
1206,1765220910297,4,-9,1,0,0,0,0,0
1207,1765220910497,5,-11,0,0,0,0,0,0
1208,1765220910597,5,-10,0,0,0,0,0,0
1209,1765220910811,5,-10,0,0,0,0,0,0
1210,1765220910995,6,-8,1,0,0,0,0,0
1211,1765220911196,6,-9,0,0,0,0,0,0
1212,1765220911263,6,-9,0,0,0,0,0,0
1213,1765220911513,6,-9,0,0,0,0,0,0
1214,1765220911646,7,-10,0,0,0,0,0,0
1215,1765220911963,5,-10,0,0,0,0,0,0
1216,1765220912012,5,-10,-1,0,0,0,0,0
1217,1765220912379,6,-9,0,0,0,0,0,0
1218,1765220912563,4,-10,1,0,0,0,0,0
1219,1765220912713,6,-9,0,0,0,0,0,0
1220,1765220912879,6,-9,1,0,0,0,0,0
1221,1765220913096,6,-8,0,0,0,0,0,0
1222,1765220913247,5,-8,0,0,0,0,0,0
1223,1765220913713,5,-9,-1,0,0,0,0,0
1224,1765220913847,6,-10,0,0,0,0,0,0
1225,1765220914062,5,-9,0,0,0,0,0,0
1226,1765220914213,6,-9,0,0,0,0,0,0
1227,1765220914396,6,-8,-1,0,0,0,0,0
1228,1765220914547,5,-8,0,0,0,0,0,0
1229,1765220914930,4,-8,0,0,0,0,0,0
1230,1765220915030,5,-8,-1,0,0,0,0,0
1231,1765220915297,6,-10,0,0,0,0,0,0
1232,1765220915447,6,-8,1,0,0,0,0,0
1233,1765220915664,5,-10,-1,0,0,0,0,0
1234,1765220915763,5,-9,0,0,0,0,0,0
1235,1765220915979,4,-9,1,0,0,0,0,0
1236,1765220916163,8,-9,-1,0,0,0,0,0
1237,1765220916363,6,-9,1,0,0,0,0,0
1238,1765220916463,5,-9,-1,0,0,0,0,0
1239,1765220916647,4,-9,-2,0,0,0,0,0
1240,1765220916913,6,-10,0,0,0,0,0,0
1241,1765220917147,6,-9,1,0,0,0,0,0
1242,1765220917342,4,-8,0,0,0,0,0,0
1243,1765220917446,7,-7,-1,0,0,0,0,0
1244,1765220917579,5,-11,-1,0,0,0,0,0
1245,1765220917830,4,-11,0,0,0,0,0,0
1246,1765220917980,4,-9,0,0,0,0,0,0
1247,1765220918079,5,-9,1,0,0,0,0,0
1248,1765220918263,5,-9,0,0,0,0,0,0
1249,1765220918713,5,-9,1,0,0,0,0,0
1250,1765220918830,6,-10,2,0,0,0,0,0
1251,1765220919013,5,-8,-2,0,0,0,0,0
1252,1765220919163,8,-9,-1,0,0,0,0,0
1253,1765220919380,3,-9,0,0,0,0,0,0
1254,1765220919513,4,-9,-1,0,0,0,0,0
1255,1765220919729,6,-10,0,0,0,0,0,0
1256,1765220919863,3,-8,-1,0,0,0,0,0
1257,1765220920063,5,-10,-1,0,0,0,0,0
1258,1765220920330,6,-9,0,0,0,0,0,0
1259,1765220920529,7,-9,0,0,0,0,0,0
1260,1765220920613,7,-8,-1,0,0,0,0,0
1261,1765220920844,5,-8,0,0,0,0,0,0
1262,1765220920996,5,-9,-1,0,0,0,0,0
1263,1765220921196,6,-9,1,0,0,0,0,0
1264,1765220921314,6,-8,0,0,0,0,0,0
1265,1765220921530,5,-8,0,0,0,0,0,0
1266,1765220921697,4,-8,-3,0,0,0,0,0
1267,1765220921830,6,-7,0,0,0,0,0,0
1268,1765220922080,3,-10,0,0,0,0,0,0
1269,1765220922430,6,-6,-1,0,0,0,0,0
1270,1765220922547,6,-11,0,0,0,0,0,0
1271,1765220922746,6,-10,1,0,0,0,0,0
1272,1765220922897,5,-9,0,0,0,0,0,0
1273,1765220923130,7,-8,-1,0,0,0,0,0
1274,1765220923230,6,-10,-1,0,0,0,0,0
1275,1765220923413,4,-9,1,0,0,0,0,0
1276,1765220923578,6,-8,0,0,0,0,0,0
1277,1765220923863,6,-8,-2,0,0,0,0,0
1278,1765220923980,5,-9,0,0,0,0,0,0
1279,1765220924179,3,-8,0,0,0,0,0,0
1280,1765220924297,4,-9,1,0,0,0,0,0
1281,1765220924548,6,-9,0,0,0,0,0,0
1282,1765220924647,5,-9,-1,0,0,0,0,0
1283,1765220924830,4,-9,-2,0,0,0,0,0
1284,1765220924996,5,-10,0,0,0,0,0,0
1285,1765220925313,4,-8,1,0,0,0,0,0
1286,1765220925446,5,-8,0,0,0,0,0,0
1287,1765220925596,7,-11,0,0,0,0,0,0
1288,1765220925730,6,-9,1,0,0,0,0,0
1289,1765220925946,5,-9,0,0,0,0,0,0
1290,1765220926113,6,-11,-1,0,0,0,0,0
1291,1765220926263,4,-10,1,0,0,0,0,0
1292,1765220926430,5,-9,0,0,0,0,0,0
1293,1765220926613,4,-9,-1,0,0,0,0,0
1294,1765220926813,5,-8,1,0,0,0,0,0
1295,1765220927029,4,-9,-1,0,0,0,0,0
1296,1765220927180,6,-8,-1,0,0,0,0,0
1297,1765220927229,6,-8,0,0,0,0,0,0
1298,1765220927313,4,-8,0,0,0,0,0,0
1299,1765220927546,6,-9,0,0,0,0,0,0
1300,1765220927630,4,-8,-1,0,0,0,0,0
1301,1765220928013,6,-8,-2,0,0,0,0,0
1302,1765220928307,5,-9,0,0,0,0,0,0
1303,1765220928313,5,-9,2,0,0,0,0,0
1304,1765220928779,4,-8,-1,0,0,0,0,0
1305,1765220928979,5,-6,-1,0,0,0,0,0
1306,1765220929079,6,-10,2,0,0,0,0,0
1307,1765220929146,4,-9,-256,0,0,0,0,0
1308,1765220929263,5,-9,-1,0,0,0,0,0
1309,1765220929447,6,-9,0,0,0,0,0,0
1310,1765220929679,5,-8,-2,0,0,0,0,0
1311,1765220929846,6,-10,-3,0,0,0,0,0
1312,1765220929947,5,-8,0,0,0,0,0,0
1313,1765220930146,6,-9,-2,0,0,0,0,0
1314,1765220930547,7,-9,1,0,0,0,0,0
1315,1765220930646,7,-9,1,0,0,0,0,0
1316,1765220930861,4,-9,-3,0,0,0,0,0
1317,1765220930994,5,-8,-3,0,0,0,0,0
1318,1765220931080,6,-8,1,0,0,0,0,0
1319,1765220931363,4,-9,1,0,0,0,0,0
1320,1765220931429,3,-9,2,0,0,0,0,0
1321,1765220931763,4,-9,-1,0,0,0,0,0
1322,1765220931879,5,-8,-1,0,0,0,0,0
1323,1765220932146,6,-10,1,0,0,0,0,0
1324,1765220932280,7,-8,0,0,0,0,0,0
1325,1765220932513,4,-8,0,0,0,0,0,0
1326,1765220932579,6,-8,-2,0,0,0,0,0
1327,1765220932930,4,-8,0,0,0,0,0,0
1328,1765220933079,4,-9,-1,0,0,0,0,0
1329,1765220933263,6,-10,1,0,0,0,0,0
1330,1765220933396,4,-9,1,0,0,0,0,0
1331,1765220933463,5,-9,0,0,0,0,0,0
1332,1765220933679,4,-9,1,0,0,0,0,0
1333,1765220933746,5,-10,0,0,0,0,0,0
1334,1765220934146,6,-11,-1,0,0,0,0,0
1335,1765220934246,6,-9,-1,0,0,0,0,0
1336,1765220934430,5,-9,-5,0,0,0,0,0
1337,1765220934530,5,-9,1,0,0,0,0,0
1338,1765220934813,4,-9,0,0,0,0,0,0
1339,1765220934946,6,-10,1,0,0,0,0,0
1340,1765220935130,6,-10,-1,0,0,0,0,0
1341,1765220935363,5,-7,0,0,0,0,0,0
1342,1765220935513,5,-8,-1,0,0,0,0,0
1343,1765220935730,5,-9,0,0,0,0,0,0
1344,1765220935996,7,-9,0,0,0,0,0,0
1345,1765220936146,7,-8,-1,0,0,0,0,0
1346,1765220936296,4,-9,0,0,0,0,0,0
1347,1765220936429,5,-9,0,0,0,0,0,0
1348,1765220936547,5,-8,0,0,0,0,0,0
1349,1765220936630,6,-9,-1,0,0,0,0,0
1350,1765220936880,5,-10,0,0,0,0,0,0
1351,1765220936962,5,-8,-1,0,0,0,0,0
1352,1765220937046,5,-9,0,0,0,0,0,0
1353,1765220937230,4,-9,-2,0,0,0,0,0
1354,1765220937330,5,-9,1,0,0,0,0,0
1355,1765220937646,4,-9,0,0,0,0,0,0
1356,1765220937812,5,-8,-3,0,0,0,0,0
1357,1765220938028,4,-9,1,0,0,0,0,0
1358,1765220938113,5,-9,-1,0,0,0,0,0
1359,1765220938246,4,-8,0,0,0,0,0,0
1360,1765220938346,6,-8,1,0,0,0,0,0
1361,1765220938529,5,-10,-1,0,0,0,0,0
1362,1765220938680,5,-9,1,0,0,0,0,0
1363,1765220938946,4,-7,1,0,0,0,0,0
1364,1765220939047,4,-9,0,0,0,0,0,0
1365,1765220939261,3,-10,0,0,0,0,0,0
1366,1765220939463,2,-7,-1,0,0,0,0,0
1367,1765220939780,6,-7,0,0,0,0,0,0
1368,1765220939830,4,-7,-3,0,0,0,0,0
1369,1765220940078,6,-11,2,0,0,0,0,0
1370,1765220940229,3,-9,0,0,0,0,0,0
1371,1765220940380,4,-9,0,0,0,0,0,0
1372,1765220940562,5,-8,0,0,0,0,0,0
1373,1765220940665,4,-10,-1,0,0,0,0,0
1374,1765220940763,5,-8,0,0,0,0,0,0
1375,1765220940963,6,-8,0,0,0,0,0,0
1376,1765220941046,6,-7,-1,0,0,0,0,0
1377,1765220941312,3,-11,-1,0,0,0,0,0
1378,1765220941496,2,-8,-1,0,0,0,0,0
1379,1765220941729,8,-5,1,0,0,0,0,0
1380,1765220941813,8,-11,5,0,0,0,0,0
1381,1765220941863,5,-10,0,0,0,0,0,0
1382,1765220941928,6,-9,0,0,0,0,0,0
1383,1765220942163,4,-9,-3,0,0,0,0,0
1384,1765220942296,5,-8,-2,0,0,0,0,0
1385,1765220942529,3,-9,0,0,0,0,0,0
1386,1765220942646,5,-8,-2,0,0,0,0,0
1387,1765220942863,5,-8,-1,0,0,0,0,0
1388,1765220943012,4,-7,0,0,0,0,0,0
1389,1765220943380,6,-11,0,0,0,0,0,0
1390,1765220943596,7,-10,0,0,0,0,0,0
1391,1765220943679,5,-9,0,0,0,0,0,0
1392,1765220943746,6,-8,0,0,0,0,0,0
1393,1765220943846,6,-10,0,0,0,0,0,0
1394,1765220944096,5,-8,-1,0,0,0,0,0
1395,1765220944230,6,-9,-1,0,0,0,0,0
1396,1765220944463,4,-8,0,0,0,0,0,0
1397,1765220944547,5,-10,1,0,0,0,0,0
1398,1765220944846,4,-9,1,0,0,0,0,0
1399,1765220945213,7,-8,-1,0,0,0,0,0
1400,1765220945346,4,-8,0,0,0,0,0,0
1401,1765220945512,5,-9,0,0,0,0,0,0
1402,1765220945646,5,-10,1,0,0,0,0,0
1403,1765220945912,5,-10,-1,0,0,0,0,0
1404,1765220945994,4,-8,0,0,0,0,0,0
1405,1765220946197,4,-9,-1,0,0,0,0,0
1406,1765220946330,4,-8,-1,0,0,0,0,0
1407,1765220946646,6,-10,0,0,0,0,0,0
1408,1765220946746,7,-8,1,0,0,0,0,0
1409,1765220946896,5,-9,-1,0,0,0,0,0
1410,1765220947062,5,-9,-1,0,0,0,0,0
1411,1765220947246,4,-8,-1,0,0,0,0,0
1412,1765220947412,5,-9,2,0,0,0,0,0
1413,1765220947546,5,-9,0,0,0,0,0,0
1414,1765220947780,4,-8,0,0,0,0,0,0
1415,1765220947880,7,-9,0,0,0,0,0,0
1416,1765220948112,4,-10,0,0,0,0,0,0
1417,1765220948346,4,-8,0,0,0,0,0,0
1418,1765220948513,5,-8,0,0,0,0,0,0
1419,1765220948679,4,-9,0,0,0,0,0,0
1420,1765220948896,6,-9,0,0,0,0,0,0
1421,1765220948963,6,-8,2,0,0,0,0,0
1422,1765220949212,3,-9,2,0,0,0,0,0
1423,1765220949346,4,-9,1,0,0,0,0,0
1424,1765220949546,6,-10,1,0,0,0,0,0
1425,1765220949646,4,-9,0,0,0,0,0,0
1426,1765220949945,3,-10,-1,0,0,0,0,0
1427,1765220950179,3,-8,0,0,0,0,0,0
1428,1765220950314,8,-9,0,0,0,0,0,0
1429,1765220950396,5,-8,-2,0,0,0,0,0
1430,1765220950780,4,-9,0,0,0,0,0,0
1431,1765220950997,6,-8,-2,0,0,0,0,0
1432,1765220951096,7,-8,0,0,0,0,0,0
1433,1765220951280,4,-8,0,0,0,0,0,0
1434,1765220951479,5,-8,-1,0,0,0,0,0
1435,1765220951762,6,-9,-1,0,0,0,0,0
1436,1765220951846,6,-7,0,0,0,0,0,0
1437,1765220951913,6,-9,0,0,0,0,0,0
1438,1765220952079,5,-9,0,0,0,0,0,0
1439,1765220952213,5,-9,-1,0,0,0,0,0
1440,1765220952446,5,-9,1,0,0,0,0,0
1441,1765220952596,5,-9,1,0,0,0,0,0
1442,1765220952662,5,-9,-1,0,0,0,0,0
1443,1765220952896,4,-9,-1,0,0,0,0,0
1444,1765220953330,5,-9,0,0,0,0,0,0
1445,1765220953396,5,-8,0,0,0,0,0,0
1446,1765220953629,5,-8,0,0,0,0,0,0
1447,1765220953746,4,-8,-1,0,0,0,0,0
1448,1765220953979,5,-9,0,0,0,0,0,0
1449,1765220954080,4,-9,0,0,0,0,0,0
1450,1765220954329,6,-9,1,0,0,0,0,0
1451,1765220954479,5,-8,2,0,0,0,0,0
1452,1765220954662,4,-7,-2,0,0,0,0,0
1453,1765220954896,7,-8,-4,0,0,0,0,0
1454,1765220955094,3,-8,-1,0,0,0,0,0
1455,1765220955213,5,-8,1,0,0,0,0,0
1456,1765220955462,6,-9,0,0,0,0,0,0
1457,1765220955512,5,-8,-1,0,0,0,0,0
1458,1765220955713,4,-9,-2,0,0,0,0,0
1459,1765220955911,5,-8,2,0,0,0,0,0
1460,1765220956129,6,-7,-1,0,0,0,0,0
1461,1765220956213,5,-8,-1,0,0,0,0,0
1462,1765220956296,6,-9,0,0,0,0,0,0
1463,1765220956379,5,-8,0,0,0,0,0,0
1464,1765220956662,6,-9,0,0,0,0,0,0
1465,1765220956846,5,-9,-1,0,0,0,0,0
1466,1765220957029,4,-9,-1,0,0,0,0,0
1467,1765220957129,4,-8,1,0,0,0,0,0
1468,1765220957346,5,-8,0,0,0,0,0,0
1469,1765220957728,5,-9,-1,0,0,0,0,0
1470,1765220957795,5,-9,0,0,0,0,0,0
1471,1765220958029,5,-9,1,0,0,0,0,0
1472,1765220958462,6,-9,1,0,0,0,0,0
1473,1765220958579,6,-9,0,0,0,0,0,0
1474,1765220958763,4,-9,-2,0,0,0,0,0
1475,1765220958797,4,-11,1,0,0,0,0,0
1476,1765220958896,4,-7,1,0,0,0,0,0
1477,1765220959162,5,-8,-1,0,0,0,0,0
1478,1765220959246,5,-9,-1,0,0,0,0,0
1479,1765220959412,4,-8,-1,0,0,0,0,0
1480,1765220959612,4,-9,-1,0,0,0,0,0
1481,1765220959779,6,-9,-1,0,0,0,0,0
1482,1765220959963,5,-9,0,0,0,0,0,0
1483,1765220960194,4,-9,0,0,0,0,0,0
1484,1765220960345,6,-9,-1,0,0,0,0,0
1485,1765220960529,5,-8,0,0,0,0,0,0
1486,1765220960729,6,-10,0,0,0,0,0,0
1487,1765220960863,7,-10,2,0,0,0,0,0
1488,1765220961112,5,-8,0,0,0,0,0,0
1489,1765220961196,5,-8,-1,0,0,0,0,0
1490,1765220961429,6,-9,0,0,0,0,0,0
1491,1765220961662,6,-8,1,0,0,0,0,0
1492,1765220961795,4,-7,-1,0,0,0,0,0
1493,1765220961929,6,-9,1,0,0,0,0,0
1494,1765220962163,5,-9,255,0,0,0,0,0
1495,1765220962229,3,-8,0,0,0,0,0,0
1496,1765220962496,5,-10,-1,0,0,0,0,0
1497,1765220962613,5,-8,0,0,0,0,0,0
1498,1765220962779,5,-9,-1,0,0,0,0,0
1499,1765220962896,4,-9,0,0,0,0,0,0
1500,1765220963346,4,-8,-1,0,0,0,0,0
1501,1765220963529,5,-9,-1,0,0,0,0,0
1502,1765220963646,7,-8,0,0,0,0,0,0
1503,1765220963795,4,-9,0,0,0,0,0,0
1504,1765220964012,3,0,-14,0,0,0,0,0
1505,1765220964180,1,-8,3,0,0,0,0,0
1506,1765220964346,7,-8,2,0,0,0,0,0
1507,1765220964396,5,-8,1,0,0,0,0,0
1508,1765220964497,5,-9,1,0,0,0,0,0
1509,1765220964714,2,-8,-1,0,0,0,0,0
1510,1765220964946,7,-8,2,0,0,0,0,0
1511,1765220965229,4,-8,-2,0,0,0,0,0
1512,1765220965411,4,-7,-3,0,0,0,0,0
1513,1765220965528,3,-8,1,0,0,0,0,0
1514,1765220965662,5,-9,0,0,0,0,0,0
1515,1765220965862,8,-8,3,0,0,0,0,0
1516,1765220965995,7,-9,-1,0,0,0,0,0
1517,1765220966328,5,-9,0,0,0,0,0,0
1518,1765220966428,6,-8,2,0,0,0,0,0
1519,1765220966679,6,-9,1,0,0,0,0,0
1520,1765220966996,5,-8,-1,0,0,0,0,0
1521,1765220967161,6,-8,-1,0,0,0,0,0
1522,1765220967328,5,-8,1,0,0,0,0,0
1523,1765220967445,5,-9,1,0,0,0,0,0
1524,1765220967578,5,-9,0,0,0,0,0,0
1525,1765220967796,6,-8,1,0,0,0,0,0
1526,1765220967895,3,-8,-1,0,0,0,0,0
1527,1765220968113,6,-10,0,0,0,0,0,0
1528,1765220968312,4,-8,1,0,0,0,0,0
1529,1765220968478,6,-10,-1,0,0,0,0,0
1530,1765220968663,4,-8,0,0,0,0,0,0
1531,1765220968779,6,-10,1,0,0,0,0,0
1532,1765220968846,4,-7,0,0,0,0,0,0
1533,1765220969063,5,-9,0,0,0,0,0,0
1534,1765220969147,5,-9,0,0,0,0,0,0
1535,1765220969410,4,-9,1,0,0,0,0,0
1536,1765220969561,4,-9,1,0,0,0,0,0
1537,1765220969745,6,-7,0,0,0,0,0,0
1538,1765220969863,4,-8,-1,0,0,0,0,0
1539,1765220969962,5,-10,0,0,0,0,0,0
1540,1765220970079,6,-9,2,0,0,0,0,0
1541,1765220970279,4,-8,-1,0,0,0,0,0
1542,1765220970562,5,-9,-256,0,0,0,0,0
1543,1765220970746,5,-8,-1,0,0,0,0,0
1544,1765220970861,5,-9,-1,0,0,0,0,0
1545,1765220971029,5,-9,0,0,0,0,0,0
1546,1765220971196,4,-9,0,0,0,0,0,0
1547,1765220971429,5,-8,-1,0,0,0,0,0
1548,1765220971512,6,-9,0,0,0,0,0,0
1549,1765220971712,4,-9,2,0,0,0,0,0
1550,1765220971729,3,-11,-2,0,0,0,0,0
1551,1765220971912,3,-8,-1,0,0,0,0,0
1552,1765220972051,5,-8,1,0,0,0,0,0
1553,1765220972278,3,-8,0,0,0,0,0,0
1554,1765220972378,6,-8,255,0,0,0,0,0
1555,1765220972496,6,-8,-1,0,0,0,0,0
1556,1765220972680,4,-8,-1,0,0,0,0,0
1557,1765220972779,5,-8,1,0,0,0,0,0
1558,1765220973046,6,-8,0,0,0,0,0,0
1559,1765220973178,4,-8,0,0,0,0,0,0
1560,1765220973379,6,-9,0,0,0,0,0,0
1561,1765220973479,6,-9,-1,0,0,0,0,0
1562,1765220973595,6,-9,0,0,0,0,0,0
1563,1765220973695,4,-10,0,0,0,0,0,0
1564,1765220973879,6,-9,0,0,0,0,0,0
1565,1765220974362,5,-9,0,0,0,0,0,0
1566,1765220974429,5,-10,-2,0,0,0,0,0
1567,1765220974661,4,-8,0,0,0,0,0,0
1568,1765220974829,5,-8,1,0,0,0,0,0
1569,1765220974995,5,-8,0,0,0,0,0,0
1570,1765220975162,5,-9,0,0,0,0,0,0
1571,1765220975312,4,-7,1,0,0,0,0,0
1572,1765220975345,3,-8,-2,0,0,0,0,0
1573,1765220975579,5,-10,1,0,0,0,0,0
1574,1765220975628,4,-8,-1,0,0,0,0,0
1575,1765220975913,4,-10,-1,0,0,0,0,0
1576,1765220976096,4,-8,0,0,0,0,0,0
1577,1765220976329,5,-10,-1,0,0,0,0,0
1578,1765220976444,5,-9,-1,0,0,0,0,0
1579,1765220976614,6,-9,0,0,0,0,0,0
1580,1765220976762,4,-7,1,0,0,0,0,0
1581,1765220977029,5,-10,-2,0,0,0,0,0
1582,1765220977095,7,-9,2,0,0,0,0,0
1583,1765220977279,5,-9,-1,0,0,0,0,0
1584,1765220977461,5,-10,-1,0,0,0,0,0
1585,1765220977779,5,-8,0,0,0,0,0,0
1586,1765220977911,4,-8,-1,0,0,0,0,0
1587,1765220978044,4,-7,-1,0,0,0,0,0
1588,1765220978212,6,-10,0,0,0,0,0,0
1589,1765220978429,5,-9,0,0,0,0,0,0
1590,1765220978546,4,-8,0,0,0,0,0,0
1591,1765220978679,6,-8,-1,0,0,0,0,0
1592,1765220978894,5,-9,1,0,0,0,0,0
1593,1765220979011,5,-8,1,0,0,0,0,0
1594,1765220979228,4,-8,0,0,0,0,0,0
1595,1765220979445,6,-10,1,0,0,0,0,0
1596,1765220979645,4,-8,-2,0,0,0,0,0
1597,1765220979695,6,-9,1,0,0,0,0,0
1598,1765220979778,3,-8,0,0,0,0,0,0
1599,1765220980012,4,-8,-1,0,0,0,0,0
1600,1765220980145,5,-8,0,0,0,0,0,0
1601,1765220980346,6,-9,-1,0,0,0,0,0
1602,1765220980495,7,-9,0,0,0,0,0,0
1603,1765220980679,5,-9,1,0,0,0,0,0
1604,1765220980778,2,-8,-1,0,0,0,0,0
1605,1765220981228,6,-8,0,0,0,0,0,0
1606,1765220981427,4,-8,1,0,0,0,0,0
1607,1765220981527,5,-9,0,0,0,0,0,0
1608,1765220981594,4,-8,1,0,0,0,0,0
1609,1765220981661,5,-9,-2,0,0,0,0,0
1610,1765220981912,6,-9,-1,0,0,0,0,0
1611,1765220982046,5,-7,1,0,0,0,0,0
1612,1765220982245,3,-8,0,0,0,0,0,0
1613,1765220982361,5,-8,1,0,0,0,0,0
1614,1765220982611,6,-9,0,0,0,0,0,0
1615,1765220983044,7,-8,1,0,0,0,0,0
1616,1765220983112,5,-9,0,0,0,0,0,0
1617,1765220983346,2,-9,0,0,0,0,0,0
1618,1765220983480,4,-8,1,0,0,0,0,0
1619,1765220983729,6,-9,1,0,0,0,0,0
1620,1765220983831,6,-8,0,0,0,0,0,0
1621,1765220984045,5,-10,-1,0,0,0,0,0
1622,1765220984178,4,-8,0,0,0,0,0,0
1623,1765220984477,6,-8,0,0,0,0,0,0
1624,1765220984561,5,-10,0,0,0,0,0,0
1625,1765220984712,5,-9,1,0,0,0,0,0
1626,1765220984912,4,-9,1,0,0,0,0,0
1627,1765220985046,4,-7,1,0,0,0,0,0
1628,1765220985262,6,-9,0,0,0,0,0,0
1629,1765220985395,4,-9,1,0,0,0,0,0
1630,1765220985629,5,-9,0,0,0,0,0,0
1631,1765220985710,5,-9,1,0,0,0,0,0
1632,1765220985929,6,-7,0,0,0,0,0,0
1633,1765220986146,5,-8,2,0,0,0,0,0
1634,1765220986395,3,-8,-1,0,0,0,0,0
1635,1765220986494,4,-8,-1,0,0,0,0,0
1636,1765220986696,4,-8,-1,0,0,0,0,0
1637,1765220986812,4,-7,0,0,0,0,0,0
1638,1765220987096,5,-9,-1,0,0,0,0,0
1639,1765220987146,3,-8,-1,0,0,0,0,0
1640,1765220987212,4,-10,-1,0,0,0,0,0
1641,1765220987294,4,-9,0,0,0,0,0,0
1642,1765220987511,5,-8,0,0,0,0,0,0
1643,1765220987729,9,-13,-3,0,0,0,0,0
1644,1765220987995,6,-8,-1,0,0,0,0,0
1645,1765220988229,5,-8,-1,0,0,0,0,0
1646,1765220988328,3,-9,0,0,0,0,0,0
1647,1765220988545,6,-8,0,0,0,0,0,0
1648,1765220988679,4,-7,1,0,0,0,0,0
1649,1765220988929,4,-9,-256,0,0,0,0,0
1650,1765220988995,4,-9,0,0,0,0,0,0
1651,1765220989078,4,-9,-1,0,0,0,0,0
1652,1765220989262,5,-8,2,0,0,0,0,0
1653,1765220989494,4,-8,0,0,0,0,0,0
1654,1765220989694,6,-9,-2,0,0,0,0,0
1655,1765220989829,4,-6,1,0,0,0,0,0
1656,1765220990028,4,-10,1,0,0,0,0,0
1657,1765220990111,5,-8,-1,0,0,0,0,0
1658,1765220990528,5,-8,-1,0,0,0,0,0
1659,1765220990696,4,-10,-1,0,0,0,0,0
1660,1765220990812,5,-8,-1,0,0,0,0,0
1661,1765220990962,6,-8,1,0,0,0,0,0
1662,1765220991262,4,-9,0,0,0,0,0,0
1663,1765220991430,5,-9,0,0,0,0,0,0
1664,1765220991645,5,-10,1,0,0,0,0,0
1665,1765220991710,5,-10,0,0,0,0,0,0
1666,1765220991930,5,-8,0,0,0,0,0,0
1667,1765220992096,5,-9,-1,0,0,0,0,0
1668,1765220992294,5,-9,0,0,0,0,0,0
1669,1765220992411,4,-7,0,0,0,0,0,0
1670,1765220992629,5,-9,-1,0,0,0,0,0
1671,1765220993077,4,-9,-1,0,0,0,0,0
1672,1765220993162,5,-8,-1,0,0,0,0,0
1673,1765220993394,5,-8,-1,0,0,0,0,0
1674,1765220993512,5,-9,0,0,0,0,0,0
1675,1765220993729,4,-9,-1,0,0,0,0,0
1676,1765220993921,5,-9,1,0,0,0,0,0
1677,1765220994212,5,-8,1,0,0,0,0,0
1678,1765220994345,3,-8,-1,0,0,0,0,0
1679,1765220994577,5,-9,1,0,0,0,0,0
1680,1765220994746,5,-8,-2,0,0,0,0,0
1681,1765220994943,5,-8,1,0,0,0,0,0
1682,1765220995096,4,-10,1,0,0,0,0,0
1683,1765220995262,5,-8,-1,0,0,0,0,0
1684,1765220995394,5,-8,-1,0,0,0,0,0
1685,1765220995629,3,-11,0,0,0,0,0,0
1686,1765220995711,5,-10,1,0,0,0,0,0
1687,1765220995928,5,-8,-1,0,0,0,0,0
1688,1765220995943,7,-6,7,0,0,0,0,0
1689,1765220996077,6,-8,-5,0,0,0,0,0
1690,1765220996379,4,-10,-2,0,0,0,0,0
1691,1765220996480,6,-11,2,0,0,0,0,0
1692,1765220996629,5,-9,0,0,0,0,0,0
1693,1765220996812,6,-8,0,0,0,0,0,0
1694,1765220997011,6,-8,0,0,0,0,0,0
1695,1765220997147,5,-9,0,0,0,0,0,0
1696,1765220997278,5,-9,-1,0,0,0,0,0
1697,1765220997512,5,-10,0,0,0,0,0,0
1698,1765220997579,5,-8,1,0,0,0,0,0
1699,1765220998012,4,-9,-2,0,0,0,0,0
1700,1765220998245,5,-7,1,0,0,0,0,0
1701,1765220998329,5,-10,2,0,0,0,0,0
1702,1765220998479,4,-9,1,0,0,0,0,0
1703,1765220998662,5,-8,0,0,0,0,0,0
1704,1765220998879,6,-9,-1,0,0,0,0,0
1705,1765220998996,4,-9,0,0,0,0,0,0
1706,1765220999112,5,-8,0,0,0,0,0,0
1707,1765220999328,4,-8,1,0,0,0,0,0
1708,1765220999529,4,-9,0,0,0,0,0,0
1709,1765220999828,5,-8,0,0,0,0,0,0
1710,1765220999980,4,-8,0,0,0,0,0,0
1711,1765221000130,5,-8,-1,0,0,0,0,0
1712,1765221000427,5,-9,0,0,0,0,0,0
1713,1765221000577,6,-9,0,0,0,0,0,0
1714,1765221000777,4,-10,0,0,0,0,0,0
1715,1765221000878,3,-6,2,0,0,0,0,0
1716,1765221000994,6,-10,2,0,0,0,0,0
1717,1765221001279,4,-9,0,0,0,0,0,0
1718,1765221001438,3,-6,-2,0,0,0,0,0
1719,1765221001548,5,-9,-1,0,0,0,0,0
1720,1765221001715,5,-8,-2,0,0,0,0,0
1721,1765221001847,6,-10,1,0,0,0,0,0
1722,1765221002012,5,-10,1,0,0,0,0,0
1723,1765221002246,5,-10,-1,0,0,0,0,0
1724,1765221002446,5,-8,1,0,0,0,0,0
1725,1765221002529,4,-11,-2,0,0,0,0,0
1726,1765221002728,3,-7,1,0,0,0,0,0
1727,1765221002762,3,-8,-4,0,0,0,0,0
1728,1765221002913,6,-8,0,0,0,0,0,0
1729,1765221003196,4,-9,1,0,0,0,0,0
1730,1765221003263,6,-9,1,0,0,0,0,0
1731,1765221003380,7,-9,3,0,0,0,0,0
1732,1765221003480,5,-9,1,0,0,0,0,0
1733,1765221003663,1,-9,-3,0,0,0,0,0
1734,1765221003779,4,-7,-2,0,0,0,0,0
1735,1765221004029,5,-8,0,0,0,0,0,0
1736,1765221004164,6,-10,1,0,0,0,0,0
1737,1765221004364,5,-8,-1,0,0,0,0,0
1738,1765221004446,7,-8,-1,0,0,0,0,0
1739,1765221004562,4,-7,-1,0,0,0,0,0
1740,1765221004695,5,-9,0,0,0,0,0,0
1741,1765221004928,3,-8,2,0,0,0,0,0
1742,1765221005130,5,-8,-1,0,0,0,0,0
1743,1765221005179,4,-8,-1,0,0,0,0,0
1744,1765221005328,4,-9,1,0,0,0,0,0
1745,1765221005446,3,-8,0,0,0,0,0,0
1746,1765221005629,5,-9,-1,0,0,0,0,0
1747,1765221005796,2,-8,0,0,0,0,0,0
1748,1765221006029,7,-8,-1,0,0,0,0,0
1749,1765221006113,6,-10,1,0,0,0,0,0
1750,1765221006313,4,-9,-1,0,0,0,0,0
1751,1765221006528,4,-8,0,0,0,0,0,0
1752,1765221006630,3,-10,-1,0,0,0,0,0
1753,1765221006897,6,-8,0,0,0,0,0,0
1754,1765221007045,4,-8,-2,0,0,0,0,0
1755,1765221007264,5,-8,0,0,0,0,0,0
1756,1765221007350,3,-8,0,0,0,0,0,0
1757,1765221007565,6,-9,1,0,0,0,0,0
1758,1765221007597,5,-9,1,0,0,0,0,0
1759,1765221007762,5,-9,-1,0,0,0,0,0
1760,1765221007932,6,-8,1,0,0,0,0,0
1761,1765221008079,5,-9,-1,0,0,0,0,0
1762,1765221008178,3,-8,-1,0,0,0,0,0
1763,1765221008262,7,-8,1,0,0,0,0,0
1764,1765221008462,3,-8,0,0,0,0,0,0
1765,1765221008696,5,-8,1,0,0,0,0,0
1766,1765221008912,5,-7,-1,0,0,0,0,0
1767,1765221009029,5,-11,0,0,0,0,0,0
1768,1765221009196,5,-8,1,0,0,0,0,0
1769,1765221009328,6,-8,0,0,0,0,0,0
1770,1765221009413,5,-10,0,0,0,0,0,0
1771,1765221009479,6,-8,-1,0,0,0,0,0
1772,1765221009731,4,-8,-1,0,0,0,0,0
1773,1765221009815,4,-9,0,0,0,0,0,0
1774,1765221010063,4,-8,0,0,0,0,0,0
1775,1765221010213,6,-9,1,0,0,0,0,0
1776,1765221010346,7,-8,0,0,0,0,0,0
1777,1765221010578,5,-9,0,0,0,0,0,0
1778,1765221010696,0,-6,-1,0,0,0,0,0
1779,1765221010945,4,-11,0,0,0,0,0,0
1780,1765221011045,2,-8,1,0,0,0,0,0
1781,1765221011229,3,-8,1,0,0,0,0,0
1782,1765221011378,5,-8,0,0,0,0,0,0
1783,1765221011645,6,-9,0,0,0,0,0,0
1784,1765221011712,4,-9,1,0,0,0,0,0
1785,1765221011878,6,-8,1,0,0,0,0,0
1786,1765221012095,4,-9,0,0,0,0,0,0
1787,1765221012378,4,-8,0,0,0,0,0,0
1788,1765221012445,4,-9,1,0,0,0,0,0
1789,1765221012528,5,-9,-1,0,0,0,0,0
1790,1765221012662,5,-8,2,0,0,0,0,0
1791,1765221012828,5,-8,0,0,0,0,0,0
1792,1765221013010,5,-8,1,0,0,0,0,0
1793,1765221013196,5,-8,1,0,0,0,0,0
1794,1765221013279,4,-7,0,0,0,0,0,0
1795,1765221013511,4,-8,-1,0,0,0,0,0
1796,1765221013611,4,-9,1,0,0,0,0,0
1797,1765221014079,4,-8,-1,0,0,0,0,0
1798,1765221014261,5,-10,2,0,0,0,0,0
1799,1765221014394,5,-7,0,0,0,0,0,0
1800,1765221014610,4,-9,0,0,0,0,0,0
1801,1765221014711,5,-8,-1,0,0,0,0,0
1802,1765221014961,5,-9,-1,0,0,0,0,0
1803,1765221015094,5,-9,0,0,0,0,0,0
1804,1765221015278,6,-9,0,0,0,0,0,0
1805,1765221015395,5,-9,0,0,0,0,0,0
1806,1765221015829,3,-7,-2,0,0,0,0,0
1807,1765221016031,5,-10,2,0,0,0,0,0
1808,1765221016130,7,-9,2,0,0,0,0,0
1809,1765221016262,5,-9,0,0,0,0,0,0
1810,1765221016512,6,-8,0,0,0,0,0,0
1811,1765221016645,5,-9,-1,0,0,0,0,0
1812,1765221016811,3,-9,0,0,0,0,0,0
1813,1765221016944,8,-9,0,0,0,0,0,0
1814,1765221017245,5,-9,0,0,0,0,0,0
1815,1765221017428,4,-9,0,0,0,0,0,0
1816,1765221017629,6,-8,0,0,0,0,0,0
1817,1765221017695,6,-7,0,0,0,0,0,0
1818,1765221017929,6,-6,-2,0,0,0,0,0
1819,1765221018095,4,-9,0,0,0,0,0,0
1820,1765221018311,4,-8,0,0,0,0,0,0
1821,1765221018395,5,-10,-1,0,0,0,0,0
1822,1765221018627,6,-10,-1,0,0,0,0,0
1823,1765221018761,5,-9,-1,0,0,0,0,0
1824,1765221019027,5,-8,0,0,0,0,0,0
1825,1765221019128,5,-8,0,0,0,0,0,0
1826,1765221019495,5,-8,0,0,0,0,0,0
1827,1765221019628,4,-9,1,0,0,0,0,0
1828,1765221019812,5,-9,0,0,0,0,0,0
1829,1765221019978,5,-8,0,0,0,0,0,0
1830,1765221020195,3,-8,-2,0,0,0,0,0
1831,1765221020278,5,-8,0,0,0,0,0,0
1832,1765221020545,5,-8,0,0,0,0,0,0
1833,1765221020645,5,-9,0,0,0,0,0,0
1834,1765221020945,5,-8,-1,0,0,0,0,0
1835,1765221021028,4,-8,0,0,0,0,0,0
1836,1765221021245,5,-9,0,0,0,0,0,0
1837,1765221021395,6,-9,1,0,0,0,0,0
1838,1765221021628,4,-9,1,0,0,0,0,0
1839,1765221021712,5,-10,1,0,0,0,0,0
1840,1765221022078,4,-9,0,0,0,0,0,0
1841,1765221022345,5,-10,0,0,0,0,0,0
1842,1765221022445,5,-8,0,0,0,0,0,0
1843,1765221022512,6,-8,0,0,0,0,0,0
1844,1765221022595,4,-7,0,0,0,0,0,0
1845,1765221022812,6,-9,0,0,0,0,0,0
1846,1765221022928,5,-8,0,0,0,0,0,0
1847,1765221023145,6,-9,-1,0,0,0,0,0
1848,1765221023279,5,-8,0,0,0,0,0,0
1849,1765221023528,3,-8,0,0,0,0,0,0
1850,1765221023595,6,-8,0,0,0,0,0,0
1851,1765221023846,6,-8,1,0,0,0,0,0
1852,1765221024078,5,-10,0,0,0,0,0,0
1853,1765221024261,4,-9,-1,0,0,0,0,0
1854,1765221024428,4,-9,0,0,0,0,0,0
1855,1765221024612,6,-9,-1,0,0,0,0,0
1856,1765221024712,6,-8,0,0,0,0,0,0
1857,1765221024962,4,-9,0,0,0,0,0,0
1858,1765221025112,5,-9,-1,0,0,0,0,0
1859,1765221025261,6,-9,0,0,0,0,0,0
1860,1765221025412,6,-8,0,0,0,0,0,0
1861,1765221025845,5,-9,0,0,0,0,0,0
1862,1765221025979,5,-8,0,0,0,0,0,0
1863,1765221026144,4,-9,0,0,0,0,0,0
1864,1765221026279,5,-9,1,0,0,0,0,0
1865,1765221026511,3,-9,0,0,0,0,0,0
1866,1765221026662,3,-10,-1,0,0,0,0,0
1867,1765221026845,6,-9,-1,0,0,0,0,0
1868,1765221026999,5,-8,0,0,0,0,0,0
1869,1765221027000,5,-9,1,0,0,0,0,0
1870,1765221027212,4,-8,1,0,0,0,0,0
1871,1765221027462,5,-8,-1,0,0,0,0,0
1872,1765221027661,5,-9,-1,0,0,0,0,0
1873,1765221027745,6,-9,0,0,0,0,0,0
1874,1765221027962,5,-7,0,0,0,0,0,0
1875,1765221028128,5,-8,-1,0,0,0,0,0
1876,1765221028278,4,-9,0,0,0,0,0,0
1877,1765221028412,3,-10,1,0,0,0,0,0
1878,1765221028611,4,-9,0,0,0,0,0,0
1879,1765221028695,4,-8,-255,0,0,0,0,0
1880,1765221028761,4,-8,0,0,0,0,0,0
1881,1765221028845,4,-10,0,0,0,0,0,0
1882,1765221029129,4,-9,0,0,0,0,0,0
1883,1765221029328,8,-9,1,0,0,0,0,0
1884,1765221029478,4,-9,0,0,0,0,0,0
1885,1765221029561,6,-9,1,0,0,0,0,0
1886,1765221029777,3,-8,1,0,0,0,0,0
1887,1765221029929,5,-9,0,0,0,0,0,0
1888,1765221030146,5,-7,1,0,0,0,0,0
1889,1765221030477,6,-8,2,0,0,0,0,0
1890,1765221030877,5,-8,1,0,0,0,0,0
1891,1765221031196,4,-9,0,0,0,0,0,0
1892,1765221031345,4,-9,0,0,0,0,0,0
1893,1765221031462,4,-8,-2,0,0,0,0,0
1894,1765221031677,4,-8,-2,0,0,0,0,0
1895,1765221031828,5,-7,-3,0,0,0,0,0
1896,1765221031995,2,-9,-4,0,0,0,0,0
1897,1765221032111,7,-8,2,0,0,0,0,0
1898,1765221032429,4,-10,-1,0,0,0,0,0
1899,1765221032561,6,-8,2,0,0,0,0,0
1900,1765221032762,5,-9,-1,0,0,0,0,0
1901,1765221032861,4,-9,1,0,0,0,0,0
1902,1765221033095,6,-10,0,0,0,0,0,0
1903,1765221033227,5,-9,-2,0,0,0,0,0
1904,1765221033378,6,-9,-1,0,0,0,0,0
1905,1765221033560,5,-8,0,0,0,0,0,0
1906,1765221033711,4,-8,0,0,0,0,0,0
1907,1765221033794,4,-9,0,0,0,0,0,0
1908,1765221033961,6,-8,1,0,0,0,0,0
1909,1765221034277,4,-8,-1,0,0,0,0,0
1910,1765221034378,6,-9,-1,0,0,0,0,0
1911,1765221034462,3,-9,-1,0,0,0,0,0
1912,1765221034695,5,-11,1,0,0,0,0,0
1913,1765221034761,5,-9,-1,0,0,0,0,0
1914,1765221035144,5,-8,-1,0,0,0,0,0
1915,1765221035228,6,-9,0,0,0,0,0,0
1916,1765221035428,4,-8,1,0,0,0,0,0
1917,1765221035546,6,-9,1,0,0,0,0,0
1918,1765221035662,5,-9,0,0,0,0,0,0
1919,1765221035928,3,-9,0,0,0,0,0,0
1920,1765221036145,4,-7,2,0,0,0,0,0
1921,1765221036212,5,-7,-1,0,0,0,0,0
1922,1765221036344,4,-8,-256,0,0,0,0,0
1923,1765221036495,5,-9,0,0,0,0,0,0
1924,1765221036629,6,-9,-1,0,0,0,0,0
1925,1765221036878,5,-9,-1,0,0,0,0,0
1926,1765221037079,5,-9,-1,0,0,0,0,0
1927,1765221037162,5,-10,-1,0,0,0,0,0
1928,1765221056679,4,-8,-1,0,0,0,0,0
1929,1765221056878,6,-8,1,0,0,0,0,0
1930,1765221056979,5,-9,0,0,0,0,0,0
1931,1765221057212,5,-10,0,0,0,0,0,0
1932,1765221057279,6,-10,0,0,0,0,0,0
1933,1765221057529,5,-8,-1,0,0,0,0,0
1934,1765221057612,4,-8,0,0,0,0,0,0
1935,1765221057828,6,-9,0,0,0,0,0,0
1936,1765221058094,6,-8,0,0,0,0,0,0
1937,1765221058094,4,-8,-1,0,0,0,0,0
1938,1765221058262,4,-9,0,0,0,0,0,0
1939,1765221058495,4,-8,-1,0,0,0,0,0
1940,1765221058579,6,-9,0,0,0,0,0,0
1941,1765221059246,4,30712,128,0,0,0,0,0
1942,1765221059711,5,-8,0,0,0,0,0,0
1943,1765221059944,4,-8,1,0,0,0,0,0
1944,1765221060114,5,-10,1,0,0,0,0,0
1945,1765221061845,5,-9,-1,0,0,0,0,0
1946,1765221062162,5,-9,0,0,0,0,0,0
1947,1765221063245,5,-9,0,0,0,0,0,0
1948,1765221063412,6,-8,0,0,0,0,0,0
1949,1765221063579,6,-9,-1,0,0,0,0,0
1950,1765221063778,5,-8,0,0,0,0,0,0
1951,1765221063844,5,-9,0,0,0,0,0,0
1952,1765221064146,6,-8,-1,0,0,0,0,0
1953,1765221064495,5,-8,1,0,0,0,0,0
1954,1765221064578,4,-8,1,0,0,0,0,0
1955,1765221064829,5,-8,0,0,0,0,0,0
1956,1765221064933,4,-10,0,0,0,0,0,0
1957,1765221065080,5,-8,1,0,0,0,0,0
1958,1765221065246,6,-8,0,0,0,0,0,0
1959,1765221065394,5,-9,-1,0,0,0,0,0
1960,1765221065761,4,-9,0,0,0,0,0,0
1961,1765221065994,3,-9,0,0,0,0,0,0
1962,1765221066094,5,-8,0,0,0,0,0,0
1963,1765221066144,5,-8,1,0,0,0,0,0
1964,1765221066261,5,-9,-1,0,0,0,0,0
1965,1765221066645,5,-10,0,0,0,0,0,0
1966,1765221067178,5,-10,0,0,0,0,0,0
1967,1765221067761,4,30710,-141,0,0,0,0,0
1968,1765221067911,6,-9,0,0,0,0,0,0
1969,1765221068028,5,-10,0,0,0,0,0,0
1970,1765221068127,5,-8,0,0,0,0,0,0
1971,1765221068361,4,-9,2,0,0,0,0,0
1972,1765221068477,5,-7,0,0,0,0,0,0
1973,1765221068761,3,-10,2,0,0,0,0,0
1974,1765221068844,5,-9,-1,0,0,0,0,0
1975,1765221069378,5,-20744,28823,0,0,0,0,0
1976,1765221176611,7,-9,0,0,0,0,0,0
1977,1765221176776,6,-11,0,0,0,0,0,0
1978,1765221176893,7,-10,1,0,0,0,0,0
1979,1765221177127,6,-11,0,0,0,0,0,0
1980,1765221177193,7,-10,0,0,0,0,0,0
1981,1765221177443,8,-12,0,0,0,0,0,0
1982,1765221177510,6,-10,-1,0,0,0,0,0
1983,1765221177744,8,-11,0,0,0,0,0,0
1984,1765221177843,7,-10,-1,0,0,0,0,0
1985,1765221177993,8,-10,-1,0,0,0,0,0
1986,1765221178177,7,-8,0,0,0,0,0,0
1987,1765221178360,6,-8,-1,0,0,0,0,0
1988,1765221178458,8,-10,0,0,0,0,0,0
1989,1765221178643,7,-11,-1,0,0,0,0,0
1990,1765221178926,6,-10,0,0,0,0,0,0
1991,1765221179126,7,-11,-1,0,0,0,0,0
1992,1765221179294,7,-8,0,0,0,0,0,0
1993,1765221179410,7,-11,0,0,0,0,0,0
1994,1765221179593,6,-10,-1,0,0,0,0,0
1995,1765221179777,6,-10,0,0,0,0,0,0
1996,1765221179992,6,-8,-1,0,0,0,0,0
1997,1765221180075,8,-10,-1,0,0,0,0,0
1998,1765221180293,5,-10,1,0,0,0,0,0
1999,1765221180709,5,-10,-1,0,0,0,0,0
2000,1765221180793,6,-10,-1,0,0,0,0,0
2001,1765221181024,7,-11,-1,0,0,0,0,0
2002,1765221181160,7,-10,-1,0,0,0,0,0
2003,1765221181277,7,-9,0,0,0,0,0,0
2004,1765221181493,8,-11,0,0,0,0,0,0
2005,1765221181644,7,-9,-1,0,0,0,0,0
2006,1765221181793,8,-10,-1,0,0,0,0,0
2007,1765221181910,7,-11,-1,0,0,0,0,0
2008,1765221182110,7,-11,0,0,0,0,0,0
2009,1765221182477,6,-11,0,0,0,0,0,0
2010,1765221182643,6,-9,-1,0,0,0,0,0
2011,1765221184693,6,-9,0,0,0,0,0,0
2012,1765221184960,7,-10,-1,0,0,0,0,0
2013,1765221185126,6,-11,0,0,0,0,0,0
2014,1765221185244,6,-9,0,0,0,0,0,0
2015,1765221185476,7,-10,-1,0,0,0,0,0
2016,1765221185676,6,-10,0,0,0,0,0,0
2017,1765221185926,6,-9,0,0,0,0,0,0
2018,1765221186160,6,-9,0,0,0,0,0,0
2019,1765221186277,6,-9,0,0,0,0,0,0
2020,1765221186461,6,-11,-1,0,0,0,0,0
2021,1765221186610,6,-10,0,0,0,0,0,0
2022,1765221186859,5,-10,-2,0,0,0,0,0
2023,1765221186941,7,-10,0,0,0,0,0,0
2024,1765221187160,6,-10,0,0,0,0,0,0
2025,1765221187327,7,-9,0,0,0,0,0,0
2026,1765221187643,7,-10,0,0,0,0,0,0
2027,1765221187850,6,-10,-1,0,0,0,0,0
2028,1765221188026,5,-10,0,0,0,0,0,0
2029,1765221188126,5,-10,-1,0,0,0,0,0
2030,1765221188310,7,-10,255,0,0,0,0,0
2031,1765221188510,7,-9,0,0,0,0,0,0
2032,1765221188679,5,-10,-1,0,0,0,0,0
2033,1765221188843,6,-10,0,0,0,0,0,0
2034,1765221188977,4,-10,0,0,0,0,0,0
2035,1765221189243,7,-9,-1,0,0,0,0,0
2036,1765221189459,5,-11,0,0,0,0,0,0
2037,1765221189610,6,-11,-1,0,0,0,0,0
2038,1765221189727,8,-10,-2,0,0,0,0,0
2039,1765221189776,5,-9,-1,0,0,0,0,0
2040,1765221190009,5,-9,-1,0,0,0,0,0
2041,1765221190093,5,-10,-1,0,0,0,0,0
2042,1765221190443,4,-9,0,0,0,0,0,0
2043,1765221190527,7,-8,-1,0,0,0,0,0
2044,1765221190726,3,-8,-1,0,0,0,0,0
2045,1765221190810,7,-8,-2,0,0,0,0,0
2046,1765221190927,11,-10,-3,0,0,0,0,0
2047,1765221191060,7,-8,-1,0,0,0,0,0
2048,1765221191293,5,-10,2,0,0,0,0,0
2049,1765221191543,6,-10,0,0,0,0,0,0
2050,1765221191710,5,-11,-1,0,0,0,0,0
2051,1765221191826,6,-11,-1,0,0,0,0,0
2052,1765221191992,6,-9,1,0,0,0,0,0
2053,1765221192177,7,-11,-2,0,0,0,0,0
2054,1765221192410,8,-10,-1,0,0,0,0,0
2055,1765221192493,5,-10,1,0,0,0,0,0
2056,1765221192743,9,-9,0,0,0,0,0,0
2057,1765221192907,6,-10,0,0,0,0,0,0
2058,1765221193210,6,-9,-1,0,0,0,0,0
2059,1765221193343,8,-10,-1,0,0,0,0,0
2060,1765221193443,6,-11,-1,0,0,0,0,0
2061,1765221193643,6,-10,-1,0,0,0,0,0
2062,1765221193775,7,-10,-1,0,0,0,0,0
2063,1765221194058,6,-11,1,0,0,0,0,0
2064,1765221194124,5,-12,-1,0,0,0,0,0
2065,1765221194343,5,-10,0,0,0,0,0,0
2066,1765221194475,7,-9,0,0,0,0,0,0
2067,1765221194659,5,-11,-2,0,0,0,0,0
2068,1765221194876,7,-12,0,0,0,0,0,0
2069,1765221195075,6,-14,-1,0,0,0,0,0
2070,1765221195209,6,-19,0,0,0,0,0,0
2071,1765221195426,8,-8,-2,0,0,0,0,0
2072,1765221195541,5,-12,1,0,0,0,0,0
2073,1765221195776,7,-14,0,0,0,0,0,0
2074,1765221195927,5,-10,-1,0,0,0,0,0
2075,1765221196093,7,-12,-1,0,0,0,0,0
2076,1765221196227,6,-10,-256,0,0,0,0,0
2077,1765221196659,7,-11,0,0,0,0,0,0
2078,1765221196826,6,-10,0,0,0,0,0,0
2079,1765221196942,5,-10,-1,0,0,0,0,0
2080,1765221197094,8,-9,-1,0,0,0,0,0
2081,1765221197342,-1,-10,1,0,0,0,0,0
2082,1765221197443,9,-6,-2,0,0,0,0,0
2083,1765221197627,4,-12,0,0,0,0,0,0
2084,1765221197776,6,-10,0,0,0,0,0,0
2085,1765221198009,7,-11,-1,0,0,0,0,0
2086,1765221198260,5,-10,0,0,0,0,0,0
2087,1765221198459,7,-10,0,0,0,0,0,0
2088,1765221198526,6,-9,0,0,0,0,0,0
2089,1765221198783,8,-11,-1,0,0,0,0,0
2090,1765221198924,6,-10,1,0,0,0,0,0
2091,1765221199127,5,-9,0,0,0,0,0,0
2092,1765221199243,7,-9,0,0,0,0,0,0
2093,1765221199476,4,-11,-2,0,0,0,0,0
2094,1765221199608,8,-10,0,0,0,0,0,0
2095,1765221199843,5,-10,-1,0,0,0,0,0
2096,1765221199959,4,-8,0,0,0,0,0,0
2097,1765221200327,4,-11,-1,0,0,0,0,0
2098,1765221200494,8,-9,-1,0,0,0,0,0
2099,1765221200643,5,-11,1,0,0,0,0,0
2100,1765221201027,8,-11,-1,0,0,0,0,0
2101,1765221201176,6,-10,0,0,0,0,0,0
2102,1765221201409,8,-10,0,0,0,0,0,0
2103,1765221201660,1,1,-5,0,0,0,0,0
2104,1765221201792,2,9,-1,0,0,0,0,0
2105,1765221202008,0,3,-5,0,0,0,0,0
2106,1765221202177,17,13,7,0,0,0,0,0
2107,1765221202393,47,17,5,0,0,0,0,0
2108,1765221202493,22,19,13,0,0,0,0,0
2109,1765221202743,-30,27,9,0,0,0,0,0
2110,1765221202877,42,11,20,0,0,0,0,0
2111,1765221203176,-4,6,8,0,0,0,0,0
2112,1765221203309,12,34,-2,0,0,0,0,0
2113,1765221203543,15,43,1,0,0,0,0,0
2114,1765221203643,7,48,6,0,0,0,0,0
2115,1765221203876,-6,45,-16,0,0,0,0,0
2116,1765221204042,7,-12,-24,0,0,0,0,0
2117,1765221204260,-17,28,-26,0,0,0,0,0
2118,1765221204376,-23,7,39,0,0,0,0,0
2119,1765221204643,54,-22,65,0,0,0,0,0
2120,1765221204943,65,-33,37,0,0,0,0,0
2121,1765221205008,-9,2,-2,0,0,0,0,0
2122,1765221205260,15,-42,24,0,0,0,0,0
2123,1765221205343,28,-70,9,0,0,0,0,0
2124,1765221205393,21,-36,10,0,0,0,0,0
2125,1765221205660,53,-28,0,0,0,0,0,0
2126,1765221205791,5,-51,-18,0,0,0,0,0
2127,1765221206042,16,-43,-19,0,0,0,0,0
2128,1765221206107,70,-112,-43,0,0,0,0,0
2129,1765221206410,-59,-108,64,0,0,0,0,0
2130,1765221206494,1,-157,-61,0,0,0,0,0
2131,1765221206610,10,-107,-3,0,0,0,0,0
2132,1765221206793,53,-123,15,0,0,0,0,0
2133,1765221206976,-59,-103,-20,0,0,0,0,0
2134,1765221207142,14,-77,82,0,0,0,0,0
2135,1765221207224,55,-1,-65,0,0,0,0,0
2136,1765221207392,-119,33,20,0,0,0,0,0
2137,1765221207510,2,25,93,0,0,0,0,0
2138,1765221207742,-46,64,-43,0,0,0,0,0
2139,1765221207959,22,23,-52,0,0,0,0,0
2140,1765221208209,-6,-3,-44,0,0,0,0,0
2141,1765221208343,-40,-248,16,0,0,0,0,0
2142,1765221208591,85,21,-15,0,0,0,0,0
2143,1765221208759,31,-13,-9,0,0,0,0,0
2144,1765221208942,-39,25,-19,0,0,0,0,0
2145,1765221209092,-14,34,43,0,0,0,0,0
2146,1765221209309,-53,19,-44,0,0,0,0,0
2147,1765221209730,27,-16,17,0,0,0,0,0
2148,1765221209758,64,-45,-22,0,0,0,0,0
2149,1765221209977,110,27,68,0,0,0,0,0
2150,1765221210059,-26,-15,-73,0,0,0,0,0
2151,1765221210393,32,19,43,0,0,0,0,0
2152,1765221210526,111,-36,4,0,0,0,0,0
2153,1765221210710,-83,43,41,0,0,0,0,0
2154,1765221210909,1,-17,29,0,0,0,0,0
2155,1765221211093,192,-144,-9,0,0,0,0,0
2156,1765221211342,-375,66,234,0,0,0,0,0
2157,1765221211476,-26,46,-149,0,0,0,0,0
2158,1765221211559,-75,144,-23,0,0,0,0,0
2159,1765221211640,-98,51,-15,0,0,0,0,0
2160,1765221211859,-43,-100,55,0,0,0,0,0
2161,1765221212043,-20,-272,-10,0,0,0,0,0
2162,1765221212259,-10,372,-29,0,0,0,0,0
2163,1765221212326,-42,284,-17,0,0,0,0,0
2164,1765221212575,-18,165,-10,0,0,0,0,0
2165,1765221212659,29,-36,24,0,0,0,0,0
2166,1765221212859,-3,-98,26,0,0,0,0,0
2167,1765221213076,26,-128,17,0,0,0,0,0
2168,1765221213309,45,-94,13,0,0,0,0,0
2169,1765221213459,9,-20,3,0,0,0,0,0
2170,1765221213608,14,-31,4,0,0,0,0,0
2171,1765221213793,-4,-6,1,0,0,0,0,0
2172,1765221213993,10,-15,4,0,0,0,0,0
2173,1765221214143,5,-9,-1,0,0,0,0,0
2174,1765221214244,2,-8,-1,0,0,0,0,0
2175,1765221214441,10,-8,1,0,0,0,0,0
2176,1765221214893,7,-10,-1,0,0,0,0,0
2177,1765221215010,6,-10,0,0,0,0,0,0
2178,1765221215192,6,-10,-1,0,0,0,0,0
2179,1765221215541,7,-9,-1,0,0,0,0,0
2180,1765221215626,5,-10,0,0,0,0,0,0
2181,1765221215858,6,-9,-1,0,0,0,0,0
2182,1765221215925,7,-9,0,0,0,0,0,0
2183,1765221215976,7,-10,0,0,0,0,0,0
2184,1765221216059,7,-9,0,0,0,0,0,0
2185,1765221216359,6,-9,-1,0,0,0,0,0
2186,1765221216526,7,-10,0,0,0,0,0,0
2187,1765221216659,7,-9,0,0,0,0,0,0
2188,1765221216791,4,-10,-1,0,0,0,0,0
2189,1765221216991,6,-9,-1,0,0,0,0,0
2190,1765221217127,5,-10,0,0,0,0,0,0
2191,1765221217259,6,-9,0,0,0,0,0,0
2192,1765221217491,6,-10,0,0,0,0,0,0
2193,1765221217591,6,-9,0,0,0,0,0,0
2194,1765221217926,5,-9,-1,0,0,0,0,0
2195,1765221218209,6,-11,0,0,0,0,0,0
2196,1765221218292,6,-10,1,0,0,0,0,0
2197,1765221218425,8,-10,0,0,0,0,0,0
2198,1765221218626,4,-9,0,0,0,0,0,0
2199,1765221218708,6,-9,-1,0,0,0,0,0
2200,1765221218976,5,-9,-1,0,0,0,0,0
2201,1765221219076,7,-9,-1,0,0,0,0,0
2202,1765221219142,7,-10,-1,0,0,0,0,0
2203,1765221219358,4,-9,0,0,0,0,0,0
2204,1765221219424,5,-11,-1,0,0,0,0,0
2205,1765221219809,6,-10,-2,0,0,0,0,0
2206,1765221220009,6,-10,1,0,0,0,0,0
2207,1765221220158,5,-11,-1,0,0,0,0,0
2208,1765221220276,8,-10,0,0,0,0,0,0
2209,1765221220442,6,-10,0,0,0,0,0,0
2210,1765221220671,6,-7,-1,0,0,0,0,0
2211,1765221220794,7,-11,-1,0,0,0,0,0
2212,1765221221009,7,-8,0,0,0,0,0,0
2213,1765221221141,4,-10,0,0,0,0,0,0
2214,1765221221293,7,-9,0,0,0,0,0,0
2215,1765221221774,5,-10,0,0,0,0,0,0
2216,1765221221892,5,-9,0,0,0,0,0,0
2217,1765221222076,6,-10,0,0,0,0,0,0
2218,1765221222159,4,-10,0,0,0,0,0,0
2219,1765221222242,5,-8,0,0,0,0,0,0
2220,1765221222530,5,-10,0,0,0,0,0,0
2221,1765221222594,7,-10,0,0,0,0,0,0
2222,1765221222692,5,-10,-1,0,0,0,0,0
2223,1765221222842,7,-9,0,0,0,0,0,0
2224,1765221222992,5,-9,0,0,0,0,0,0
2225,1765221223125,6,-9,0,0,0,0,0,0
2226,1765221223409,7,-9,0,0,0,0,0,0
2227,1765221223643,6,-8,0,0,0,0,0,0
2228,1765221223776,8,-9,-1,0,0,0,0,0
2229,1765221223909,5,-9,-1,0,0,0,0,0
2230,1765221223991,7,-10,0,0,0,0,0,0
2231,1765221224192,6,-9,0,0,0,0,0,0
2232,1765221224326,5,-9,-1,0,0,0,0,0
2233,1765221224609,4,-10,-1,0,0,0,0,0
2234,1765221224693,5,-10,-1,0,0,0,0,0
2235,1765221224893,7,-10,-2,0,0,0,0,0
2236,1765221224976,8,-9,-1,0,0,0,0,0
2237,1765221225309,7,-9,-1,0,0,0,0,0
2238,1765221225459,5,-10,0,0,0,0,0,0
2239,1765221225658,6,-11,0,0,0,0,0,0
2240,1765221225859,5,-8,0,0,0,0,0,0
2241,1765221225958,6,-10,-1,0,0,0,0,0
2242,1765221226192,5,-9,-1,0,0,0,0,0
2243,1765221226360,6,-10,-2,0,0,0,0,0
2244,1765221226579,4,-9,-3,0,0,0,0,0
2245,1765221226660,6,-9,1,0,0,0,0,0
2246,1765221226875,6,-9,-1,0,0,0,0,0
2247,1765221227059,6,-9,0,0,0,0,0,0
2248,1765221227358,6,-9,-1,0,0,0,0,0
2249,1765221227442,6,-9,0,0,0,0,0,0
2250,1765221227509,6,-9,-1,0,0,0,0,0
2251,1765221227592,6,-10,0,0,0,0,0,0
2252,1765221227792,5,-9,-1,0,0,0,0,0
2253,1765221227959,5,-10,0,0,0,0,0,0
2254,1765221228143,6,-10,0,0,0,0,0,0
2255,1765221228209,5,-11,-1,0,0,0,0,0
2256,1765221228275,5,-10,0,0,0,0,0,0
2257,1765221228526,7,-9,0,0,0,0,0,0
2258,1765221228576,6,-9,0,0,0,0,0,0
2259,1765221228792,6,-11,1,0,0,0,0,0
2260,1765221229026,5,-9,-1,0,0,0,0,0
2261,1765221229258,7,-9,-1,0,0,0,0,0
2262,1765221229343,5,-9,1,0,0,0,0,0
2263,1765221229393,7,-10,0,0,0,0,0,0
2264,1765221229542,7,-11,0,0,0,0,0,0
2265,1765221229726,5,-9,0,0,0,0,0,0
2266,1765221229976,7,-9,0,0,0,0,0,0
2267,1765221230125,7,-10,-1,0,0,0,0,0
2268,1765221230277,7,-9,-1,0,0,0,0,0
2269,1765221230442,5,-9,-1,0,0,0,0,0
2270,1765221230860,4,-10,0,0,0,0,0,0
2271,1765221231041,2,-10,-1,0,0,0,0,0
2272,1765221231158,6,-10,-2,0,0,0,0,0
2273,1765221231609,1,-9,1,0,0,0,0,0
2274,1765221231675,8,-8,2,0,0,0,0,0
2275,1765221231843,5,-9,0,0,0,0,0,0
2276,1765221231976,7,-8,-1,0,0,0,0,0
2277,1765221232291,4,-7,-1,0,0,0,0,0
2278,1765221232428,3,-8,0,0,0,0,0,0
2279,1765221232626,6,-8,-2,0,0,0,0,0
2280,1765221232724,6,-9,-1,0,0,0,0,0
2281,1765221232943,5,-10,-1,0,0,0,0,0
2282,1765221233076,4,-10,0,0,0,0,0,0
2283,1765221233293,3,-8,0,0,0,0,0,0
2284,1765221233410,6,-9,0,0,0,0,0,0
2285,1765221233643,6,-10,0,0,0,0,0,0
2286,1765221233793,6,-9,0,0,0,0,0,0
2287,1765221234059,5,-9,-1,0,0,0,0,0
2288,1765221234159,7,-9,0,0,0,0,0,0
2289,1765221234393,5,-10,1,0,0,0,0,0
2290,1765221234526,7,-10,-1,0,0,0,0,0
2291,1765221234625,7,-10,0,0,0,0,0,0
2292,1765221234842,6,-10,0,0,0,0,0,0
2293,1765221235009,6,-8,0,0,0,0,0,0
2294,1765221235192,7,-9,1,0,0,0,0,0
2295,1765221235292,6,-10,-1,0,0,0,0,0
2296,1765221235609,6,-9,-1,0,0,0,0,0
2297,1765221235726,4,-10,0,0,0,0,0,0
2298,1765221235974,7,-7,-1,0,0,0,0,0
2299,1765221236041,5,-10,0,0,0,0,0,0
2300,1765221236274,5,-8,-2,0,0,0,0,0
2301,1765221236307,6,-10,-1,0,0,0,0,0
2302,1765221236424,5,-10,0,0,0,0,0,0
2303,1765221236692,5,-9,-1,0,0,0,0,0
2304,1765221236776,4,-9,-1,0,0,0,0,0
2305,1765221236959,5,-9,0,0,0,0,0,0
2306,1765221237127,4,-9,-1,0,0,0,0,0
2307,1765221237426,5,-9,-1,0,0,0,0,0
2308,1765221237575,7,-9,0,0,0,0,0,0
2309,1765221237725,5,-9,0,0,0,0,0,0
2310,1765221237859,3,-9,0,0,0,0,0,0
2311,1765221238093,6,-8,-1,0,0,0,0,0
2312,1765221238258,6,-11,-1,0,0,0,0,0
2313,1765221238341,5,-8,0,0,0,0,0,0
2314,1765221238559,5,-9,1,0,0,0,0,0
2315,1765221238677,6,-8,0,0,0,0,0,0
2316,1765221238892,6,-9,-2,0,0,0,0,0
2317,1765221239124,5,-10,0,0,0,0,0,0
2318,1765221239291,4,-10,-1,0,0,0,0,0
2319,1765221239442,5,-10,1,0,0,0,0,0
2320,1765221239675,5,-7,0,0,0,0,0,0
2321,1765221239792,8,-12,-2,0,0,0,0,0
2322,1765221240009,5,-9,-2,0,0,0,0,0
2323,1765221240142,5,-9,1,0,0,0,0,0
2324,1765221240341,6,-10,-2,0,0,0,0,0
2325,1765221240441,5,-7,0,0,0,0,0,0
2326,1765221240876,4,-9,0,0,0,0,0,0
2327,1765221241042,6,-9,-1,0,0,0,0,0
2328,1765221241159,5,-9,0,0,0,0,0,0
2329,1765221241309,6,-9,-1,0,0,0,0,0
2330,1765221241574,6,-9,-1,0,0,0,0,0
2331,1765221241708,5,-9,0,0,0,0,0,0
2332,1765221241857,4,-9,-1,0,0,0,0,0
2333,1765221241925,8,-9,0,0,0,0,0,0
2334,1765221242009,5,-10,0,0,0,0,0,0
2335,1765221242243,5,-9,-1,0,0,0,0,0
2336,1765221242553,5,-9,1,0,0,0,0,0
2337,1765221242693,5,-10,1,0,0,0,0,0
2338,1765221242776,5,-9,0,0,0,0,0,0
2339,1765221242976,5,-9,0,0,0,0,0,0
2340,1765221243157,6,-10,-1,0,0,0,0,0
2341,1765221243390,6,-8,-1,0,0,0,0,0
2342,1765221243458,5,-9,0,0,0,0,0,0
2343,1765221243692,5,-8,0,0,0,0,0,0
2344,1765221243824,5,-9,0,0,0,0,0,0
2345,1765221244125,6,-9,0,0,0,0,0,0
2346,1765221244193,6,-10,0,0,0,0,0,0
2347,1765221244557,4,-10,-1,0,0,0,0,0
2348,1765221244725,6,-9,-1,0,0,0,0,0
2349,1765221244876,7,-9,-1,0,0,0,0,0
2350,1765221245042,5,-9,1,0,0,0,0,0
2351,1765221245258,6,-8,-1,0,0,0,0,0
2352,1765221245374,7,-8,-1,0,0,0,0,0
2353,1765221245625,5,-9,0,0,0,0,0,0
2354,1765221245809,6,-10,0,0,0,0,0,0
2355,1765221245991,6,-8,0,0,0,0,0,0
2356,1765221246159,3,-8,-1,0,0,0,0,0
2357,1765221246342,7,-11,-2,0,0,0,0,0
2358,1765221246442,7,-10,-2,0,0,0,0,0
2359,1765221246692,5,-7,0,0,0,0,0,0
2360,1765221246791,4,-11,0,0,0,0,0,0
2361,1765221246977,3,-9,0,0,0,0,0,0
2362,1765221247141,5,-9,0,0,0,0,0,0
2363,1765221247442,7,-10,-1,0,0,0,0,0
2364,1765221247575,5,-9,0,0,0,0,0,0
2365,1765221247727,5,-10,-1,0,0,0,0,0
2366,1765221247859,7,-10,1,0,0,0,0,0
2367,1765221248057,6,-8,0,0,0,0,0,0
2368,1765221248241,6,-9,-1,0,0,0,0,0
2369,1765221248359,5,-9,0,0,0,0,0,0
2370,1765221248574,5,-9,0,0,0,0,0,0
2371,1765221248691,6,-9,-2,0,0,0,0,0
2372,1765221248908,5,-8,-1,0,0,0,0,0
2373,1765221249160,4,-9,0,0,0,0,0,0
2374,1765221249325,7,-9,-1,0,0,0,0,0
2375,1765221249459,5,-9,-1,0,0,0,0,0
2376,1765221249625,3,-9,0,0,0,0,0,0
2377,1765221249742,5,-9,0,0,0,0,0,0
2378,1765221249993,5,-9,0,0,0,0,0,0
2379,1765221250125,5,-9,0,0,0,0,0,0
2380,1765221250207,4,-8,0,0,0,0,0,0
2381,1765221250426,6,-9,0,0,0,0,0,0
2382,1765221250525,5,-9,0,0,0,0,0,0
2383,1765221250675,6,-10,0,0,0,0,0,0
2384,1765221250926,5,-11,0,0,0,0,0,0
2385,1765221251142,5,-9,-1,0,0,0,0,0
2386,1765221251225,5,-9,0,0,0,0,0,0
2387,1765221251292,5,-10,-1,0,0,0,0,0
2388,1765221251358,5,-10,0,0,0,0,0,0
2389,1765221251591,6,-10,-1,0,0,0,0,0
2390,1765221251758,5,-7,0,0,0,0,0,0
2391,1765221251892,4,-9,0,0,0,0,0,0
2392,1765221252058,5,-9,-1,0,0,0,0,0
2393,1765221252208,5,-9,1,0,0,0,0,0
2394,1765221252375,6,-10,-1,0,0,0,0,0
2395,1765221252776,5,-10,0,0,0,0,0,0
2396,1765221252892,4,-9,1,0,0,0,0,0
2397,1765221253074,5,-9,0,0,0,0,0,0
2398,1765221253190,5,-8,-1,0,0,0,0,0
2399,1765221253293,6,-8,1,0,0,0,0,0
2400,1765221253525,5,-9,-1,0,0,0,0,0
2401,1765221253642,6,-8,-1,0,0,0,0,0
2402,1765221253909,4,-9,0,0,0,0,0,0
2403,1765221253990,6,-9,0,0,0,0,0,0
2404,1765221254292,4,-9,0,0,0,0,0,0
2405,1765221254525,4,-8,1,0,0,0,0,0
2406,1765221254724,6,-10,0,0,0,0,0,0
2407,1765221254809,3,-6,0,0,0,0,0,0
2408,1765221255093,3,-6,-2,0,0,0,0,0
2409,1765221255192,7,-7,1,0,0,0,0,0
2410,1765221255409,4,-9,0,0,0,0,0,0
2411,1765221255641,4,-5,-2,0,0,0,0,0
2412,1765221255741,7,-9,-1,0,0,0,0,0
2413,1765221255924,3,-13,1,0,0,0,0,0
2414,1765221256409,8,-8,2,0,0,0,0,0
2415,1765221256509,4,-3,0,0,0,0,0,0
2416,1765221256707,4,-5,-3,0,0,0,0,0
2417,1765221256773,5,-4,-2,0,0,0,0,0
2418,1765221256875,13,-8,-1,0,0,0,0,0
2419,1765221257059,4,6,6,0,0,0,0,0
2420,1765221257192,9,6,0,0,0,0,0,0
2421,1765221257325,5,1,-4,0,0,0,0,0
2422,1765221257440,-2,1,1,0,0,0,0,0
2423,1765221257626,1,4,2,0,0,0,0,0
2424,1765221257726,5,5,-2,0,0,0,0,0
2425,1765221258025,2,7,-1,0,0,0,0,0
2426,1765221258243,10,7,0,0,0,0,0,0
2427,1765221258391,5,2,1,0,0,0,0,0
2428,1765221258524,5,7,-3,0,0,0,0,0
2429,1765221258574,8,9,5,0,0,0,0,0
2430,1765221258776,3,5,-6,0,0,0,0,0
2431,1765221258859,5,7,-1,0,0,0,0,0
2432,1765221259109,7,7,-1,0,0,0,0,0
2433,1765221259159,1,8,-5,0,0,0,0,0
2434,1765221259290,1,9,-2,0,0,0,0,0
2435,1765221259442,14,4,-7,0,0,0,0,0
2436,1765221259575,-10,6,-3,0,0,0,0,0
2437,1765221260059,0,7,3,0,0,0,0,0
2438,1765221260158,5,10,-5,0,0,0,0,0
2439,1765221260342,3,10,-4,0,0,0,0,0
2440,1765221260409,8,6,1,0,0,0,0,0
2441,1765221260525,2,12,-25,0,0,0,0,0
2442,1765221260692,10,16,9,0,0,0,0,0
2443,1765221260842,8,6,1,0,0,0,0,0
2444,1765221261042,14,17,-6,0,0,0,0,0
2445,1765221261259,4,14,-12,0,0,0,0,0
2446,1765221261342,-1,14,0,0,0,0,0,0
2447,1765221261542,9,8,-20,0,0,0,0,0
2448,1765221261609,4,15,-12,0,0,0,0,0
2449,1765221261742,6,17,-3,0,0,0,0,0
2450,1765221262126,9,12,1,0,0,0,0,0
2451,1765221262177,11,12,-4,0,0,0,0,0
2452,1765221262225,8,11,-9,0,0,0,0,0
2453,1765221262458,14,23,11,0,0,0,0,0
2454,1765221262575,16,12,6,0,0,0,0,0
2455,1765221262925,9,17,-12,0,0,0,0,0
2456,1765221263109,9,17,10,0,0,0,0,0
2457,1765221263224,6,14,-3,0,0,0,0,0
2458,1765221263675,9,18,-6,0,0,0,0,0
2459,1765221263808,1,13,-14,0,0,0,0,0
2460,1765221263959,0,18,-15,0,0,0,0,0
2461,1765221264008,8,17,13,0,0,0,0,0
2462,1765221264093,5,9,-23,0,0,0,0,0
2463,1765221264413,11,13,-6,0,0,0,0,0
2464,1765221264474,9,17,11,0,0,0,0,0
2465,1765221264659,1,4,-4,0,0,0,0,0
2466,1765221264809,5,5,-3,0,0,0,0,0
2467,1765221264975,12,6,5,0,0,0,0,0
2468,1765221265143,3,7,-7,0,0,0,0,0
2469,1765221265559,6,-6,2,0,0,0,0,0
2470,1765221265709,6,-7,-1,0,0,0,0,0
2471,1765221265859,5,-7,-1,0,0,0,0,0
2472,1765221265925,10,-6,-2,0,0,0,0,0
2473,1765221265990,4,-9,-2,0,0,0,0,0
2474,1765221266259,4,-6,1,0,0,0,0,0
2475,1765221266376,7,-13,2,0,0,0,0,0
2476,1765221266557,3,-10,0,0,0,0,0,0
2477,1765221266692,4,-22,-4,0,0,0,0,0
2478,1765221266990,8,-6,4,0,0,0,0,0
2479,1765221267342,6,-9,-2,0,0,0,0,0
2480,1765221267425,5,-7,0,0,0,0,0,0
2481,1765221267658,6,-9,1,0,0,0,0,0
2482,1765221267807,5,-8,-1,0,0,0,0,0
2483,1765221268042,5,-10,0,0,0,0,0,0
2484,1765221268124,6,-8,2,0,0,0,0,0
2485,1765221268375,7,-9,0,0,0,0,0,0
2486,1765221268492,6,-9,0,0,0,0,0,0
2487,1765221268742,6,-9,-1,0,0,0,0,0
2488,1765221268875,6,-9,1,0,0,0,0,0
2489,1765221269225,6,-9,1,0,0,0,0,0
2490,1765221269292,6,-10,0,0,0,0,0,0
2491,1765221269560,5,-10,-3,0,0,0,0,0
2492,1765221269691,5,-10,-1,0,0,0,0,0
2493,1765221269858,5,-9,1,0,0,0,0,0
2494,1765221269990,4,-8,0,0,0,0,0,0
2495,1765221270190,5,-10,0,0,0,0,0,0
2496,1765221270375,5,-9,1,0,0,0,0,0
2497,1765221270625,6,-9,-1,0,0,0,0,0
2498,1765221270742,4,-8,0,0,0,0,0,0
2499,1765221271106,5,-8,1,0,0,0,0,0
2500,1765221271240,5,-9,0,0,0,0,0,0
2501,1765221271425,6,-9,-1,0,0,0,0,0
2502,1765221271558,3,-8,-1,0,0,0,0,0
2503,1765221271742,4,-9,0,0,0,0,0,0
2504,1765221271858,7,-9,-1,0,0,0,0,0
2505,1765221272292,6,-7,-1,0,0,0,0,0
2506,1765221272442,3,-9,-1,0,0,0,0,0
2507,1765221272592,6,-10,-2,0,0,0,0,0
2508,1765221272974,5,-10,0,0,0,0,0,0
2509,1765221273074,6,-10,2,0,0,0,0,0
2510,1765221273259,5,-10,-1,0,0,0,0,0
2511,1765221273424,1,-11,-1,0,0,0,0,0
2512,1765221273624,6,-8,-1,0,0,0,0,0
2513,1765221273859,4,-10,-1,0,0,0,0,0
2514,1765221274058,6,-9,0,0,0,0,0,0
2515,1765221274174,5,-10,0,0,0,0,0,0
2516,1765221274409,4,-8,-1,0,0,0,0,0
2517,1765221274476,3,-8,0,0,0,0,0,0
2518,1765221274690,5,-9,0,0,0,0,0,0
2519,1765221274859,5,-7,0,0,0,0,0,0
2520,1765221275025,4,-7,-1,0,0,0,0,0
2521,1765221275158,5,-10,-1,0,0,0,0,0
2522,1765221275345,5,-9,0,0,0,0,0,0
2523,1765221275608,5,-7,0,0,0,0,0,0
2524,1765221275776,4,-9,-1,0,0,0,0,0
2525,1765221275992,6,-9,0,0,0,0,0,0
2526,1765221276059,5,-8,0,0,0,0,0,0
2527,1765221276308,3,-10,0,0,0,0,0,0
2528,1765221276442,6,-9,1,0,0,0,0,0
2529,1765221276673,5,-9,-1,0,0,0,0,0
2530,1765221276758,4,-9,0,0,0,0,0,0
2531,1765221276976,5,-7,0,0,0,0,0,0
2532,1765221277441,6,-8,-1,0,0,0,0,0
2533,1765221277509,6,-10,0,0,0,0,0,0
2534,1765221277725,7,-9,-1,0,0,0,0,0
2535,1765221277875,5,-8,0,0,0,0,0,0
2536,1765221278092,5,-9,0,0,0,0,0,0
2537,1765221278192,6,-9,0,0,0,0,0,0
2538,1765221278575,4,-8,0,0,0,0,0,0
2539,1765221278792,6,-8,0,0,0,0,0,0
2540,1765221278942,6,-9,0,0,0,0,0,0
2541,1765221279075,5,-8,0,0,0,0,0,0
2542,1765221279309,6,-8,-1,0,0,0,0,0
2543,1765221279442,5,-8,0,0,0,0,0,0
2544,1765221279642,4,-9,0,0,0,0,0,0
2545,1765221279776,4,-8,254,0,0,0,0,0
2546,1765221280007,4,-9,-2,0,0,0,0,0
2547,1765221280075,4,-8,-1,0,0,0,0,0
2548,1765221280275,5,-10,0,0,0,0,0,0
2549,1765221280442,5,-10,-1,0,0,0,0,0
2550,1765221280758,5,-9,-1,0,0,0,0,0
2551,1765221280891,5,-9,-1,0,0,0,0,0
2552,1765221281008,6,-9,0,0,0,0,0,0
2553,1765221281175,5,-8,-1,0,0,0,0,0
2554,1765221281374,7,-10,0,0,0,0,0,0
2555,1765221281558,5,-9,1,0,0,0,0,0
2556,1765221281625,5,-9,-1,0,0,0,0,0
2557,1765221281840,5,-9,0,0,0,0,0,0
2558,1765221281942,6,-10,-1,0,0,0,0,0
2559,1765221282342,5,-9,1,0,0,0,0,0
2560,1765221282575,4,-8,-256,0,0,0,0,0
2561,1765221282657,4,-10,-1,0,0,0,0,0
2562,1765221282858,5,-9,0,0,0,0,0,0
2563,1765221283058,5,-9,0,0,0,0,0,0
2564,1765221283240,7,-8,0,0,0,0,0,0
2565,1765221283357,6,-8,0,0,0,0,0,0
2566,1765221283424,7,-8,0,0,0,0,0,0
2567,1765221283507,6,-9,0,0,0,0,0,0
2568,1765221283724,6,-8,-1,0,0,0,0,0
2569,1765221284177,5,-9,0,0,0,0,0,0
2570,1765221284244,5,-10,-1,0,0,0,0,0
2571,1765221284474,6,-9,255,0,0,0,0,0
2572,1765221284558,4,-8,-1,0,0,0,0,0
2573,1765221284607,7,-8,-1,0,0,0,0,0
2574,1765221284708,5,-9,-1,0,0,0,0,0
2575,1765221284910,5,-8,-1,0,0,0,0,0
2576,1765221285042,5,-10,1,0,0,0,0,0
2577,1765221285209,7,-9,1,0,0,0,0,0
2578,1765221285325,5,-9,1,0,0,0,0,0
2579,1765221285493,5,-9,0,0,0,0,0,0
2580,1765221285726,6,-9,0,0,0,0,0,0
2581,1765221285875,6,-8,1,0,0,0,0,0
2582,1765221286058,6,-8,-1,0,0,0,0,0
2583,1765221286405,6,-7,-2,0,0,0,0,0
2584,1765221286410,4,-9,0,0,0,0,0,0
2585,1765221286675,6,-9,-1,0,0,0,0,0
2586,1765221286809,7,-8,0,0,0,0,0,0
2587,1765221286992,5,-8,1,0,0,0,0,0
2588,1765221287126,5,-7,1,0,0,0,0,0
2589,1765221287225,4,-9,0,0,0,0,0,0
2590,1765221287526,5,-9,0,0,0,0,0,0
2591,1765221287626,5,-8,-1,0,0,0,0,0
2592,1765221287726,5,-9,-1,0,0,0,0,0
2593,1765221287910,4,-9,0,0,0,0,0,0
2594,1765221288008,5,-9,0,0,0,0,0,0
2595,1765221288276,5,-9,0,0,0,0,0,0
2596,1765221288425,4,-9,-1,0,0,0,0,0
2597,1765221288558,4,-10,0,0,0,0,0,0
2598,1765221288711,6,-9,0,0,0,0,0,0
2599,1765221288859,4,-9,1,0,0,0,0,0
2600,1765221289109,5,-8,0,0,0,0,0,0
2601,1765221289326,6,-9,-1,0,0,0,0,0
2602,1765221289491,5,-9,0,0,0,0,0,0
2603,1765221289576,5,-9,0,0,0,0,0,0
2604,1765221289675,5,-8,0,0,0,0,0,0
2605,1765221289859,4,-9,0,0,0,0,0,0
2606,1765221289959,5,-9,0,0,0,0,0,0
2607,1765221290226,6,-9,-1,0,0,0,0,0
2608,1765221290392,5,-8,1,0,0,0,0,0
2609,1765221290509,4,-7,-1,0,0,0,0,0
2610,1765221290676,5,-10,1,0,0,0,0,0
2611,1765221290775,5,-9,0,0,0,0,0,0
2612,1765221290859,6,-10,0,0,0,0,0,0
2613,1765221291159,5,-9,-1,0,0,0,0,0
2614,1765221291259,6,-8,1,0,0,0,0,0
2615,1765221291525,7,-10,0,0,0,0,0,0
2616,1765221291610,5,-10,1,0,0,0,0,0
2617,1765221291775,4,-7,0,0,0,0,0,0
2618,1765221291943,6,-9,-1,0,0,0,0,0
2619,1765221292008,6,-9,0,0,0,0,0,0
2620,1765221292160,7,-9,0,0,0,0,0,0
2621,1765221292343,4,-8,0,0,0,0,0,0
2622,1765221292442,5,-9,-1,0,0,0,0,0
2623,1765221292677,6,-8,-1,0,0,0,0,0
2624,1765221292860,5,-9,0,0,0,0,0,0
2625,1765221293091,6,-9,-1,0,0,0,0,0
2626,1765221293275,6,-9,-255,0,0,0,0,0
2627,1765221293424,5,-10,0,0,0,0,0,0
2628,1765221293558,5,-9,0,0,0,0,0,0
2629,1765221293742,6,-7,0,0,0,0,0,0
2630,1765221293976,6,-9,0,0,0,0,0,0
2631,1765221294043,5,-9,0,0,0,0,0,0
2632,1765221294259,5,-9,0,0,0,0,0,0
2633,1765221294326,6,-8,0,0,0,0,0,0
2634,1765221294441,6,-8,0,0,0,0,0,0
2635,1765221294543,5,-9,1,0,0,0,0,0
2636,1765221294810,4,-9,0,0,0,0,0,0
2637,1765221294977,6,-9,-1,0,0,0,0,0
2638,1765221295225,7,-9,0,0,0,0,0,0
2639,1765221295276,4,-8,0,0,0,0,0,0
2640,1765221295507,6,-9,0,0,0,0,0,0
2641,1765221295676,4,-10,-1,0,0,0,0,0
2642,1765221295826,5,-8,-1,0,0,0,0,0
2643,1765221295992,4,-8,1,0,0,0,0,0
2644,1765221296125,4,-8,-1,0,0,0,0,0
2645,1765221296209,7,-8,0,0,0,0,0,0
2646,1765221296393,5,-10,0,0,0,0,0,0
2647,1765221296708,7,-8,0,0,0,0,0,0
2648,1765221296773,4,-9,-1,0,0,0,0,0
2649,1765221296842,5,-8,-1,0,0,0,0,0
2650,1765221296941,4,-9,0,0,0,0,0,0
2651,1765221297341,5,-9,1,0,0,0,0,0
2652,1765221297341,4,-10,-1,0,0,0,0,0
2653,1765221297575,3,-9,0,0,0,0,0,0
2654,1765221297792,5,-8,0,0,0,0,0,0
2655,1765221297876,3,-9,0,0,0,0,0,0
2656,1765221298075,6,-9,0,0,0,0,0,0
2657,1765221298341,6,-8,1,0,0,0,0,0
2658,1765221298575,6,-9,-1,0,0,0,0,0
2659,1765221298625,5,-9,0,0,0,0,0,0
2660,1765221298709,5,-9,1,0,0,0,0,0
2661,1765221298842,5,-9,0,0,0,0,0,0
2662,1765221299009,5,-9,0,0,0,0,0,0
2663,1765221299209,4,-9,-256,0,0,0,0,0
2664,1765221299375,7,-8,0,0,0,0,0,0
2665,1765221299459,5,-9,0,0,0,0,0,0
2666,1765221299708,7,-9,-1,0,0,0,0,0
2667,1765221299809,5,-9,0,0,0,0,0,0
2668,1765221299941,4,-8,0,0,0,0,0,0
2669,1765221300208,5,-8,0,0,0,0,0,0
2670,1765221300409,6,-8,-1,0,0,0,0,0
2671,1765221300492,6,-9,0,0,0,0,0,0
2672,1765221300558,4,-9,0,0,0,0,0,0
2673,1765221300626,5,-9,-1,0,0,0,0,0
2674,1765221300921,3,-9,1,0,0,0,0,0
2675,1765221301024,5,-8,-1,0,0,0,0,0
2676,1765221301193,5,-9,1,0,0,0,0,0
2677,1765221301342,5,-10,0,0,0,0,0,0
2678,1765221301540,5,-9,0,0,0,0,0,0
2679,1765221301761,6,-9,-1,0,0,0,0,0
2680,1765221301958,5,-9,1,0,0,0,0,0
2681,1765221302075,4,-9,0,0,0,0,0,0
2682,1765221302274,7,-10,1,0,0,0,0,0
2683,1765221302441,4,-9,0,0,0,0,0,0
2684,1765221302557,5,-9,1,0,0,0,0,0
2685,1765221302775,5,-9,0,0,0,0,0,0
2686,1765221302891,6,-9,0,0,0,0,0,0
2687,1765221303073,6,-10,0,0,0,0,0,0
2688,1765221303206,6,-8,0,0,0,0,0,0
2689,1765221303507,4,-9,-1,0,0,0,0,0
2690,1765221303624,5,-8,1,0,0,0,0,0
2691,1765221303775,5,-8,-1,0,0,0,0,0
2692,1765221303924,5,-9,1,0,0,0,0,0
2693,1765221304091,5,-9,0,0,0,0,0,0
2694,1765221304243,5,-9,0,0,0,0,0,0
2695,1765221304276,5,-8,-1,0,0,0,0,0
2696,1765221304392,6,-9,0,0,0,0,0,0
2697,1765221304608,5,-8,0,0,0,0,0,0
2698,1765221304725,5,-8,0,0,0,0,0,0
2699,1765221304941,7,-9,-1,0,0,0,0,0
2700,1765221305174,4,-7,0,0,0,0,0,0
2701,1765221305359,6,-9,1,0,0,0,0,0
2702,1765221305508,6,-8,-2,0,0,0,0,0
2703,1765221305708,5,-7,0,0,0,0,0,0
2704,1765221305792,4,-9,1,0,0,0,0,0
2705,1765221306059,4,-9,1,0,0,0,0,0
2706,1765221306190,6,-9,-1,0,0,0,0,0
2707,1765221306307,3,-10,-1,0,0,0,0,0
2708,1765221306491,6,-8,0,0,0,0,0,0
2709,1765221306940,4,-9,-1,0,0,0,0,0
2710,1765221307041,4,-9,0,0,0,0,0,0
2711,1765221307223,3,-9,-1,0,0,0,0,0
2712,1765221307375,4,-9,0,0,0,0,0,0
2713,1765221307574,4,-8,0,0,0,0,0,0
2714,1765221307708,5,-8,0,0,0,0,0,0
2715,1765221307940,5,-9,-2,0,0,0,0,0
2716,1765221308156,3,-8,-1,0,0,0,0,0
2717,1765221308160,6,-9,-1,0,0,0,0,0
2718,1765221308189,4,-8,-1,0,0,0,0,0
2719,1765221308441,4,-9,1,0,0,0,0,0
2720,1765221308808,5,-9,0,0,0,0,0,0
2721,1765221308942,5,-9,0,0,0,0,0,0
2722,1765221309109,3,-9,-1,0,0,0,0,0
2723,1765221309508,6,-8,0,0,0,0,0,0
2724,1765221309573,5,-8,0,0,0,0,0,0
2725,1765221309808,4,-8,-1,0,0,0,0,0
2726,1765221309958,5,-8,-1,0,0,0,0,0
2727,1765221310091,5,-9,0,0,0,0,0,0
2728,1765221310325,4,-8,0,0,0,0,0,0
2729,1765221310708,6,-10,0,0,0,0,0,0
2730,1765221310807,6,-9,0,0,0,0,0,0
2731,1765221311040,6,-8,1,0,0,0,0,0
2732,1765221311173,5,-8,-1,0,0,0,0,0
2733,1765221311425,5,-10,0,0,0,0,0,0
2734,1765221311508,6,-7,0,0,0,0,0,0
2735,1765221311707,6,-10,0,0,0,0,0,0
2736,1765221311857,6,-8,-1,0,0,0,0,0
2737,1765221312158,6,-9,1,0,0,0,0,0
2738,1765221312242,6,-9,-2,0,0,0,0,0
2739,1765221312424,6,-6,0,0,0,0,0,0
2740,1765221312591,3,-8,-1,0,0,0,0,0
2741,1765221312824,5,-8,-1,0,0,0,0,0
2742,1765221312908,7,-9,-1,0,0,0,0,0
2743,1765221312990,5,-11,0,0,0,0,0,0
2744,1765221313074,5,-10,-1,0,0,0,0,0
2745,1765221313292,4,-10,-1,0,0,0,0,0
2746,1765221313408,7,-7,-1,0,0,0,0,0
2747,1765221313790,7,-9,0,0,0,0,0,0
2748,1765221314023,3,-9,1,0,0,0,0,0
2749,1765221314125,4,-8,0,0,0,0,0,0
2750,1765221314307,4,-8,1,0,0,0,0,0
2751,1765221314508,4,-10,0,0,0,0,0,0
2752,1765221314725,4,-8,0,0,0,0,0,0
2753,1765221314791,5,-8,0,0,0,0,0,0
2754,1765221314874,5,-9,1,0,0,0,0,0
2755,1765221314975,5,-8,0,0,0,0,0,0
2756,1765221315175,4,-9,-1,0,0,0,0,0
2757,1765221315458,4,-8,-1,0,0,0,0,0
2758,1765221315575,4,-9,1,0,0,0,0,0
2759,1765221315675,4,-9,0,0,0,0,0,0
2760,1765221315892,6,-8,0,0,0,0,0,0
2761,1765221315991,6,-9,0,0,0,0,0,0
2762,1765221316175,5,-8,0,0,0,0,0,0
2763,1765221316356,4,-9,0,0,0,0,0,0
2764,1765221316525,5,-8,0,0,0,0,0,0
2765,1765221316658,6,-8,0,0,0,0,0,0
2766,1765221316791,5,-8,0,0,0,0,0,0
2767,1765221317093,5,-8,0,0,0,0,0,0
2768,1765221317291,3,-7,0,0,0,0,0,0
2769,1765221317456,5,-9,0,0,0,0,0,0
2770,1765221317523,5,-8,1,0,0,0,0,0
2771,1765221317758,4,-8,0,0,0,0,0,0
2772,1765221317958,6,-10,0,0,0,0,0,0
2773,1765221318124,5,-9,-1,0,0,0,0,0
2774,1765221318241,5,-9,-1,0,0,0,0,0
2775,1765221318441,5,-8,0,0,0,0,0,0
2776,1765221318608,4,-10,1,0,0,0,0,0
2777,1765221318841,4,-9,0,0,0,0,0,0
2778,1765221319095,4,-10,-1,0,0,0,0,0
2779,1765221319141,5,-9,-1,0,0,0,0,0
2780,1765221319241,5,-9,0,0,0,0,0,0
2781,1765221319391,5,-8,0,0,0,0,0,0
2782,1765221319557,5,-9,-1,0,0,0,0,0
2783,1765221319708,4,-9,0,0,0,0,0,0
2784,1765221319824,4,-9,-1,0,0,0,0,0
2785,1765221320043,5,-9,-1,0,0,0,0,0
2786,1765221320124,4,-8,-1,0,0,0,0,0
2787,1765221320424,4,-8,0,0,0,0,0,0
2788,1765221320474,4,-8,-1,0,0,0,0,0
2789,1765221320710,7,-9,0,0,0,0,0,0
2790,1765221320874,4,-9,1,0,0,0,0,0
2791,1765221321025,4,-9,-1,0,0,0,0,0
2792,1765221321158,6,-9,1,0,0,0,0,0
2793,1765221321291,4,-8,-1,0,0,0,0,0
2794,1765221321524,5,-9,0,0,0,0,0,0
2795,1765221321624,4,-9,0,0,0,0,0,0
2796,1765221321758,4,-9,0,0,0,0,0,0
2797,1765221321925,4,-8,-1,0,0,0,0,0
2798,1765221322042,4,-9,-1,0,0,0,0,0
2799,1765221322307,4,-8,0,0,0,0,0,0
2800,1765221322524,4,-9,1,0,0,0,0,0
2801,1765221322725,4,-9,0,0,0,0,0,0
2802,1765221322808,5,-9,-1,0,0,0,0,0
2803,1765221322941,4,-7,0,0,0,0,0,0
2804,1765221323058,5,-9,0,0,0,0,0,0
2805,1765221323258,5,-8,-1,0,0,0,0,0
2806,1765221323408,4,-9,0,0,0,0,0,0
2807,1765221323658,4,-9,0,0,0,0,0,0
2808,1765221323725,5,-9,0,0,0,0,0,0
2809,1765221323941,3,-9,-1,0,0,0,0,0
2810,1765221324142,6,-8,0,0,0,0,0,0
2811,1765221324425,4,-9,1,0,0,0,0,0
2812,1765221324509,5,-9,0,0,0,0,0,0
2813,1765221324741,5,-9,1,0,0,0,0,0
2814,1765221324907,5,-8,0,0,0,0,0,0
2815,1765221325075,3,-9,0,0,0,0,0,0
2816,1765221325225,3,-9,-1,0,0,0,0,0
2817,1765221325308,3,-8,255,0,0,0,0,0
2818,1765221325375,5,-8,0,0,0,0,0,0
2819,1765221325592,4,-8,0,0,0,0,0,0
2820,1765221325659,5,-9,-1,0,0,0,0,0
2821,1765221326141,5,-9,0,0,0,0,0,0
2822,1765221326324,7,-9,255,0,0,0,0,0
2823,1765221326425,5,-8,0,0,0,0,0,0
2824,1765221326558,3,-7,0,0,0,0,0,0
2825,1765221326673,5,-9,0,0,0,0,0,0
2826,1765221326841,4,-10,-1,0,0,0,0,0
2827,1765221326975,5,-8,0,0,0,0,0,0
2828,1765221327241,4,-8,-1,0,0,0,0,0
2829,1765221327341,4,-8,-1,0,0,0,0,0
2830,1765221327541,7,-9,-1,0,0,0,0,0
2831,1765221327758,4,-8,0,0,0,0,0,0
2832,1765221327989,4,-7,0,0,0,0,0,0
2833,1765221328125,4,-8,0,0,0,0,0,0
2834,1765221328291,3,-9,0,0,0,0,0,0
2835,1765221328525,5,-10,255,0,0,0,0,0
2836,1765221328590,5,-8,0,0,0,0,0,0
2837,1765221328841,5,-9,-1,0,0,0,0,0
2838,1765221329008,4,-8,0,0,0,0,0,0
2839,1765221329074,4,-8,-1,0,0,0,0,0
2840,1765221329291,4,-9,1,0,0,0,0,0
2841,1765221329375,6,-8,0,0,0,0,0,0
2842,1765221329589,3,-9,0,0,0,0,0,0
2843,1765221329841,4,-9,1,0,0,0,0,0
2844,1765221330022,4,-9,1,0,0,0,0,0
2845,1765221330242,5,-9,1,0,0,0,0,0
2846,1765221330308,6,-9,0,0,0,0,0,0
2847,1765221330541,6,-8,0,0,0,0,0,0
2848,1765221330674,6,-9,-1,0,0,0,0,0
2849,1765221330991,3,-8,0,0,0,0,0,0
2850,1765221331125,5,-7,0,0,0,0,0,0
2851,1765221331291,5,-9,0,0,0,0,0,0
2852,1765221331408,5,-7,0,0,0,0,0,0
2853,1765221331706,5,-8,0,0,0,0,0,0
2854,1765221331808,4,-9,-1,0,0,0,0,0
2855,1765221331958,4,-8,1,0,0,0,0,0
2856,1765221332158,5,-9,-1,0,0,0,0,0
2857,1765221332291,4,-9,-1,0,0,0,0,0
2858,1765221332475,5,-9,0,0,0,0,0,0
2859,1765221332591,4,-9,0,0,0,0,0,0
2860,1765221332791,4,-8,0,0,0,0,0,0
2861,1765221332891,5,-9,0,0,0,0,0,0
2862,1765221333142,6,-9,1,0,0,0,0,0
2863,1765221333275,4,-8,-1,0,0,0,0,0
2864,1765221333558,5,-9,0,0,0,0,0,0
2865,1765221333658,6,-9,0,0,0,0,0,0
2866,1765221333825,4,-9,-1,0,0,0,0,0
2867,1765221334024,3,-8,0,0,0,0,0,0
2868,1765221334191,4,-9,0,0,0,0,0,0
2869,1765221334341,5,-8,1,0,0,0,0,0
2870,1765221334475,4,-8,1,0,0,0,0,0
2871,1765221334707,4,-9,0,0,0,0,0,0
2872,1765221334758,5,-9,-1,0,0,0,0,0
2873,1765221335208,5,-9,-1,0,0,0,0,0
2874,1765221335408,6,-7,-256,0,0,0,0,0
2875,1765221335508,4,-9,0,0,0,0,0,0
2876,1765221335875,5,-9,0,0,0,0,0,0
2877,1765221336007,5,-8,0,0,0,0,0,0
2878,1765221336191,6,-9,-1,0,0,0,0,0
2879,1765221336341,5,-9,0,0,0,0,0,0
2880,1765221336541,6,-8,0,0,0,0,0,0
2881,1765221336775,5,-8,1,0,0,0,0,0
2882,1765221336958,5,-9,0,0,0,0,0,0
2883,1765221337091,5,-8,0,0,0,0,0,0
2884,1765221337308,6,-10,0,0,0,0,0,0
2885,1765221337375,4,-8,0,0,0,0,0,0
2886,1765221337775,3,-8,0,0,0,0,0,0
2887,1765221337908,6,-10,-1,0,0,0,0,0
2888,1765221338074,5,-8,-1,0,0,0,0,0
2889,1765221338190,5,-9,0,0,0,0,0,0
2890,1765221338507,4,-8,-1,0,0,0,0,0
2891,1765221338574,4,-8,0,0,0,0,0,0
2892,1765221338941,4,-9,-1,0,0,0,0,0
2893,1765221339108,4,-6,-2,0,0,0,0,0
2894,1765221339275,6,-8,0,0,0,0,0,0
2895,1765221339641,5,-9,0,0,0,0,0,0
2896,1765221339741,5,-8,0,0,0,0,0,0
2897,1765221339941,5,-9,0,0,0,0,0,0
2898,1765221340092,6,-9,0,0,0,0,0,0
2899,1765221340391,6,-8,-1,0,0,0,0,0
2900,1765221340474,5,-8,1,0,0,0,0,0
2901,1765221340974,3,-9,0,0,0,0,0,0
2902,1765221341006,5,-8,0,0,0,0,0,0
2903,1765221341125,7,-7,0,0,0,0,0,0
2904,1765221341491,4,-9,0,0,0,0,0,0
2905,1765221341623,3,-9,1,0,0,0,0,0
2906,1765221341873,5,-10,1,0,0,0,0,0
2907,1765221342007,5,-9,0,0,0,0,0,0
2908,1765221342241,4,-8,-1,0,0,0,0,0
2909,1765221342342,4,-8,0,0,0,0,0,0
2910,1765221342557,4,-8,1,0,0,0,0,0
2911,1765221342708,3,-8,0,0,0,0,0,0
2912,1765221342956,5,-9,-1,0,0,0,0,0
2913,1765221343010,5,-9,0,0,0,0,0,0
2914,1765221343207,5,-9,-1,0,0,0,0,0
2915,1765221343374,5,-8,0,0,0,0,0,0
2916,1765221343692,5,-8,-1,0,0,0,0,0
2917,1765221343820,4,-8,0,0,0,0,0,0
2918,1765221343945,6,-10,1,0,0,0,0,0
2919,1765221344125,6,-7,0,0,0,0,0,0
2920,1765221344326,4,-9,-1,0,0,0,0,0
2921,1765221344440,5,-9,0,0,0,0,0,0
2922,1765221344574,4,-8,0,0,0,0,0,0
2923,1765221344825,4,-9,1,0,0,0,0,0
2924,1765221344908,4,-9,1,0,0,0,0,0
2925,1765221345092,5,-8,0,0,0,0,0,0
2926,1765221345324,5,-8,-1,0,0,0,0,0
2927,1765221345560,4,-8,0,0,0,0,0,0
2928,1765221345690,5,-9,0,0,0,0,0,0
2929,1765221345892,5,-7,0,0,0,0,0,0
2930,1765221346041,4,-8,-2,0,0,0,0,0
2931,1765221346409,3,-9,0,0,0,0,0,0
2932,1765221346558,4,-9,-1,0,0,0,0,0
2933,1765221346709,4,-8,0,0,0,0,0,0
2934,1765221347126,3,-8,1,0,0,0,0,0
2935,1765221347259,6,-8,-1,0,0,0,0,0
2936,1765221347427,5,-10,0,0,0,0,0,0
2937,1765221347559,5,-9,1,0,0,0,0,0
2938,1765221347792,3,-7,0,0,0,0,0,0
2939,1765221347892,6,-9,-1,0,0,0,0,0
2940,1765221348108,4,-7,0,0,0,0,0,0
2941,1765221348240,6,-9,-1,0,0,0,0,0
2942,1765221348391,4,-8,-1,0,0,0,0,0
2943,1765221348624,4,-9,0,0,0,0,0,0
2944,1765221348825,5,-10,0,0,0,0,0,0
2945,1765221349006,5,-8,0,0,0,0,0,0
2946,1765221349176,5,-8,0,0,0,0,0,0
2947,1765221349307,4,-8,-1,0,0,0,0,0
2948,1765221349390,4,-9,1,0,0,0,0,0
2949,1765221349474,5,-9,0,0,0,0,0,0
2950,1765221349707,4,-9,1,0,0,0,0,0
2951,1765221349842,5,-8,-1,0,0,0,0,0
2952,1765221350007,5,-8,-1,0,0,0,0,0
2953,1765221350141,5,-9,0,0,0,0,0,0
2954,1765221350442,4,-8,-1,0,0,0,0,0
2955,1765221350525,3,-8,254,0,0,0,0,0
2956,1765221350692,4,-8,0,0,0,0,0,0
2957,1765221350875,5,-8,-1,0,0,0,0,0
2958,1765221351025,6,-8,0,0,0,0,0,0
2959,1765221351209,4,-9,0,0,0,0,0,0
2960,1765221351341,4,-9,-1,0,0,0,0,0
2961,1765221351575,4,-9,-1,0,0,0,0,0
2962,1765221351625,4,-7,0,0,0,0,0,0
2963,1765221352091,6,-8,-2,0,0,0,0,0
2964,1765221352325,2,-5,0,0,0,0,0,0
2965,1765221352426,4,-8,1,0,0,0,0,0
2966,1765221352626,6,-8,1,0,0,0,0,0
2967,1765221352775,3,-8,0,0,0,0,0,0
2968,1765221352993,8,-10,-1,0,0,0,0,0
2969,1765221353092,5,-10,0,0,0,0,0,0
2970,1765221353125,6,-8,0,0,0,0,0,0
2971,1765221353225,5,-8,0,0,0,0,0,0
2972,1765221353441,4,-8,-2,0,0,0,0,0
2973,1765221353541,6,-9,0,0,0,0,0,0
2974,1765221353924,6,-9,0,0,0,0,0,0
2975,1765221354092,5,-8,0,0,0,0,0,0
2976,1765221354225,5,-8,255,0,0,0,0,0
2977,1765221354525,5,-9,-1,0,0,0,0,0
2978,1765221354675,6,-8,-1,0,0,0,0,0
2979,1765221354908,4,-7,0,0,0,0,0,0
2980,1765221354959,4,-9,0,0,0,0,0,0
2981,1765221355041,3,-8,0,0,0,0,0,0
2982,1765221355125,3,-8,-1,0,0,0,0,0
2983,1765221355342,4,-8,0,0,0,0,0,0
2984,1765221355725,4,-8,0,0,0,0,0,0
2985,1765221355842,5,-9,1,0,0,0,0,0
2986,1765221356042,4,-8,0,0,0,0,0,0
2987,1765221356142,4,-7,0,0,0,0,0,0
2988,1765221356241,6,-8,0,0,0,0,0,0
2989,1765221356491,9,-10,1,0,0,0,0,0
2990,1765221356574,6,-6,-2,0,0,0,0,0
2991,1765221356809,5,-8,2,0,0,0,0,0
2992,1765221356877,5,-8,1,0,0,0,0,0
2993,1765221356990,6,-9,0,0,0,0,0,0
2994,1765221357291,4,-8,0,0,0,0,0,0
2995,1765221357358,4,-9,0,0,0,0,0,0
2996,1765221358691,4,-7,0,0,0,0,0,0
2997,1765221358873,3,-8,0,0,0,0,0,0
2998,1765221358990,4,-8,1,0,0,0,0,0
2999,1765221359224,4,-8,0,0,0,0,0,0
3000,1765221359291,5,-9,0,0,0,0,0,0
3001,1765221359540,4,-8,1,0,0,0,0,0
3002,1765221359623,5,-7,1,0,0,0,0,0
3003,1765221359842,4,-7,-1,0,0,0,0,0
3004,1765221359958,4,-9,0,0,0,0,0,0
3005,1765221360142,6,-10,1,0,0,0,0,0
3006,1765221360290,3,-8,0,0,0,0,0,0
3007,1765221360524,5,-10,0,0,0,0,0,0
3008,1765221360591,6,-9,0,0,0,0,0,0
3009,1765221360676,3,-8,1,0,0,0,0,0
3010,1765221360824,6,-10,-1,0,0,0,0,0
3011,1765221361059,5,-9,0,0,0,0,0,0
3012,1765221361290,6,-10,1,0,0,0,0,0
3013,1765221361408,5,-8,-1,0,0,0,0,0
3014,1765221361640,6,-8,-1,0,0,0,0,0
3015,1765221361775,4,-9,0,0,0,0,0,0
3016,1765221361975,5,-9,0,0,0,0,0,0
3017,1765221362108,2,-8,0,0,0,0,0,0
3018,1765221362325,5,-9,0,0,0,0,0,0
3019,1765221362407,5,-10,0,0,0,0,0,0
3020,1765221362642,5,-8,0,0,0,0,0,0
3021,1765221362841,5,-8,0,0,0,0,0,0
3022,1765221363058,3,-7,0,0,0,0,0,0
3023,1765221363140,5,-8,0,0,0,0,0,0
3024,1765221363224,5,-7,0,0,0,0,0,0
3025,1765221363325,4,-8,0,0,0,0,0,0
3026,1765221363575,6,-7,0,0,0,0,0,0
3027,1765221363724,5,-8,0,0,0,0,0,0
3028,1765221363909,4,-8,-1,0,0,0,0,0
3029,1765221364289,3,-8,0,0,0,0,0,0
3030,1765221364307,4,-9,0,0,0,0,0,0
3031,1765221364441,5,-9,-1,0,0,0,0,0
3032,1765221364690,5,-9,0,0,0,0,0,0
3033,1765221364808,5,-8,0,0,0,0,0,0
3034,1765221364974,5,-9,0,0,0,0,0,0
3035,1765221365125,4,-9,0,0,0,0,0,0
3036,1765221365373,6,-8,0,0,0,0,0,0
3037,1765221365441,5,-8,0,0,0,0,0,0
3038,1765221365675,4,-8,1,0,0,0,0,0
3039,1765221365824,5,-10,-1,0,0,0,0,0
3040,1765221366108,3,-9,0,0,0,0,0,0
3041,1765221366174,5,-7,-1,0,0,0,0,0
3042,1765221366274,5,-10,-1,0,0,0,0,0
3043,1765221366357,4,-8,0,0,0,0,0,0
3044,1765221366558,3,-9,0,0,0,0,0,0
3045,1765221366690,4,-9,0,0,0,0,0,0
3046,1765221366908,3,-9,0,0,0,0,0,0
3047,1765221366908,4,-8,-1,0,0,0,0,0
3048,1765221367057,5,-10,0,0,0,0,0,0
3049,1765221367291,4,-9,-1,0,0,0,0,0
3050,1765221367390,4,-7,-1,0,0,0,0,0
3051,1765221367573,6,-10,0,0,0,0,0,0
3052,1765221367757,5,-9,0,0,0,0,0,0
3053,1765221368024,5,-9,0,0,0,0,0,0
3054,1765221368108,6,-7,1,0,0,0,0,0
3055,1765221368157,6,-9,-1,0,0,0,0,0
3056,1765221368274,4,-7,0,0,0,0,0,0
3057,1765221368459,5,-8,-1,0,0,0,0,0
3058,1765221368640,4,-8,1,0,0,0,0,0
3059,1765221368908,5,-7,0,0,0,0,0,0
3060,1765221369090,5,-7,0,0,0,0,0,0
3061,1765221369208,4,-8,0,0,0,0,0,0
3062,1765221369624,4,-9,-1,0,0,0,0,0
3063,1765221369725,5,-8,-1,0,0,0,0,0
3064,1765221369923,5,-8,0,0,0,0,0,0
3065,1765221370073,6,-11,1,0,0,0,0,0
3066,1765221370242,2,-6,-2,0,0,0,0,0
3067,1765221370392,6,-9,0,0,0,0,0,0
3068,1765221370609,4,-9,-1,0,0,0,0,0
3069,1765221370658,5,-7,-2,0,0,0,0,0
3070,1765221370792,6,-9,-1,0,0,0,0,0
3071,1765221370958,6,-7,-1,0,0,0,0,0
3072,1765221371108,4,-8,-1,0,0,0,0,0
3073,1765221371491,5,-9,0,0,0,0,0,0
3074,1765221371590,5,-8,-1,0,0,0,0,0
3075,1765221371790,3,-8,-1,0,0,0,0,0
3076,1765221371874,6,-9,0,0,0,0,0,0
3077,1765221372007,4,-9,0,0,0,0,0,0
3078,1765221372225,4,-8,-1,0,0,0,0,0
3079,1765221372325,7,-8,-1,0,0,0,0,0
3080,1765221372440,4,-8,1,0,0,0,0,0
3081,1765221372608,5,-9,0,0,0,0,0,0
3082,1765221372740,4,-9,-1,0,0,0,0,0
3083,1765221372890,5,-9,0,0,0,0,0,0
3084,1765221373241,4,-8,-1,0,0,0,0,0
3085,1765221373440,5,-8,-1,0,0,0,0,0
3086,1765221373541,5,-8,0,0,0,0,0,0
3087,1765221373657,5,-9,1,0,0,0,0,0
3088,1765221373791,6,-8,-1,0,0,0,0,0
3089,1765221373941,4,-8,0,0,0,0,0,0
3090,1765221374141,5,-9,0,0,0,0,0,0
3091,1765221374390,4,-8,1,0,0,0,0,0
3092,1765221374492,4,-8,1,0,0,0,0,0
3093,1765221374675,5,-8,-1,0,0,0,0,0
3094,1765221375208,6,-9,-1,0,0,0,0,0
3095,1765221375275,6,-8,0,0,0,0,0,0
3096,1765221375458,5,-8,0,0,0,0,0,0
3097,1765221375556,5,-8,1,0,0,0,0,0
3098,1765221375639,4,-9,0,0,0,0,0,0
3099,1765221375907,5,-9,-1,0,0,0,0,0
3100,1765221376009,6,-8,0,0,0,0,0,0
3101,1765221376109,7,-9,0,0,0,0,0,0
3102,1765221376291,4,-8,0,0,0,0,0,0
3103,1765221376391,5,-8,1,0,0,0,0,0
3104,1765221376592,2,-9,-1,0,0,0,0,0
3105,1765221376807,5,-9,0,0,0,0,0,0
3106,1765221377024,4,-8,-1,0,0,0,0,0
3107,1765221377157,5,-7,1,0,0,0,0,0
3108,1765221377292,6,-9,0,0,0,0,0,0
3109,1765221377357,5,-8,-1,0,0,0,0,0
3110,1765221377573,4,-8,-1,0,0,0,0,0
3111,1765221377659,5,-9,1,0,0,0,0,0
3112,1765221377891,4,-8,0,0,0,0,0,0
3113,1765221378056,3,-9,0,0,0,0,0,0
3114,1765221378173,4,-7,0,0,0,0,0,0
3115,1765221378357,5,-9,0,0,0,0,0,0
3116,1765221378525,6,-9,0,0,0,0,0,0
3117,1765221378825,3,-9,1,0,0,0,0,0
3118,1765221378924,4,-7,1,0,0,0,0,0
3119,1765221379241,4,-9,-1,0,0,0,0,0
3120,1765221379390,6,-8,1,0,0,0,0,0
3121,1765221379575,5,-6,1,0,0,0,0,0
3122,1765221379941,6,-9,0,0,0,0,0,0
3123,1765221380042,6,-9,1,0,0,0,0,0
3124,1765221380258,2,-7,-1,0,0,0,0,0
3125,1765221380392,3,-8,-1,0,0,0,0,0
3126,1765221380708,5,-7,1,0,0,0,0,0
3127,1765221380841,5,-8,0,0,0,0,0,0
3128,1765221381056,4,-7,0,0,0,0,0,0
3129,1765221381141,6,-8,-1,0,0,0,0,0
3130,1765221381391,3,-8,0,0,0,0,0,0
3131,1765221381526,5,-8,0,0,0,0,0,0
3132,1765221381790,3,-41,1,0,0,0,0,0
3133,1765221381842,11,-52,-1,0,0,0,0,0
3134,1765221382157,8,-60,1,0,0,0,0,0
3135,1765221382324,10,-88,-2,0,0,0,0,0
3136,1765221382541,11,-95,10,0,0,0,0,0
3137,1765221382691,7,-90,-2,0,0,0,0,0
3138,1765221382925,15,-124,11,0,0,0,0,0
3139,1765221383124,2,-132,4,0,0,0,0,0
3140,1765221383242,14,-140,9,0,0,0,0,0
3141,1765221383492,10,-146,21,0,0,0,0,0
3142,1765221383642,15,-208,12,0,0,0,0,0
3143,1765221383958,8,-216,8,0,0,0,0,0
3144,1765221384126,15,-222,24,0,0,0,0,0
3145,1765221384325,23,-291,38,0,0,0,0,0
3146,1765221384410,25,-306,19,0,0,0,0,0
3147,1765221384643,31,-315,5,0,0,0,0,0
3148,1765221385007,38,-310,12,0,0,0,0,0
3149,1765221385142,28,-316,27,0,0,0,0,0
3150,1765221385374,12,-298,12,0,0,0,0,0
3151,1765221385458,17,-350,29,0,0,0,0,0
3152,1765221385674,-1,-367,17,0,0,0,0,0
3153,1765221385757,-7,-371,37,0,0,0,0,0
3154,1765221386124,10,-392,31,0,0,0,0,0
3155,1765221386174,110,-429,54,0,0,0,0,0
3156,1765221386408,46,-401,20,0,0,0,0,0
3157,1765221386493,59,-410,55,0,0,0,0,0
3158,1765221386757,41,-400,35,0,0,0,0,0
3159,1765221386891,43,-417,76,0,0,0,0,0
3160,1765221387158,14,-438,20,0,0,0,0,0
3161,1765221387306,31,-437,50,0,0,0,0,0
3162,1765221387558,36,-438,-5,0,0,0,0,0
3163,1765221387607,20,-431,26,0,0,0,0,0
3164,1765221387891,11,-466,-2,0,0,0,0,0
3165,1765221388040,12,-485,-6,0,0,0,0,0
3166,1765221388257,47,-506,3,0,0,0,0,0
3167,1765221388341,28,-471,4,0,0,0,0,0
3168,1765221388573,77,-471,21,0,0,0,0,0
3169,1765221388807,-44,-473,3,0,0,0,0,0
3170,1765221389023,87,-480,91,0,0,0,0,0
3171,1765221389174,99,-403,53,0,0,0,0,0
3172,1765221389408,-34,-279,13,0,0,0,0,0
3173,1765221389590,70,-312,72,0,0,0,0,0
3174,1765221389741,-63,-368,-5,0,0,0,0,0
3175,1765221389807,-69,-214,18,0,0,0,0,0
3176,1765221389940,12,-213,37,0,0,0,0,0
3177,1765221390107,24,-152,-34,0,0,0,0,0
3178,1765221390424,-109,-484,0,0,0,0,0,0
3179,1765221390574,6,-332,4,0,0,0,0,0
3180,1765221390741,32,-359,23,0,0,0,0,0
3181,1765221390858,1,-393,39,0,0,0,0,0
3182,1765221391074,3,-480,31,0,0,0,0,0
3183,1765221391291,52,-449,50,0,0,0,0,0
3184,1765221391490,29,-411,78,0,0,0,0,0
3185,1765221391591,34,-333,54,0,0,0,0,0
3186,1765221391857,66,-168,52,0,0,0,0,0
3187,1765221392057,-20,-119,45,0,0,0,0,0
3188,1765221392274,27,-83,-37,0,0,0,0,0
3189,1765221392356,20,53,-1,0,0,0,0,0
3190,1765221392440,8,22,23,0,0,0,0,0
3191,1765221392658,93,56,-22,0,0,0,0,0
3192,1765221392840,52,66,-21,0,0,0,0,0
3193,1765221393091,-27,176,11,0,0,0,0,0
3194,1765221393241,-12,147,-7,0,0,0,0,0
3195,1765221393390,13,168,-17,0,0,0,0,0
3196,1765221393841,27,161,-43,0,0,0,0,0
3197,1765221394057,12,181,-35,0,0,0,0,0
3198,1765221394125,37,169,-2,0,0,0,0,0
3199,1765221394390,-13,114,62,0,0,0,0,0
3200,1765221394541,38,147,-54,0,0,0,0,0
3201,1765221394791,114,46,-40,0,0,0,0,0
3202,1765221394940,20,-47,-103,0,0,0,0,0
3203,1765221395207,93,-21,149,0,0,0,0,0
3204,1765221395423,58,-3,-104,0,0,0,0,0
3205,1765221395657,34,2367,16434,0,0,0,0,0
3206,1765221395841,-1,32,0,0,0,0,0,0
3207,1765221395990,11,68,-51,0,0,0,0,0
3208,1765221396257,74,24,-31,0,0,0,0,0
3209,1765221396357,-35,38,-40,0,0,0,0,0
3210,1765221396606,5,14,-48,0,0,0,0,0
3211,1765221397057,59,-161,-39,0,0,0,0,0
3212,1765221397207,-10,-143,-51,0,0,0,0,0
3213,1765221397358,37,-142,20,0,0,0,0,0
3214,1765221397440,2,-193,239,0,0,0,0,0
3215,1765221397524,114,-195,18,0,0,0,0,0
3216,1765221397772,14,-156,39,0,0,0,0,0
3217,1765221397957,12,-175,12,0,0,0,0,0
3218,1765221398158,21,-114,87,0,0,0,0,0
3219,1765221398257,-43,-80,-72,0,0,0,0,0
3220,1765221398507,-45,9,-43,0,0,0,0,0
3221,1765221398740,84,6,112,0,0,0,0,0
3222,1765221398891,14,24,55,0,0,0,0,0
3223,1765221399074,-35,15,-37,0,0,0,0,0
3224,1765221399190,106,28,89,0,0,0,0,0
3225,1765221399274,22,198,-26,0,0,0,0,0
3226,1765221399423,48,151,-24,0,0,0,0,0
3227,1765221399607,-36,210,-67,0,0,0,0,0
3228,1765221399774,-63,192,18,0,0,0,0,0
3229,1765221399974,-28,161,36,0,0,0,0,0
3230,1765221400024,-28,181,-48,0,0,0,0,0
3231,1765221400341,2,202,-35,0,0,0,0,0
3232,1765221400691,89,145,-24,0,0,0,0,0
3233,1765221400774,-103,149,-11,0,0,0,0,0
3234,1765221401007,18,132,-11,0,0,0,0,0
3235,1765221401141,11,185,-26,0,0,0,0,0
3236,1765221401357,27,25,9,0,0,0,0,0
3237,1765221401440,-5,25,-35,0,0,0,0,0
3238,1765221401688,-47,9,-45,0,0,0,0,0
3239,1765221401824,17,-217,9,0,0,0,0,0
3240,1765221402124,-10,-219,-6,0,0,0,0,0
3241,1765221402189,6,-257,28,0,0,0,0,0
3242,1765221402555,-49,-187,32,0,0,0,0,0
3243,1765221402740,16,-163,-24,0,0,0,0,0
3244,1765221402890,35,-156,21,0,0,0,0,0
3245,1765221403240,14,95,-30,0,0,0,0,0
3246,1765221403307,-12,102,24,0,0,0,0,0
3247,1765221403624,37,138,-8,0,0,0,0,0
3248,1765221403741,-4,179,-5,0,0,0,0,0
3249,1765221403940,-9,184,-12,0,0,0,0,0
3250,1765221404038,-4,188,-23,0,0,0,0,0
3251,1765221404441,-6,169,-15,0,0,0,0,0
3252,1765221404573,42,150,2,0,0,0,0,0
3253,1765221404724,-5,170,-4,0,0,0,0,0
3254,1765221404874,-21,157,-12,0,0,0,0,0
3255,1765221405007,15,155,-20,0,0,0,0,0
3256,1765221405175,7,138,-2,0,0,0,0,0
3257,1765221405457,24,142,-9,0,0,0,0,0
3258,1765221405607,20,75,-30,0,0,0,0,0
3259,1765221405890,3,51,-41,0,0,0,0,0
3260,1765221406023,12,45,-1,0,0,0,0,0
3261,1765221406340,-11,-118,10,0,0,0,0,0
3262,1765221406457,26,-167,-14,0,0,0,0,0
3263,1765221406641,16,-204,-14,0,0,0,0,0
3264,1765221407022,-3,-304,0,0,0,0,0,0
3265,1765221407140,48,-299,5,0,0,0,0,0
3266,1765221407506,29,-181,50,0,0,0,0,0
3267,1765221407624,-249,-276,17,0,0,0,0,0
3268,1765221407911,14,-203,-5,0,0,0,0,0
3269,1765221407990,26,-162,9,0,0,0,0,0
3270,1765221408173,24,-76,-4,0,0,0,0,0
3271,1765221408274,1,-117,25,0,0,0,0,0
3272,1765221408657,11,-56,-1,0,0,0,0,0
3273,1765221408874,-5,-38,2,0,0,0,0,0
3274,1765221409006,3,-36,6,0,0,0,0,0
3275,1765221409191,-3,-33,0,0,0,0,0,0
3276,1765221409290,4,-60,1,0,0,0,0,0
3277,1765221409424,-3,-73,-1,0,0,0,0,0
3278,1765221409624,-10,-77,-3,0,0,0,0,0
3279,1765221409740,-7,-78,-1,0,0,0,0,0
3280,1765221410058,-5,-141,16,0,0,0,0,0
3281,1765221410157,14,-141,-5,0,0,0,0,0
3282,1765221410455,10,-137,-3,0,0,0,0,0
3283,1765221410589,-6,-182,3,0,0,0,0,0
3284,1765221410774,1,-209,8,0,0,0,0,0
3285,1765221410874,14,-209,2,0,0,0,0,0
3286,1765221411073,-5,-214,-35,0,0,0,0,0
