index,date,ACCEL_X,ACCEL_Y,ACCEL_Z
0,1782582316231,0.029999999999999999,0.02,1.01
1,1782582316264,0.029999999999999999,0.02,1.01
2,1782582316380,0.029999999999999999,0.02,1.02
3,1782582316463,0.029999999999999999,0.02,1.02
4,1782582316546,0.029999999999999999,0.02,1.02
5,1782582316580,0.029999999999999999,0.02,1.02
6,1782582316663,0.029999999999999999,0.02,1.01
7,1782582316847,0.029999999999999999,0.02,1.01
8,1782582316896,0.029999999999999999,0.02,1.01
9,1782582316914,0.029999999999999999,0.02,1.01
10,1782582316946,0.029999999999999999,0.02,1.01
11,1782582316964,0.029999999999999999,0.02,1.01
12,1782582317047,0.029999999999999999,0.02,1.02
13,1782582317114,0.029999999999999999,0.02,1.02
14,1782582317196,0.029999999999999999,0.02,1.02
15,1782582317279,0.029999999999999999,0.02,1.02
16,1782582317313,0.029999999999999999,0.02,1.02
17,1782582317397,0.029999999999999999,0.02,1.01
18,1782582317529,0.029999999999999999,0.02,1.01
19,1782582317563,0.029999999999999999,0.02,1.01
20,1782582317629,0.029999999999999999,0.02,1.01
21,1782582317662,0.029999999999999999,0.02,1.01
22,1782582317729,0.029999999999999999,0.02,1.01
23,1782582317763,0.029999999999999999,0.02,1.01
24,1782582317829,0.029999999999999999,0.02,1.01
25,1782582317879,0.02,0.02,1.01
26,1782582317962,0.02,0.02,1.01
27,1782582318029,0.029999999999999999,0.02,1.01
28,1782582318095,0.029999999999999999,0.02,1.01
29,1782582318129,0.029999999999999999,0.02,1.01
30,1782582318179,0.029999999999999999,0.02,1.01
31,1782582318228,0.029999999999999999,0.02,1.01
32,1782582318345,0.02,0.02,1.02
33,1782582318395,0.02,0.02,1.02
34,1782582318462,0.029999999999999999,0.02,1.02
35,1782582318512,0.029999999999999999,0.02,1.01
36,1782582318645,0.029999999999999999,0.02,1.01
37,1782582318678,0.029999999999999999,0.02,1.01
38,1782582318779,0.02,0.02,1.01
39,1782582318828,0.02,0.02,1.01
40,1782582318878,0.02,0.02,1.01
41,1782582318911,0.02,0.02,1.01
42,1782582318961,0.02,0.02,1.01
43,1782582319045,0.029999999999999999,0.02,1.01
44,1782582319079,0.029999999999999999,0.02,1.01
45,1782582319127,0.029999999999999999,0.02,1.01
46,1782582319194,0.029999999999999999,0.02,1.01
47,1782582319227,0.029999999999999999,0.02,1.01
48,1782582319261,0.029999999999999999,0.02,1.01
49,1782582319378,0.029999999999999999,0.02,1.01
50,1782582319428,0.029999999999999999,0.02,1.01
51,1782582319478,0.029999999999999999,0.02,1.01
52,1782582319561,0.029999999999999999,0.02,1.01
53,1782582319678,0.029999999999999999,0.02,1.01
54,1782582319727,0.029999999999999999,0.02,1.01
55,1782582319777,0.029999999999999999,0.02,1.02
56,1782582319827,0.029999999999999999,0.02,1.02
57,1782582319910,0.029999999999999999,0.02,1.02
58,1782582319927,0.029999999999999999,0.02,1.02
59,1782582319944,0.029999999999999999,0.02,1.02
60,1782582320077,0.029999999999999999,0.02,1.01
61,1782582320127,0.029999999999999999,0.02,1.01
62,1782582320177,0.029999999999999999,0.02,1.01
63,1782582320193,0.029999999999999999,0.02,1.01
64,1782582320227,0.029999999999999999,0.02,1.01
65,1782582320244,0.029999999999999999,0.02,1.02
66,1782582320260,0.029999999999999999,0.02,1.02
67,1782582320310,0.029999999999999999,0.02,1.02
68,1782582320443,0.029999999999999999,0.02,1.01
69,1782582320511,0.029999999999999999,0.02,1.01
70,1782582320560,0.029999999999999999,0.02,1.01
71,1782582320577,0.029999999999999999,0.02,1.01
72,1782582320610,0.029999999999999999,0.02,1.01
73,1782582320644,0.029999999999999999,0.02,1.01
74,1782582320710,0.029999999999999999,0.02,1.01
75,1782582320760,0.029999999999999999,0.02,1.01
76,1782582320810,0.029999999999999999,0.02,1.01
77,1782582320843,0.029999999999999999,0.02,1.01
78,1782582320976,0.029999999999999999,0.02,1.02
79,1782582321026,0.029999999999999999,0.02,1.02
80,1782582321093,0.029999999999999999,0.02,1.02
81,1782582321143,0.02,0.02,1.02
82,1782582321193,0.029999999999999999,0.02,1.01
83,1782582321310,0.029999999999999999,0.02,1.01
84,1782582321359,0.029999999999999999,0.02,1.01
85,1782582321359,0.029999999999999999,0.02,1.01
86,1782582321426,0.029999999999999999,0.02,1.01
87,1782582321459,0.029999999999999999,0.02,1.01
88,1782582321526,0.029999999999999999,0.02,1.01
89,1782582321559,0.029999999999999999,0.02,1.02
90,1782582321576,0.029999999999999999,0.02,1.02
91,1782582321692,0.029999999999999999,0.02,1.01
92,1782582321743,0.029999999999999999,0.02,1.01
93,1782582321792,0.029999999999999999,0.02,1.01
94,1782582321843,0.029999999999999999,0.02,1.01
95,1782582321876,0.029999999999999999,0.02,1.01
96,1782582321893,0.029999999999999999,0.02,1.01
97,1782582321909,0.02,0.02,1.02
98,1782582322042,0.02,0.02,1.02
99,1782582322125,0.02,0.02,1.02
100,1782582322158,0.029999999999999999,0.02,1.01
101,1782582322209,0.029999999999999999,0.02,1.01
102,1782582322259,0.029999999999999999,0.02,1.01
103,1782582322375,0.029999999999999999,0.02,1.01
104,1782582322408,0.029999999999999999,0.02,1.01
105,1782582322442,0.029999999999999999,0.02,1.01
106,1782582322459,0.029999999999999999,0.02,1.01
107,1782582322475,0.029999999999999999,0.02,1.01
108,1782582322525,0.029999999999999999,0.02,1.01
109,1782582322558,0.029999999999999999,0.02,1.01
110,1782582322608,0.029999999999999999,0.02,1.01
111,1782582322658,0.029999999999999999,0.02,1.01
112,1782582322725,0.029999999999999999,0.02,1.01
113,1782582322858,0.029999999999999999,0.02,1.01
114,1782582322924,0.029999999999999999,0.02,1.01
115,1782582323024,0.029999999999999999,0.02,1.01
116,1782582323041,0.029999999999999999,0.02,1.01
117,1782582323075,0.029999999999999999,0.02,1.01
118,1782582323124,0.029999999999999999,0.02,1.01
119,1782582323175,0.029999999999999999,0.02,1.02
120,1782582323242,0.029999999999999999,0.02,1.02
121,1782582323307,0.029999999999999999,0.02,1.02
122,1782582323374,0.029999999999999999,0.02,1.01
123,1782582323424,0.029999999999999999,0.02,1.01
124,1782582323475,0.029999999999999999,0.02,1.01
125,1782582323557,0.029999999999999999,0.02,1.01
126,1782582323625,0.029999999999999999,0.02,1.01
127,1782582323658,0.029999999999999999,0.02,1.01
128,1782582323741,0.029999999999999999,0.02,1.01
129,1782582323807,0.029999999999999999,0.02,1.01
130,1782582323924,0.029999999999999999,0.02,1.01
131,1782582323940,0.029999999999999999,0.02,1.01
132,1782582324040,0.029999999999999999,0.02,1.01
133,1782582324108,0.029999999999999999,0.02,1.02
134,1782582324124,0.029999999999999999,0.02,1.02
135,1782582324157,0.029999999999999999,0.02,1.02
136,1782582324207,0.029999999999999999,0.02,1.02
137,1782582324257,0.029999999999999999,0.02,1.02
138,1782582324274,0.029999999999999999,0.02,1.01
139,1782582324390,0.029999999999999999,0.02,1.01
140,1782582324456,0.029999999999999999,0.02,1.01
141,1782582324573,0.029999999999999999,0.02,1.01
142,1782582324641,0.02,0.02,1.01
143,1782582324706,0.02,0.02,1.01
144,1782582324840,0.029999999999999999,0.02,1.02
145,1782582324890,0.029999999999999999,0.02,1.01
146,1782582324956,0.029999999999999999,0.02,1.01
147,1782582324990,0.029999999999999999,0.02,1.01
148,1782582325056,0.029999999999999999,0.02,1.01
149,1782582325122,0.029999999999999999,0.02,1.01
150,1782582325172,0.02,0.02,1.02
151,1782582325206,0.02,0.02,1.02
152,1782582325256,0.029999999999999999,0.02,1.02
153,1782582325323,0.029999999999999999,0.02,1.01
154,1782582325356,0.029999999999999999,0.01,1.01
155,1782582325389,0.029999999999999999,0.01,1.01
156,1782582325440,0.029999999999999999,0.01,1.01
157,1782582325506,0.029999999999999999,0.01,1.01
158,1782582325572,0.029999999999999999,0.01,1.01
159,1782582325656,0.02,0.02,1.02
160,1782582325672,0.02,0.02,1.02
161,1782582325723,0.02,0.02,1.02
162,1782582325755,0.02,0.02,1.02
163,1782582325823,0.02,0.02,1.02
164,1782582325905,0.029999999999999999,0.02,1.01
165,1782582326022,0.029999999999999999,0.02,1.01
166,1782582326072,0.029999999999999999,0.02,1.01
167,1782582326105,0.029999999999999999,0.02,1.01
168,1782582326122,0.029999999999999999,0.02,1.01
169,1782582326155,0.029999999999999999,0.02,1.01
170,1782582326206,0.029999999999999999,0.02,1.02
171,1782582326272,0.029999999999999999,0.02,1.02
172,1782582326406,0.029999999999999999,0.02,1.02
173,1782582326422,0.029999999999999999,0.02,1.01
174,1782582326488,0.029999999999999999,0.02,1.01
175,1782582326572,0.029999999999999999,0.02,1.01
176,1782582326605,0.029999999999999999,0.02,1.01
177,1782582328853,0.02,0.02,1
178,1782582328886,0.02,0.02,1.02
179,1782582328953,0.029999999999999999,0.02,1.03
180,1782582329003,0.029999999999999999,0.02,1.03
181,1782582329069,0.029999999999999999,0.02,1.03
182,1782582329203,0.02,0.029999999999999999,1.01
183,1782582329219,0.02,0.029999999999999999,1.01
184,1782582329253,0.029999999999999999,0.029999999999999999,1.01
185,1782582329270,0.029999999999999999,0.02,1.02
186,1782582329286,0.029999999999999999,0.02,1.02
187,1782582329319,0.029999999999999999,0.02,1.02
188,1782582329369,0.029999999999999999,0.02,1
189,1782582329436,0.02,0.02,1
190,1782582329502,0.02,0.02,1
191,1782582329536,0.029999999999999999,0.02,1.01
192,1782582329586,0.029999999999999999,0.01,1.01
193,1782582329652,0.040000000000000001,0.01,1.01
194,1782582329685,0.040000000000000001,0,0.98999999999999999
195,1782582329752,0.040000000000000001,0,0.98999999999999999
196,1782582329802,0.040000000000000001,0,0.96999999999999997
197,1782582329869,0.040000000000000001,0.02,0.96999999999999997
198,1782582329952,0.01,0.029999999999999999,1.01
199,1782582330002,0.02,0.029999999999999999,1.01
200,1782582330052,0.02,0.029999999999999999,1.01
201,1782582330069,0.02,0.02,1.01
202,1782582330085,0.02,0.02,1.01
203,1782582330119,0.02,0.02,1.01
204,1782582330135,0.02,0.02,1.01
205,1782582330185,0.02,0.02,1.01
206,1782582330236,0.029999999999999999,0.01,1
207,1782582330302,0.029999999999999999,0.01,1
208,1782582330352,0.029999999999999999,0.01,1.02
209,1782582330501,0.029999999999999999,0.02,1.02
210,1782582330568,0.029999999999999999,0.029999999999999999,1.02
211,1782582330601,0.029999999999999999,0.029999999999999999,1.01
212,1782582330668,0.029999999999999999,0.02,1.01
213,1782582330718,0.029999999999999999,0.02,1.01
214,1782582330768,0.029999999999999999,0.02,1.01
215,1782582330818,0.029999999999999999,0.02,1.02
216,1782582330834,0.029999999999999999,0.02,1.02
217,1782582330868,0.029999999999999999,0.01,1.02
218,1782582330885,0.029999999999999999,0.01,1.02
219,1782582330951,0.02,0.02,1.01
220,1782582330967,0.02,0.02,1.01
221,1782582330985,0.02,0.02,1.01
222,1782582331018,0.02,0.02,1.01
223,1782582331034,0.02,0.02,1.01
224,1782582331085,0.02,0.02,1.01
225,1782582331151,0.02,0.02,1.01
226,1782582331251,0.029999999999999999,0.02,1.02
227,1782582331318,0.029999999999999999,0.02,1.02
228,1782582331351,0.029999999999999999,0.02,1.02
229,1782582331418,0.029999999999999999,0.02,1.02
230,1782582331450,0.029999999999999999,0.02,1.01
231,1782582331517,0.029999999999999999,0.02,1.01
232,1782582331568,0.029999999999999999,0.01,1
233,1782582331668,0.029999999999999999,0.02,1.02
234,1782582331717,0.02,0.02,1.02
235,1782582331734,0.02,0.02,1.02
236,1782582331767,0.02,0.02,1.02
237,1782582331817,0.02,0.02,1.01
238,1782582331850,0.02,0.02,1.01
239,1782582331900,0.029999999999999999,0.02,1.01
240,1782582331950,0.029999999999999999,0.02,1.01
241,1782582331967,0.040000000000000001,0.02,1.02
242,1782582332000,0.040000000000000001,0.02,1.01
243,1782582332018,0.029999999999999999,0.02,1.01
244,1782582332067,0.029999999999999999,0.02,1.01
245,1782582332117,0.029999999999999999,0.02,1.01
246,1782582332183,0.029999999999999999,0.02,1.01
247,1782582332250,0.029999999999999999,0.02,1.01
248,1782582332300,0.029999999999999999,0.02,1.02
249,1782582332350,0.029999999999999999,0.02,1.02
250,1782582332417,0.029999999999999999,0.02,1.02
251,1782582332450,0.029999999999999999,0.02,1.02
252,1782582332500,-0.54000000000000004,0.37,-0.34000000000000002
253,1782582366172,0.029999999999999999,0.02,1.01
254,1782582366205,0.029999999999999999,0.02,1.01
255,1782582366272,0.029999999999999999,0.02,1.01
256,1782582366321,0.029999999999999999,0.02,1.01
257,1782582366388,0.029999999999999999,0.02,1.01
258,1782582366521,0.029999999999999999,0.02,1.02
259,1782582366538,0.029999999999999999,0.02,1.01
260,1782582366571,0.029999999999999999,0.02,1
261,1782582366588,0.029999999999999999,0.02,1.01
262,1782582366605,0.029999999999999999,0.02,1.01
263,1782582366638,0.029999999999999999,0.02,1.01
264,1782582366704,0.029999999999999999,0.02,1.01
265,1782582366771,0.029999999999999999,0.02,1.01
266,1782582366788,0.029999999999999999,0.02,1.01
267,1782582366888,0.029999999999999999,0.02,1.01
268,1782582366955,0.029999999999999999,0.02,1.01
269,1782582366987,0.029999999999999999,0.02,1.01
270,1782582367054,0.029999999999999999,0.02,1.01
271,1782582367120,0.029999999999999999,0.02,1.01
272,1782582367188,0.029999999999999999,0.02,1.01
273,1782582367271,0.029999999999999999,0.02,1.01
274,1782582367304,0.029999999999999999,0.02,1.01
275,1782582367355,0.029999999999999999,0.02,1.01
276,1782582367371,0.029999999999999999,0.02,1.01
277,1782582367404,0.029999999999999999,0.02,1.01
278,1782582367420,0.029999999999999999,0.02,1.01
279,1782582367437,0.029999999999999999,0.02,1.01
280,1782582367504,0.029999999999999999,0.02,1.01
281,1782582367604,0.029999999999999999,0.02,1.02
282,1782582367670,0.029999999999999999,0.02,1.02
283,1782582367804,0.029999999999999999,0.02,1.01
284,1782582367870,0.029999999999999999,0.02,1.01
285,1782582367937,0.029999999999999999,0.02,1.01
286,1782582367987,0.029999999999999999,0.02,1.01
287,1782582368037,0.02,0.02,1.01
288,1782582368086,0.02,0.02,1.01
289,1782582368136,0.02,0.02,1.01
290,1782582368154,0.02,0.02,1.02
291,1782582368186,0.02,0.02,1.02
292,1782582368203,0.02,0.01,1.02
293,1782582368270,0.029999999999999999,0.02,1.01
294,1782582368286,0.029999999999999999,0.02,1.01
295,1782582368320,0.029999999999999999,0.02,1.01
296,1782582368336,0.029999999999999999,0.02,1.01
297,1782582368353,0.029999999999999999,0.02,1.01
298,1782582368420,0.029999999999999999,0.02,1.02
299,1782582368470,0.029999999999999999,0.02,1.02
300,1782582368570,0.029999999999999999,0.02,1.02
301,1782582368636,0.029999999999999999,0.02,1.01
302,1782582368670,0.029999999999999999,0.02,1.01
303,1782582368736,0.029999999999999999,0.02,1.02
304,1782582368770,0.029999999999999999,0.02,1.02
305,1782582368886,0.029999999999999999,0.02,1.02
306,1782582369002,0.029999999999999999,0.02,1.01
307,1782582369036,0.029999999999999999,0.02,1.01
308,1782582369053,0.029999999999999999,0.02,1.01
309,1782582369086,0.029999999999999999,0.02,1.02
310,1782582369136,0.029999999999999999,0.02,1.02
311,1782582369169,0.029999999999999999,0.02,1.02
312,1782582369220,0.029999999999999999,0.02,1.02
313,1782582369269,0.029999999999999999,0.02,1.02
314,1782582369286,0.029999999999999999,0.02,1.01
315,1782582369319,0.029999999999999999,0.02,1.01
316,1782582369336,0.029999999999999999,0.02,1.01
317,1782582369385,0.029999999999999999,0.02,1.01
318,1782582369452,0.029999999999999999,0.02,1.01
319,1782582369503,0.029999999999999999,0.02,1.01
320,1782582369586,0.029999999999999999,0.02,1.01
321,1782582369602,0.029999999999999999,0.02,1.01
322,1782582369669,0.029999999999999999,0.02,1.01
323,1782582369735,0.029999999999999999,0.02,1.01
324,1782582369769,0.029999999999999999,0.02,1.01
325,1782582369819,0.029999999999999999,0.02,1.01
326,1782582369902,0.029999999999999999,0.02,1.01
327,1782582369902,0.029999999999999999,0.02,1.01
328,1782582369935,0.029999999999999999,0.02,1.01
329,1782582370002,0.029999999999999999,0.02,1.01
330,1782582370051,0.029999999999999999,0.02,1.01
331,1782582370102,0.029999999999999999,0.02,1.01
332,1782582370185,0.029999999999999999,0.02,1.01
333,1782582370235,0.029999999999999999,0.02,1.01
334,1782582370269,0.029999999999999999,0.02,1.01
335,1782582370285,0.029999999999999999,0.02,1.01
336,1782582370368,0.029999999999999999,0.02,1.01
337,1782582370418,0.029999999999999999,0.02,1.02
338,1782582370518,0.029999999999999999,0.02,1.02
339,1782582370585,0.029999999999999999,0.02,1.02
340,1782582370601,0.02,0.02,1.01
341,1782582370618,0.02,0.02,1.01
342,1782582370651,0.02,0.02,1.01
343,1782582370668,0.02,0.02,1.01
344,1782582370735,0.029999999999999999,0.02,1.01
345,1782582370834,0.029999999999999999,0.02,1.01
346,1782582370868,0.029999999999999999,0.02,1.01
347,1782582370935,0.029999999999999999,0.02,1.01
348,1782582370968,0.029999999999999999,0.02,1.02
349,1782582370984,0.029999999999999999,0.02,1.02
350,1782582371051,0.029999999999999999,0.02,1.02
351,1782582371117,0.029999999999999999,0.02,1.01
352,1782582371217,0.029999999999999999,0.02,1.01
353,1782582371251,0.029999999999999999,0.02,1.01
354,1782582371301,0.029999999999999999,0.02,1.01
355,1782582371367,0.029999999999999999,0.02,1.01
356,1782582371433,0.029999999999999999,0.02,1.01
357,1782582371467,0.029999999999999999,0.02,1.01
358,1782582371567,0.029999999999999999,0.02,1.01
359,1782582371650,0.029999999999999999,0.02,1.01
360,1782582371667,0.029999999999999999,0.02,1.01
361,1782582371783,0.029999999999999999,0.02,1.01
362,1782582371850,0.029999999999999999,0.02,1.02
363,1782582371884,0.029999999999999999,0.02,1.01
364,1782582371933,0.029999999999999999,0.02,1.01
365,1782582372000,0.029999999999999999,0.02,1.01
366,1782582372017,0.029999999999999999,0.02,1.01
367,1782582372034,0.029999999999999999,0.02,1.01
368,1782582372050,0.029999999999999999,0.02,1.01
369,1782582372083,0.029999999999999999,0.02,1.01
370,1782582372117,0.029999999999999999,0.02,1.01
371,1782582372183,0.029999999999999999,0.02,1.01
372,1782582372216,0.029999999999999999,0.02,1.01
373,1782582372267,0.029999999999999999,0.02,1.01
374,1782582372333,0.029999999999999999,0.02,1.01
375,1782582372367,0.029999999999999999,0.02,1.02
376,1782582372400,0.029999999999999999,0.02,1.02
377,1782582372466,0.029999999999999999,0.02,1.02
378,1782582372533,0.029999999999999999,0.02,1.01
379,1782582372600,0.029999999999999999,0.02,1.01
380,1782582372633,0.029999999999999999,0.02,1.01
381,1782582372666,0.029999999999999999,0.02,1.01
382,1782582372683,0.029999999999999999,0.02,1.01
383,1782582372717,0.029999999999999999,0.02,1.01
384,1782582372733,0.029999999999999999,0.02,1.01
385,1782582372766,0.029999999999999999,0.02,1.01
386,1782582372816,0.029999999999999999,0.02,1.01
387,1782582372899,0.029999999999999999,0.02,1.01
388,1782582373149,0.029999999999999999,0.02,1.02
389,1782582373215,0.029999999999999999,0.02,1.02
390,1782582373249,0.029999999999999999,0.02,1.02
391,1782582373332,0.029999999999999999,0.02,1.01
392,1782582373399,0.029999999999999999,0.02,1.01
393,1782582373432,0.029999999999999999,0.02,1.01
394,1782582373515,0.029999999999999999,0.02,1.01
395,1782582373549,0.029999999999999999,0.02,1.01
396,1782582373699,0.029999999999999999,0.02,1.01
397,1782582373748,0.029999999999999999,0.02,1.01
398,1782582373832,0.029999999999999999,0.02,1.01
399,1782582373865,0.029999999999999999,0.02,1.01
400,1782582373882,0.029999999999999999,0.02,1.01
401,1782582373915,0.029999999999999999,0.02,1.01
402,1782582374082,0.029999999999999999,0.02,1.01
403,1782582374115,0.029999999999999999,0.02,1.01
404,1782582374198,0.029999999999999999,0.02,1.01
405,1782582374249,0.029999999999999999,0.02,1.01
406,1782582374331,0.029999999999999999,0.02,1.01
407,1782582374381,0.029999999999999999,0.02,1.01
408,1782582374448,0.029999999999999999,0.02,1.01
409,1782582374482,0.029999999999999999,0.02,1.01
410,1782582374482,0.029999999999999999,0.02,1.01
411,1782582374565,0.029999999999999999,0.02,1.01
412,1782582374648,0.029999999999999999,0.02,1.01
413,1782582374698,0.029999999999999999,0.02,1.01
414,1782582374731,0.029999999999999999,0.02,1.01
415,1782582374748,0.029999999999999999,0.02,1.01
416,1782582374831,0.029999999999999999,0.02,1.01
417,1782582374897,0.029999999999999999,0.02,1.01
418,1782582374964,0.029999999999999999,0.02,1.01
419,1782582375014,0.029999999999999999,0.02,1.01
420,1782582375081,0.029999999999999999,0.02,1.02
421,1782582375115,0.029999999999999999,0.02,1.02
422,1782582375164,0.029999999999999999,0.02,1.02
423,1782582375214,0.029999999999999999,0.02,1.02
424,1782582375280,0.029999999999999999,0.02,1.01
425,1782582375297,0.029999999999999999,0.02,1.01
426,1782582375330,0.029999999999999999,0.02,1.01
427,1782582375347,0.02,0.02,1.02
428,1782582375414,0.02,0.02,1.01
429,1782582375497,0.029999999999999999,0.02,1.02
430,1782582375665,0.029999999999999999,0.02,1.01
431,1782582375730,0.029999999999999999,0.02,1.02
432,1782582375780,0.029999999999999999,0.02,1.01
433,1782582375830,0.029999999999999999,0.02,1.01
434,1782582375930,0.029999999999999999,0.02,1.02
435,1782582375980,0.029999999999999999,0.02,1.02
436,1782582376030,0.029999999999999999,0.02,1.02
437,1782582376097,0.02,0.02,1.01
438,1782582376164,0.029999999999999999,0.02,1.01
439,1782582376213,0.029999999999999999,0.02,1.01
440,1782582376296,0.029999999999999999,0.02,1.01
441,1782582376346,0.029999999999999999,0.02,1.01
442,1782582376380,0.029999999999999999,0.02,1.02
443,1782582376546,0.029999999999999999,0.01,1.01
444,1782582376613,0.029999999999999999,0.01,1.01
445,1782582376663,0.029999999999999999,0.02,1.01
446,1782582376713,0.029999999999999999,0.02,1.01
447,1782582376763,0.029999999999999999,0.02,1.02
448,1782582376813,0.02,0.02,1.01
449,1782582376862,0.029999999999999999,0.02,1.01
450,1782582376913,0.029999999999999999,0.02,1.01
451,1782582376962,0.029999999999999999,0.02,1.01
452,1782582377012,0.029999999999999999,0.02,1.01
453,1782582377096,0.029999999999999999,0.02,1.02
454,1782582377129,0.029999999999999999,0.02,1.01
455,1782582377179,0.029999999999999999,0.02,1.01
456,1782582377229,0.029999999999999999,0.02,1.01
457,1782582377313,0.029999999999999999,0.02,1.01
458,1782582377362,0.029999999999999999,0.02,1.01
459,1782582377396,0.029999999999999999,0.02,1.01
460,1782582377462,0.029999999999999999,0.02,1.01
461,1782582377545,0.029999999999999999,0.02,1.01
462,1782582377612,0.029999999999999999,0.02,1.01
463,1782582377645,0.029999999999999999,0.02,1.01
464,1782582377662,0.029999999999999999,0.02,1.01
465,1782582377762,0.029999999999999999,0.02,1.02
466,1782582377812,0.029999999999999999,0.02,1.02
467,1782582377862,0.029999999999999999,0.02,1.02
468,1782582377912,0.029999999999999999,0.02,1.01
469,1782582378012,0.029999999999999999,0.02,1.02
470,1782582378029,0.02,0.02,1.02
471,1782582378045,0.02,0.02,1.02
472,1782582378078,0.029999999999999999,0.02,1.02
473,1782582378128,0.029999999999999999,0.02,1.01
474,1782582378195,0.029999999999999999,0.02,1.01
475,1782582378245,0.029999999999999999,0.02,1.01
476,1782582378261,0.029999999999999999,0.02,1.01
477,1782582378361,0.029999999999999999,0.02,1.01
478,1782582378411,0.029999999999999999,0.02,1.01
479,1782582378428,0.029999999999999999,0.02,1.01
480,1782582378494,0.029999999999999999,0.02,1.01
481,1782582378578,0.029999999999999999,0.02,1.01
482,1782582378628,0.029999999999999999,0.02,1.01
483,1782582378695,0.02,0.02,1.01
484,1782582378711,0.02,0.02,1.01
485,1782582378778,0.02,0.02,1.01
486,1782582378878,0.02,0.02,1.01
487,1782582378911,0.02,0.02,1.02
488,1782582378961,0.02,0.02,1.02
489,1782582379011,0.029999999999999999,0.02,1.01
490,1782582379061,0.029999999999999999,0.02,1.01
491,1782582379128,0.029999999999999999,0.02,1.01
492,1782582379177,0.029999999999999999,0.02,1.1499999999999999
493,1782582379210,0.029999999999999999,0.02,1.01
494,1782582379244,0.029999999999999999,0.02,1.02
495,1782582379261,0.029999999999999999,0.02,1.02
496,1782582379277,0.029999999999999999,0.02,1.02
497,1782582379310,0.029999999999999999,0.02,1.02
498,1782582379344,0.02,0.02,1.01
499,1782582379361,0.02,0.02,1.01
500,1782582379394,0.02,0.02,1.01
501,1782582379444,0.02,0.02,1.01
502,1782582379477,0.02,0.02,1.01
503,1782582379510,0.02,0.02,1.01
504,1782582379694,0.029999999999999999,0.02,1.01
505,1782582379743,0.029999999999999999,0.02,1.02
506,1782582379760,0.029999999999999999,0.02,1.02
507,1782582379794,0.029999999999999999,0.02,1.02
508,1782582379810,0.029999999999999999,0.02,1.02
509,1782582379860,0.029999999999999999,0.02,1.02
510,1782582379893,0.029999999999999999,0.02,1.02
511,1782582379926,0.029999999999999999,0.02,1.02
512,1782582379960,0.029999999999999999,0.02,1.02
513,1782582379994,0.029999999999999999,0.02,1.01
514,1782582380027,0.029999999999999999,0.02,1.01
515,1782582380077,0.029999999999999999,0.02,1.01
516,1782582380160,0.02,0.02,1.01
517,1782582380210,0.029999999999999999,0.02,1.01
518,1782582380277,0.029999999999999999,0.02,1.01
519,1782582380293,0.029999999999999999,0.02,1.01
520,1782582380343,0.029999999999999999,0.02,1.01
521,1782582380409,0.029999999999999999,0.02,1.01
522,1782582380443,0.029999999999999999,1.52,1.01
523,1782582380477,0.029999999999999999,0.02,1.01
524,1782582380510,0.029999999999999999,0.02,1.01
525,1782582380543,0.029999999999999999,0.02,1.01
526,1782582380577,0.029999999999999999,0.02,1.01
527,1782582380593,0.029999999999999999,0.02,1.01
528,1782582380610,0.029999999999999999,0.02,1.01
529,1782582380626,0.029999999999999999,0.02,1.01
530,1782582380709,0.029999999999999999,0.02,1.01
531,1782582380793,0.029999999999999999,0.02,1.01
532,1782582380859,0.029999999999999999,0.02,1.01
533,1782582380909,0.029999999999999999,0.02,1.01
534,1782582380926,0.029999999999999999,0.02,1.01
535,1782582380959,0.029999999999999999,0.02,1.01
536,1782582380976,0.029999999999999999,0.02,1.02
537,1782582380993,0.029999999999999999,0.02,1.02
538,1782582381043,0.029999999999999999,0.02,1.01
539,1782582381126,0.029999999999999999,0.02,1.01
540,1782582381143,0.029999999999999999,0.02,1.01
541,1782582381176,0.029999999999999999,0.02,1.01
542,1782582381192,0.029999999999999999,0.02,1.01
543,1782582381276,0.029999999999999999,0.02,1.01
544,1782582381342,0.029999999999999999,0.02,1.02
545,1782582381392,0.02,0.02,1.01
546,1782582381443,0.02,0.02,1.01
547,1782582381475,0.02,0.02,1.01
548,1782582381492,0.02,0.02,1.01
549,1782582381508,0.029999999999999999,0.02,1.01
550,1782582381542,0.029999999999999999,0.02,1.01
551,1782582381575,0.029999999999999999,0.02,1.01
552,1782582381625,0.029999999999999999,0.02,1.01
553,1782582381676,0.029999999999999999,0.02,1.01
554,1782582381725,0.029999999999999999,0.02,1.01
555,1782582381776,0.029999999999999999,0.02,1.01
556,1782582381842,0.029999999999999999,0.02,1.01
557,1782582381925,0.029999999999999999,0.02,1.01
558,1782582381975,0.029999999999999999,0.02,1.01
559,1782582382025,0.029999999999999999,0.02,1.01
560,1782582382091,0.029999999999999999,0.02,1.01
561,1782582382158,0.029999999999999999,0.02,1.01
562,1782582382208,0.029999999999999999,0.02,1.02
563,1782582382258,0.029999999999999999,0.02,1.02
564,1782582382308,0.029999999999999999,0.02,1.01
565,1782582382342,0.029999999999999999,0.02,1.01
566,1782582382392,0.029999999999999999,0.02,1.01
567,1782582382442,0.029999999999999999,0.02,1.02
568,1782582382491,0.029999999999999999,0.02,1.02
569,1782582382558,0.029999999999999999,0.02,1.02
570,1782582382574,0.029999999999999999,0.02,1.01
571,1782582382608,0.029999999999999999,0.02,1.01
572,1782582382641,0.029999999999999999,0.02,1.01
573,1782582382691,0.029999999999999999,0.02,1.01
574,1782582382741,0.029999999999999999,0.02,1.01
575,1782582382807,0.029999999999999999,0.02,1.01
576,1782582382841,0.029999999999999999,0.02,1.01
577,1782582382974,0.029999999999999999,0.02,1.01
578,1782582383074,0.029999999999999999,0.02,1.01
579,1782582383124,0.029999999999999999,0.02,1.01
580,1782582383191,0.029999999999999999,0.02,1.01
581,1782582383207,0.029999999999999999,0.02,1.01
582,1782582383241,0.029999999999999999,0.02,1.01
583,1782582383291,0.029999999999999999,0.02,1.02
584,1782582383390,0.029999999999999999,0.02,1.01
585,1782582383424,0.029999999999999999,0.02,1.01
586,1782582383457,0.029999999999999999,0.02,1.01
587,1782582383490,0.029999999999999999,0.02,1.01
588,1782582383508,0.029999999999999999,0.02,1.01
589,1782582383573,0.029999999999999999,0.02,1.01
590,1782582383640,0.029999999999999999,0.02,1.01
591,1782582383724,0.029999999999999999,0.02,1.02
592,1782582383741,0.029999999999999999,0.02,1.02
593,1782582383774,0.029999999999999999,0.02,1.02
594,1782582383807,0.029999999999999999,0.02,1.02
595,1782582383858,0.02,0.02,1.01
596,1782582383907,0.02,0.02,1.01
597,1782582383940,0.02,0.02,1.01
598,1782582383991,0.02,0.02,1.01
599,1782582384040,0.02,0.02,1.01
600,1782582384106,0.029999999999999999,0.01,1.02
601,1782582384173,0.029999999999999999,0.01,1.02
602,1782582384240,0.029999999999999999,0.02,1.02
603,1782582384290,0.029999999999999999,0.02,1.02
604,1782582384390,0.029999999999999999,0.02,1.01
605,1782582384456,0.029999999999999999,0.02,1.01
606,1782582384489,0.029999999999999999,0.02,1.01
607,1782582384523,0.029999999999999999,0.02,1.01
608,1782582384589,0.029999999999999999,0.02,1.01
609,1782582384656,0.029999999999999999,0.02,1.01
610,1782582384690,0.029999999999999999,0.02,1.02
611,1782582384756,0.029999999999999999,0.02,1.02
612,1782582384806,0.029999999999999999,0.02,1.02
613,1782582384839,0.029999999999999999,0.02,1.01
614,1782582384906,0.029999999999999999,0.02,1.01
615,1782582385022,0.029999999999999999,0.02,1.01
616,1782582385039,0.029999999999999999,0.02,1.01
617,1782582385089,0.02,0.02,1.02
618,1782582385140,0.02,0.02,1.01
619,1782582385222,0.02,0.02,1.02
620,1782582385289,0.029999999999999999,0.02,1.02
621,1782582385355,0.029999999999999999,0.02,1.01
622,1782582385389,0.029999999999999999,0.02,1.01
623,1782582385422,0.029999999999999999,0.02,1.01
624,1782582385489,0.029999999999999999,0.02,1.01
625,1782582385573,0.029999999999999999,0.02,1.02
626,1782582385622,0.029999999999999999,0.02,1.02
627,1782582385689,0.029999999999999999,0.02,1.02
628,1782582385755,0.029999999999999999,0.02,1.01
629,1782582385822,0.029999999999999999,0.02,1.01
630,1782582385855,0.029999999999999999,0.02,1.02
631,1782582385905,0.029999999999999999,0.02,1.02
632,1782582385988,0.029999999999999999,0.02,1.02
633,1782582386122,0.029999999999999999,0.02,1.01
634,1782582386271,0.029999999999999999,0.02,1.01
635,1782582386371,0.029999999999999999,0.02,1.01
636,1782582386438,0.029999999999999999,0.02,1.01
637,1782582386488,0.029999999999999999,0.02,1.02
638,1782582386538,0.029999999999999999,0.02,1.02
639,1782582386589,0.029999999999999999,0.02,1.02
640,1782582386638,0.029999999999999999,0.02,1.02
641,1782582386671,0.029999999999999999,0.02,1.02
642,1782582386688,0.029999999999999999,0.02,1.02
643,1782582386721,0.029999999999999999,0.02,1.01
644,1782582386771,0.029999999999999999,0.02,1.01
645,1782582386854,0.029999999999999999,0.02,1.01
646,1782582386888,0.029999999999999999,0.02,1.01
647,1782582386937,0.029999999999999999,0.02,1.01
648,1782582386987,0.029999999999999999,0.02,1.01
649,1782582387071,0.029999999999999999,0.02,1.02
650,1782582387121,0.029999999999999999,0.02,1.02
651,1782582387170,0.029999999999999999,0.02,1.02
652,1782582387238,0.029999999999999999,0.02,1.01
653,1782582387287,0.02,0.02,1.01
654,1782582387337,0.029999999999999999,0.02,1.01
655,1782582387387,0.029999999999999999,0.02,1.01
656,1782582387454,0.029999999999999999,0.02,1.01
657,1782582387604,0.02,0.02,1.02
658,1782582387670,0.02,0.02,1.02
659,1782582387720,0.02,0.02,1.01
660,1782582387754,0.02,0.02,1.01
661,1782582387820,0.02,0.02,1.01
662,1782582387853,0.029999999999999999,0.02,1.01
663,1782582387937,0.029999999999999999,0.02,1.01
664,1782582387970,0.029999999999999999,0.02,1.01
665,1782582388021,0.029999999999999999,0.02,1.02
666,1782582388086,0.029999999999999999,0.02,1.02
667,1782582388120,0.02,0.02,1.02
668,1782582388153,0.029999999999999999,0.02,1.02
669,1782582388186,0.029999999999999999,0.02,1.02
670,1782582388253,0.029999999999999999,0.02,1.01
671,1782582388303,0.029999999999999999,0.02,1.01
672,1782582388371,0.029999999999999999,0.02,1.01
673,1782582388419,0.029999999999999999,0.02,1.01
674,1782582388436,0.029999999999999999,0.02,1.01
675,1782582388470,0.029999999999999999,0.02,1.01
676,1782582388503,0.029999999999999999,0.02,1.01
677,1782582388569,0.029999999999999999,0.02,1.01
678,1782582388636,0.029999999999999999,0.02,1.01
679,1782582388669,0.029999999999999999,0.02,1.01
680,1782582388669,0.029999999999999999,0.02,1.02
681,1782582388703,0.029999999999999999,0.02,1.02
682,1782582388736,0.029999999999999999,0.02,1.01
683,1782582388769,0.029999999999999999,0.02,1.01
684,1782582388786,0.029999999999999999,0.02,1.01
685,1782582388819,0.029999999999999999,0.02,1.01
686,1782582388903,0.029999999999999999,0.02,1.01
687,1782582388969,0.029999999999999999,0.02,1.01
688,1782582389003,0.029999999999999999,0.02,1.01
689,1782582389069,0.029999999999999999,0.02,1.01
690,1782582389136,0.029999999999999999,0.02,1.02
691,1782582389270,0.029999999999999999,0.02,1.02
692,1782582389302,0.029999999999999999,0.02,1.02
693,1782582389320,0.029999999999999999,0.02,1.02
694,1782582389402,0.029999999999999999,0.02,1.02
695,1782582389452,0.029999999999999999,0.02,1.01
696,1782582389518,0.029999999999999999,0.02,1.01
697,1782582389568,0.02,0.02,1.01
698,1782582389618,0.02,0.02,1.01
699,1782582389635,0.029999999999999999,0.02,1.01
700,1782582389669,0.029999999999999999,0.02,1.01
701,1782582389685,0.029999999999999999,0.02,1.01
702,1782582389702,0.029999999999999999,0.02,1.01
703,1782582389735,0.029999999999999999,0.02,1.01
704,1782582389852,0.029999999999999999,0.02,1.02
705,1782582389901,0.029999999999999999,0.02,1.01
706,1782582389918,0.029999999999999999,0.02,1.01
707,1782582389968,0.029999999999999999,0.02,1.01
708,1782582390068,0.029999999999999999,0.02,1.01
709,1782582390086,0.029999999999999999,0.02,1.01
710,1782582390118,0.029999999999999999,0.02,1.01
711,1782582390185,0.029999999999999999,0.02,1.01
712,1782582390285,0.029999999999999999,0.02,1.01
713,1782582390302,0.029999999999999999,0.02,1.01
714,1782582390318,0.029999999999999999,0.02,1.01
715,1782582390384,0.029999999999999999,0.02,1.01
716,1782582390451,0.029999999999999999,0.02,1.01
717,1782582390484,0.029999999999999999,0.02,1.01
718,1782582390551,0.029999999999999999,0.02,1.01
719,1782582390651,0.029999999999999999,0.02,1.01
720,1782582390734,0.029999999999999999,0.02,1.01
721,1782582390784,0.029999999999999999,0.02,1.01
722,1782582390834,0.029999999999999999,0.29999999999999999,1.2
723,1782582390901,0.029999999999999999,0.02,1.01
724,1782582390967,0.029999999999999999,0.02,1.02
725,1782582391001,0.029999999999999999,0.02,1.02
726,1782582391067,0.029999999999999999,0.02,1.02
727,1782582391134,0.029999999999999999,0.02,1.02
728,1782582391167,0.029999999999999999,0.02,1.01
729,1782582391267,0.029999999999999999,0.02,1.01
730,1782582391333,0.029999999999999999,0.02,1.02
731,1782582391384,0.029999999999999999,0.02,1.02
732,1782582391417,0.029999999999999999,0.02,1.02
733,1782582391483,0.029999999999999999,0.02,1.02
734,1782582391517,0.029999999999999999,0.02,1.01
735,1782582391550,0.029999999999999999,0.01,1.01
736,1782582391634,0.029999999999999999,0.01,1.01
737,1782582391734,0.029999999999999999,0.02,1.01
738,1782582391800,0.029999999999999999,0.02,1.01
739,1782582391833,0.029999999999999999,0.02,1.01
740,1782582391867,0.029999999999999999,0.02,1.01
741,1782582391933,0.029999999999999999,0.02,1.01
742,1782582391966,0.029999999999999999,0.02,1.01
743,1782582392017,0.029999999999999999,0.02,1.01
744,1782582392083,0.029999999999999999,0.02,1.01
745,1782582392117,0.029999999999999999,0.02,1.01
746,1782582392133,0.029999999999999999,0.02,1.02
747,1782582392233,0.029999999999999999,0.02,1.02
748,1782582392333,0.029999999999999999,0.02,1.02
749,1782582392400,0.029999999999999999,0.02,1.02
750,1782582392417,0.029999999999999999,0.02,1.01
751,1782582392466,0.029999999999999999,0.02,1.01
752,1782582392533,0.029999999999999999,0.02,1.01
753,1782582392566,0.029999999999999999,0.02,1.01
754,1782582392616,0.029999999999999999,0.02,1.01
755,1782582392683,0.029999999999999999,0.02,1.02
756,1782582392749,0.029999999999999999,0.02,1.01
757,1782582392849,0.029999999999999999,0.02,1.01
758,1782582392916,0.029999999999999999,0.02,1.01
759,1782582393066,0.029999999999999999,0.02,1.01
760,1782582393216,0.029999999999999999,0.02,1.01
761,1782582393448,0.029999999999999999,0.02,1.02
762,1782582393498,0.029999999999999999,0.02,1.02
763,1782582393599,0.029999999999999999,0.02,1.01
764,1782582393615,0.029999999999999999,0.02,1.01
765,1782582393632,0.029999999999999999,0.02,1.01
766,1782582393699,0.029999999999999999,0.02,1.01
767,1782582393765,0.029999999999999999,0.02,1.02
768,1782582393798,0.029999999999999999,0.02,1.02
769,1782582393848,0.029999999999999999,0.02,1.01
770,1782582393915,0.029999999999999999,0.02,1.01
771,1782582393948,0.029999999999999999,0.02,1.01
772,1782582394015,0.029999999999999999,0.02,1.01
773,1782582394081,0.029999999999999999,0.02,1.01
774,1782582394181,0.02,0.02,1.02
775,1782582394248,0.02,0.02,1.02
776,1782582394281,0.02,0.02,1.02
777,1782582394332,0.02,0.02,1.02
778,1782582394398,0.02,0.02,1.01
779,1782582394414,0.029999999999999999,0.02,1.01
780,1782582394448,0.029999999999999999,0.02,1.01
781,1782582394515,0.029999999999999999,0.02,1.01
782,1782582394631,0.029999999999999999,0.02,1.01
783,1782582394664,0.029999999999999999,0.02,1.01
784,1782582394698,0.029999999999999999,0.02,1.01
785,1782582394714,0.029999999999999999,0.02,1.01
786,1782582394731,0.029999999999999999,0.02,1.02
787,1782582394798,0.029999999999999999,0.02,1.01
788,1782582394914,0.029999999999999999,0.02,1.01
789,1782582395047,0.029999999999999999,0.02,1.01
790,1782582395080,0.029999999999999999,0.02,1.01
791,1782582395097,0.029999999999999999,0.02,1.01
792,1782582395114,0.029999999999999999,0.02,1.01
793,1782582395147,0.029999999999999999,0.02,1.02
794,1782582395231,0.029999999999999999,0.02,1.02
795,1782582395247,0.029999999999999999,0.02,1.02
796,1782582395314,0.029999999999999999,0.02,1.02
797,1782582395380,0.029999999999999999,0.02,1.01
798,1782582395447,0.029999999999999999,0.02,1.01
799,1782582395480,0.029999999999999999,0.02,1.01
800,1782582395497,0.029999999999999999,0.02,1.01
801,1782582395547,0.029999999999999999,0.02,1.01
802,1782582395630,0.029999999999999999,0.02,1.01
803,1782582395663,0.029999999999999999,0.02,1.01
804,1782582395697,0.029999999999999999,0.02,1.01
805,1782582395713,0.029999999999999999,0.02,1.01
806,1782582395846,0.029999999999999999,0.02,1.01
807,1782582395881,0.029999999999999999,0.02,1.01
808,1782582395930,0.029999999999999999,0.02,1.02
809,1782582395997,0.029999999999999999,0.02,1.01
810,1782582396030,0.029999999999999999,0.02,1.01
811,1782582396063,0.029999999999999999,0.02,1.01
812,1782582396080,0.029999999999999999,0.02,1.01
813,1782582396096,0.029999999999999999,0.02,1.01
814,1782582396196,0.029999999999999999,0.02,1.01
815,1782582396263,0.029999999999999999,0.02,1.01
816,1782582396296,0.029999999999999999,0.02,1.01
817,1782582396313,0.029999999999999999,0.02,1.01
818,1782582396347,0.029999999999999999,0.02,1.01
819,1782582396363,0.029999999999999999,0.02,1.01
820,1782582396380,0.029999999999999999,0.02,1.01
821,1782582396446,0.029999999999999999,0.02,1.01
822,1782582396496,0.029999999999999999,0.02,1.01
823,1782582396546,0.029999999999999999,0.02,1.01
824,1782582396579,0.029999999999999999,0.02,1.02
825,1782582396596,0.029999999999999999,0.02,1.02
826,1782582396646,0.029999999999999999,0.02,1.02
827,1782582396679,0.029999999999999999,0.02,1.02
828,1782582396746,0.029999999999999999,0.02,1.01
829,1782582396796,0.029999999999999999,0.02,1.01
830,1782582396845,0.029999999999999999,0.02,1.01
831,1782582396929,0.029999999999999999,0.02,1.01
832,1782582396962,0.029999999999999999,0.02,1.02
833,1782582397029,0.029999999999999999,0.02,1.01
834,1782582397062,0.029999999999999999,0.02,1.01
835,1782582397129,0.029999999999999999,0.02,1.01
836,1782582397162,0.029999999999999999,0.02,1.01
837,1782582397262,0.029999999999999999,0.02,1.01
838,1782582397296,0.029999999999999999,0.02,1.01
839,1782582397378,0.029999999999999999,0.02,1.01
840,1782582397462,0.029999999999999999,0.02,1.01
841,1782582397579,0.029999999999999999,0.02,1.02
842,1782582397712,0.029999999999999999,0.02,1.01
843,1782582397778,0.029999999999999999,0.02,1.01
844,1782582397811,0.02,0.02,1.01
845,1782582397862,0.02,0.02,1.01
846,1782582397928,0.02,0.02,1.01
847,1782582397962,0.02,0.02,1.01
848,1782582398012,0.02,0.02,1.01
849,1782582398062,0.02,0.02,1.01
850,1782582398112,0.029999999999999999,0.02,1.02
851,1782582398195,0.029999999999999999,0.02,1.02
852,1782582398261,0.029999999999999999,0.02,1.02
853,1782582398328,0.029999999999999999,0.02,1.02
854,1782582398428,0.029999999999999999,0.029999999999999999,1.01
855,1782582398494,0.029999999999999999,0.029999999999999999,1.01
856,1782582398545,0.029999999999999999,0.029999999999999999,1.01
857,1782582398595,0.029999999999999999,0.029999999999999999,1.01
858,1782582398645,0.02,0.02,1.01
859,1782582398711,0.029999999999999999,0.02,1.02
860,1782582398761,0.029999999999999999,0.02,1.01
861,1782582398827,0.029999999999999999,0.02,1.01
862,1782582398878,0.029999999999999999,0.02,1.01
863,1782582398944,0.029999999999999999,0.02,1.01
864,1782582398978,0.029999999999999999,0.02,1.01
865,1782582399127,0.029999999999999999,0.02,1.01
866,1782582399161,0.029999999999999999,0.02,1.01
867,1782582399210,0.029999999999999999,0.02,1.01
868,1782582399261,0.029999999999999999,0.02,1.01
869,1782582399377,0.029999999999999999,0.02,1.02
870,1782582399394,0.029999999999999999,0.02,1.02
871,1782582399477,0.029999999999999999,0.02,1.01
872,1782582399526,0.029999999999999999,0.02,1.01
873,1782582399544,0.029999999999999999,0.02,1.01
874,1782582399644,0.029999999999999999,0.02,1.02
875,1782582399793,0.029999999999999999,0.02,1.01
876,1782582399843,0.029999999999999999,0.02,1.01
877,1782582399943,0.029999999999999999,0.02,1.01
878,1782582400043,0.02,0.02,1.01
879,1782582400110,0.029999999999999999,0.02,1.01
880,1782582400143,0.029999999999999999,0.02,1.01
881,1782582400176,0.029999999999999999,0.02,1.01
882,1782582400243,0.029999999999999999,0.02,1.01
883,1782582400260,0.029999999999999999,0.02,1.01
884,1782582400293,0.029999999999999999,0.02,1.02
885,1782582400376,0.029999999999999999,0.02,1.01
886,1782582400426,0.029999999999999999,0.02,1.01
887,1782582400459,0.029999999999999999,0.02,1.01
888,1782582400543,0.029999999999999999,0.02,1.01
889,1782582400559,0.029999999999999999,0.02,1.01
890,1782582400593,0.029999999999999999,0.02,1.01
891,1782582400642,0.029999999999999999,0.02,1.01
892,1782582400692,0.029999999999999999,0.02,1.01
893,1782582400742,0.029999999999999999,0.02,1.01
894,1782582400793,0.029999999999999999,0.02,1.01
895,1782582400859,0.029999999999999999,0.02,1.01
896,1782582400892,0.029999999999999999,0.02,1.01
897,1782582400959,0.029999999999999999,0.02,1.02
898,1782582400992,0.029999999999999999,0.02,1.02
899,1782582401059,0.029999999999999999,0.02,1.01
900,1782582401092,0.029999999999999999,0.02,1.01
901,1782582401109,0.029999999999999999,0.02,1.01
902,1782582401142,0.029999999999999999,0.02,1.01
903,1782582401159,0.029999999999999999,0.02,1.01
904,1782582401176,0.029999999999999999,0.02,1.01
905,1782582401243,0.029999999999999999,0.02,1.01
906,1782582401309,0.029999999999999999,0.02,1.02
907,1782582401342,0.029999999999999999,0.02,1.02
908,1782582401358,0.029999999999999999,0.02,1.01
909,1782582401425,0.029999999999999999,0.02,1.01
910,1782582401492,0.029999999999999999,0.02,1.01
911,1782582401625,0.029999999999999999,0.02,1.01
912,1782582401659,0.029999999999999999,0.02,1.01
913,1782582401675,0.029999999999999999,0.02,1.01
914,1782582401708,0.029999999999999999,0.02,1.01
915,1782582401725,0.029999999999999999,0.02,1.01
916,1782582401758,0.029999999999999999,0.02,1.01
917,1782582401842,0.029999999999999999,0.02,1.02
918,1782582401958,0.029999999999999999,0.02,1.02
919,1782582401991,0.029999999999999999,0.02,1.02
920,1782582402008,0.029999999999999999,0.02,1.02
921,1782582402025,0.029999999999999999,0.02,1.01
922,1782582402058,0.029999999999999999,0.02,1.01
923,1782582402092,0.029999999999999999,0.02,1.01
924,1782582402174,0.029999999999999999,0.02,1.01
925,1782582402258,0.029999999999999999,0.02,1.01
926,1782582402274,0.029999999999999999,0.02,1.01
927,1782582402324,0.029999999999999999,0.02,1.01
928,1782582402375,0.029999999999999999,0.02,1.01
929,1782582402441,0.029999999999999999,0.02,1.02
930,1782582402491,0.029999999999999999,0.02,1.02
931,1782582402541,0.029999999999999999,0.02,1.02
932,1782582402608,0.029999999999999999,0.02,1.02
933,1782582402674,0.029999999999999999,0.02,1.01
934,1782582402708,0.029999999999999999,0.02,1.01
935,1782582402774,0.029999999999999999,0.02,1.01
936,1782582402824,0.029999999999999999,0.02,1.01
937,1782582402874,0.029999999999999999,0.02,1.01
938,1782582402991,0.029999999999999999,0.02,1.01
939,1782582403057,0.029999999999999999,0.02,1.01
940,1782582403107,0.029999999999999999,0.02,1.01
941,1782582403157,0.029999999999999999,0.02,1.01
942,1782582403190,0.029999999999999999,0.02,1.01
943,1782582403207,0.029999999999999999,0.02,1.01
944,1782582403257,0.029999999999999999,0.02,1.01
945,1782582403324,0.029999999999999999,0.02,1.01
946,1782582403373,0.029999999999999999,0.02,1.01
947,1782582403424,0.029999999999999999,0.02,1.01
948,1782582403474,0.029999999999999999,0.02,1.01
949,1782582403524,0.029999999999999999,0.02,1.02
950,1782582403590,0.029999999999999999,0.02,1.01
951,1782582403640,0.029999999999999999,0.02,1.01
952,1782582403690,0.029999999999999999,0.02,1.01
953,1782582403740,0.029999999999999999,0.02,1.01
954,1782582403856,0.029999999999999999,0.02,1.01
955,1782582403907,0.029999999999999999,0.02,1.01
956,1782582403973,0.029999999999999999,0.02,1.02
957,1782582404023,0.029999999999999999,0.02,1.27
958,1782582404073,0.029999999999999999,0.02,1.02
959,1782582404156,0.029999999999999999,0.02,1.02
960,1782582404239,0.029999999999999999,0.02,1.01
961,1782582404323,0.029999999999999999,0.02,1.01
962,1782582404423,0.029999999999999999,0.02,1.02
963,1782582404489,0.029999999999999999,0.02,1.02
964,1782582404573,0.029999999999999999,0.02,1.02
965,1782582404622,0.029999999999999999,0.02,1.02
966,1782582404673,0.029999999999999999,0.02,1.01
967,1782582404740,0.029999999999999999,0.02,1.01
968,1782582404856,0.029999999999999999,0.02,1.01
969,1782582404972,0.029999999999999999,0.02,1.01
970,1782582405039,0.029999999999999999,0.02,1.01
971,1782582405072,0.029999999999999999,0.02,1.01
972,1782582405139,0.029999999999999999,0.02,1.01
973,1782582405189,0.029999999999999999,0.02,1.02
974,1782582405223,0.029999999999999999,0.02,1.02
975,1782582405239,0.029999999999999999,0.02,1.01
976,1782582405256,0.029999999999999999,0.02,1.01
977,1782582405289,0.029999999999999999,0.02,1.01
978,1782582405322,0.029999999999999999,0.02,1.01
979,1782582405355,0.029999999999999999,0.02,1.01
980,1782582405422,0.029999999999999999,0.02,1.01
981,1782582405539,0.029999999999999999,0.02,1.01
982,1782582405588,0.029999999999999999,0.02,1.01
983,1782582405622,0.029999999999999999,0.02,1.01
984,1782582405688,0.029999999999999999,0.02,1.01
985,1782582405705,0.029999999999999999,0.02,1.01
986,1782582405755,0.029999999999999999,0.02,1.01
987,1782582405821,0.029999999999999999,0.02,1.01
988,1782582405839,0.029999999999999999,0.02,1.01
989,1782582405872,0.029999999999999999,0.02,1.01
990,1782582405889,0.029999999999999999,0.02,1.01
991,1782582405905,0.029999999999999999,0.02,1.01
992,1782582405939,0.029999999999999999,0.02,1.01
993,1782582405988,0.029999999999999999,0.02,1.02
994,1782582406038,0.029999999999999999,0.02,1.02
995,1782582406105,0.029999999999999999,0.02,1.01
996,1782582406139,0.029999999999999999,0.02,1.02
997,1782582406205,0.029999999999999999,0.02,1.02
998,1782582406322,0.029999999999999999,0.02,1.01
999,1782582406439,0.029999999999999999,0.02,1.01
1000,1782582406488,0.029999999999999999,0.02,1.01
1001,1782582406521,0.029999999999999999,0.02,1.01
1002,1782582406571,0.029999999999999999,0.02,1.01
1003,1782582406621,0.029999999999999999,0.02,1.01
1004,1782582406704,0.029999999999999999,0.02,1.01
1005,1782582406821,0.029999999999999999,0.02,1.02
1006,1782582406887,0.029999999999999999,0.02,1.01
1007,1782582406922,0.029999999999999999,0.02,1.01
1008,1782582406987,0.029999999999999999,0.02,1.01
1009,1782582407020,0.029999999999999999,0.02,1.01
1010,1782582407087,0.029999999999999999,0.02,1.01
1011,1782582407204,0.029999999999999999,0.02,1.01
1012,1782582407287,0.029999999999999999,0.02,1.01
1013,1782582407354,0.029999999999999999,0.02,1.01
1014,1782582407421,0.029999999999999999,0.02,1.01
1015,1782582407470,0.029999999999999999,0.02,1.01
1016,1782582407670,0.029999999999999999,0.02,1.01
1017,1782582407704,0.029999999999999999,0.02,1.01
1018,1782582407754,0.029999999999999999,0.02,1.01
1019,1782582407820,0.029999999999999999,0.02,1.01
1020,1782582408003,0.029999999999999999,0.02,1.01
1021,1782582408069,0.029999999999999999,0.02,1.01
1022,1782582408120,0.029999999999999999,0.02,1.01
1023,1782582408138,0.029999999999999999,0.02,1.02
1024,1782582408271,0.029999999999999999,0.02,1.01
1025,1782582408305,0.029999999999999999,0.02,1.01
1026,1782582408353,0.029999999999999999,0.02,1.01
1027,1782582408421,0.029999999999999999,0.02,1.01
1028,1782582408454,0.029999999999999999,0.02,1.01
1029,1782582408486,0.029999999999999999,0.02,1.02
1030,1782582408569,0.029999999999999999,0.02,1.01
1031,1782582408603,0.029999999999999999,0.02,1.01
1032,1782582408636,0.029999999999999999,0.02,1.01
1033,1782582408703,0.029999999999999999,0.02,1.01
1034,1782582408770,0.029999999999999999,0.02,1.01
1035,1782582408820,0.029999999999999999,0.02,1.01
1036,1782582408869,0.029999999999999999,0.02,1.01
1037,1782582408936,0.029999999999999999,0.02,1.01
1038,1782582408969,0.029999999999999999,0.02,1.01
1039,1782582409019,0.029999999999999999,0.02,1.01
1040,1782582409052,0.029999999999999999,0.02,1.01
1041,1782582409119,0.029999999999999999,0.02,1.01
1042,1782582409186,0.029999999999999999,0.02,1.02
1043,1782582409253,0.029999999999999999,0.02,1.02
1044,1782582409302,0.029999999999999999,0.02,1.02
1045,1782582409385,0.029999999999999999,0.02,1.01
1046,1782582409453,0.029999999999999999,0.02,1.01
1047,1782582409536,0.029999999999999999,0.02,1.01
1048,1782582409569,0.029999999999999999,0.02,1.02
1049,1782582409652,0.029999999999999999,0.02,1.01
1050,1782582409718,0.029999999999999999,0.02,1.01
1051,1782582409752,0.029999999999999999,0.02,1.01
1052,1782582409802,0.029999999999999999,0.02,1.01
1053,1782582409868,0.029999999999999999,0.02,1.01
1054,1782582409902,0.029999999999999999,0.02,1.01
1055,1782582409935,0.029999999999999999,0.02,1.01
1056,1782582409952,0.029999999999999999,0.02,1.01
1057,1782582410019,0.029999999999999999,0.02,1.01
1058,1782582410069,0.029999999999999999,0.02,1.01
1059,1782582410135,0.029999999999999999,0.02,1.01
1060,1782582410185,0.029999999999999999,0.02,1.02
1061,1782582410201,0.029999999999999999,0.02,1.01
1062,1782582410268,0.029999999999999999,0.02,1.01
1063,1782582410319,0.029999999999999999,0.02,1.01
1064,1782582410353,0.029999999999999999,0.02,1.01
1065,1782582410435,0.029999999999999999,0.02,1.01
1066,1782582410534,0.029999999999999999,0.02,1.02
1067,1782582410569,0.029999999999999999,0.02,1.02
1068,1782582410618,0.029999999999999999,0.02,1.02
1069,1782582410668,0.029999999999999999,0.02,1.02
1070,1782582410734,0.029999999999999999,0.02,1.02
1071,1782582410767,0.029999999999999999,0.02,1.01
1072,1782582410834,0.029999999999999999,0.02,1.01
1073,1782582410901,0.029999999999999999,0.02,1.02
1074,1782582410950,0.029999999999999999,0.02,1.02
1075,1782582411000,0.02,0.02,1.02
1076,1782582411067,0.02,0.02,1.02
1077,1782582411200,0.029999999999999999,0.02,1.01
1078,1782582411218,0.029999999999999999,0.02,1.01
1079,1782582411284,0.029999999999999999,0.02,1.01
1080,1782582411333,0.029999999999999999,0.02,1.01
1081,1782582411384,0.029999999999999999,0.02,1.02
1082,1782582411451,0.029999999999999999,0.02,1.02
1083,1782582411500,0.029999999999999999,0.02,1.01
1084,1782582411550,0.029999999999999999,0.02,1.01
1085,1782582411601,0.029999999999999999,0.02,1.01
1086,1782582411667,0.029999999999999999,0.02,1.01
1087,1782582411700,0.029999999999999999,0.02,1.01
1088,1782582411750,0.029999999999999999,0.02,1.01
1089,1782582411801,0.029999999999999999,0.02,1.02
1090,1782582411850,0.029999999999999999,0.02,1.02
1091,1782582411901,0.029999999999999999,0.02,1.02
1092,1782582411950,0.029999999999999999,0.02,1.02
1093,1782582412033,0.029999999999999999,0.02,1.02
1094,1782582412067,0.029999999999999999,0.02,1.02
1095,1782582412134,0.029999999999999999,0.02,1.03
1096,1782582412199,0.029999999999999999,0.01,1.03
1097,1782582412234,0.029999999999999999,0.01,1.03
1098,1782582412283,0.029999999999999999,0.01,1.01
1099,1782582412349,0.029999999999999999,0.01,1.01
1100,1782582412401,0.029999999999999999,0.01,1.02
1101,1782582412466,0.02,0.01,1.02
1102,1782582412549,0.029999999999999999,0.02,1.01
1103,1782582412583,0.029999999999999999,0.02,1.01
1104,1782582412650,0.029999999999999999,0.02,1.01
1105,1782582412716,0.029999999999999999,0.02,1.01
1106,1782582412816,0.029999999999999999,0.02,1.01
1107,1782582412933,0.029999999999999999,0.02,1.01
1108,1782582412965,0.029999999999999999,0.01,1.01
1109,1782582413066,0.029999999999999999,0.01,1.01
1110,1782582413100,0.029999999999999999,0.02,1.02
1111,1782582413115,0.029999999999999999,0.02,1.02
1112,1782582413166,0.029999999999999999,0.02,1.02
1113,1782582413199,0.029999999999999999,0.02,1.01
1114,1782582413265,0.029999999999999999,0.02,1.01
1115,1782582413315,0.029999999999999999,0.02,1.01
1116,1782582413382,0.029999999999999999,0.02,1.01
1117,1782582413415,0.029999999999999999,0.02,1.01
1118,1782582413432,0.029999999999999999,0.02,1.02
1119,1782582413498,0.029999999999999999,0.02,1.02
1120,1782582413582,0.029999999999999999,0.02,1.01
1121,1782582413649,0.029999999999999999,0.02,1.01
1122,1782582413715,0.029999999999999999,0.02,1.01
1123,1782582413782,0.029999999999999999,0.02,1.01
1124,1782582413831,0.029999999999999999,0.02,1.01
1125,1782582413898,0.029999999999999999,0.02,1.01
1126,1782582413948,0.029999999999999999,0.02,1.01
1127,1782582413998,0.029999999999999999,0.02,1.02
1128,1782582414148,0.029999999999999999,0.02,1.01
1129,1782582414181,0.029999999999999999,0.02,1.01
1130,1782582414233,0.029999999999999999,0.02,1.01
1131,1782582414233,0.029999999999999999,0.02,1.01
1132,1782582414298,0.029999999999999999,0.02,1.01
1133,1782582414315,0.029999999999999999,0.02,1.01
1134,1782582414332,0.029999999999999999,0.02,1.01
1135,1782582414364,0.029999999999999999,0.02,1.02
1136,1782582414432,0.029999999999999999,0.02,1.02
1137,1782582414548,0.029999999999999999,0.02,1.01
1138,1782582414564,0.029999999999999999,0.02,1.01
1139,1782582414598,0.029999999999999999,0.02,1.01
1140,1782582414697,0.029999999999999999,0.02,1.01
1141,1782582414782,0.029999999999999999,0.02,1.01
1142,1782582414798,0.02,0.02,1.01
1143,1782582414864,0.02,0.02,1.01
1144,1782582414880,0.02,0.02,1.01
1145,1782582414914,0.029999999999999999,0.02,1.01
1146,1782582414948,0.029999999999999999,0.02,1.01
1147,1782582414999,0.029999999999999999,0.02,1.01
1148,1782582415048,0.029999999999999999,0.02,1.01
1149,1782582415097,0.029999999999999999,0.02,1.02
1150,1782582415165,0.029999999999999999,0.02,1.02
1151,1782582415231,0.029999999999999999,0.02,1.02
1152,1782582415247,0.029999999999999999,0.02,1.02
1153,1782582415331,0.029999999999999999,0.02,1.01
1154,1782582415430,0.029999999999999999,0.02,1.01
1155,1782582415465,0.029999999999999999,0.02,1.26
1156,1782582415498,0.029999999999999999,0.02,1.01
1157,1782582415514,0.029999999999999999,0.02,1.01
1158,1782582415531,0.029999999999999999,0.02,1.01
1159,1782582415563,0.029999999999999999,0.02,1.01
1160,1782582415648,0.029999999999999999,0.02,1.01
1161,1782582415697,0.029999999999999999,0.02,1.01
1162,1782582415730,0.029999999999999999,0.02,1.01
1163,1782582415747,0.029999999999999999,0.02,1.01
1164,1782582415764,0.029999999999999999,0.02,1.01
1165,1782582415813,0.029999999999999999,0.02,1.01
1166,1782582415896,0.029999999999999999,0.02,1.02
1167,1782582415930,0.029999999999999999,0.02,1.02
1168,1782582415980,0.029999999999999999,0.02,1.02
1169,1782582416013,0.029999999999999999,0.02,1.02
1170,1782582416030,0.029999999999999999,0.02,1.02
1171,1782582416063,0.029999999999999999,0.02,1.02
1172,1782582416180,0.029999999999999999,0.02,1.02
1173,1782582416264,0.029999999999999999,0.02,1.02
1174,1782582416346,0.029999999999999999,0.02,1.01
1175,1782582416379,0.029999999999999999,0.02,1.01
1176,1782582416396,0.029999999999999999,0.02,1.01
1177,1782582416413,0.029999999999999999,0.02,1.01
1178,1782582416480,0.029999999999999999,0.02,1.01
1179,1782582416513,0.029999999999999999,0.02,1.01
1180,1782582416579,0.02,0.02,1.01
1181,1782582416612,0.02,0.02,1.01
1182,1782582416646,0.02,0.02,1.01
1183,1782582416713,0.02,0.02,1.01
1184,1782582416795,0.02,0.02,1.01
1185,1782582416845,0.02,0.02,1.01
1186,1782582416995,0.02,0.02,1.01
1187,1782582416995,0.02,0.02,1.01
1188,1782582417030,0.029999999999999999,0.02,1.01
1189,1782582417062,0.040000000000000001,0.02,1.01
1190,1782582417079,0.040000000000000001,0.02,1.01
1191,1782582417112,0.040000000000000001,0.02,1.01
1192,1782582417128,0.029999999999999999,0.02,1.03
1193,1782582417212,0.029999999999999999,0.02,1.03
1194,1782582417314,0.029999999999999999,0.02,1.03
1195,1782582417329,0.029999999999999999,0.02,1.01
1196,1782582417345,0.029999999999999999,0.02,1.01
1197,1782582417379,0.029999999999999999,0.01,1.01
1198,1782582417395,0.029999999999999999,0.01,1.01
1199,1782582417545,0.02,0.02,1.01
1200,1782582417612,0.02,0.02,1.01
1201,1782582417745,0.029999999999999999,0.02,1.02
1202,1782582417812,0.029999999999999999,0.02,1.02
1203,1782582417879,0.029999999999999999,0.02,1.02
1204,1782582417913,0.029999999999999999,0.02,1.02
1205,1782582417964,0.029999999999999999,0.02,1.02
1206,1782582417980,0.029999999999999999,0.02,1.02
1207,1782582418013,0.02,0.02,1.01
1208,1782582418063,0.029999999999999999,0.02,1.01
1209,1782582418145,0.029999999999999999,0.02,1.01
1210,1782582418195,0.029999999999999999,0.02,1.01
1211,1782582418228,0.029999999999999999,0.02,1.02
1212,1782582418278,0.029999999999999999,0.02,1.02
1213,1782582418295,0.029999999999999999,0.02,1.02
1214,1782582418411,0.029999999999999999,0.01,1.01
1215,1782582418428,0.029999999999999999,0.01,1.01
1216,1782582418479,0.029999999999999999,0.01,1.01
1217,1782582418528,0.029999999999999999,0.01,1.01
1218,1782582418545,0.02,0.02,1.01
1219,1782582418645,0.029999999999999999,0.02,1.02
1220,1782582418678,0.029999999999999999,0.02,1.02
1221,1782582418711,0.029999999999999999,0.02,1.02
1222,1782582418744,0.029999999999999999,0.02,1.01
1223,1782582418794,0.029999999999999999,0.02,1.01
1224,1782582418828,0.029999999999999999,0.02,1.01
1225,1782582418845,0.029999999999999999,0.02,1.01
1226,1782582418910,0.029999999999999999,0.02,1.01
1227,1782582418977,0.029999999999999999,0.02,1.01
1228,1782582419027,0.029999999999999999,0.02,1.01
1229,1782582419144,0.029999999999999999,0.02,1.01
1230,1782582419310,0.029999999999999999,0.02,1.02
1231,1782582419360,0.029999999999999999,0.02,1.02
1232,1782582419394,0.029999999999999999,0.02,1.02
1233,1782582419427,0.029999999999999999,0.02,1.02
1234,1782582419478,0.029999999999999999,0.02,1.01
1235,1782582419543,0.029999999999999999,0.02,1.01
1236,1782582419594,0.029999999999999999,0.02,1.01
1237,1782582419660,0.029999999999999999,0.02,1.01
1238,1782582419694,0.029999999999999999,0.02,1.01
1239,1782582419710,0.029999999999999999,0.02,1.01
1240,1782582419744,0.029999999999999999,0.02,1.01
1241,1782582419877,0.029999999999999999,0.02,1.01
1242,1782582419960,0.029999999999999999,0.02,1.01
1243,1782582419993,0.029999999999999999,0.02,1.01
1244,1782582420043,0.029999999999999999,0.02,1.01
1245,1782582420110,0.029999999999999999,0.02,1.01
1246,1782582420260,0.029999999999999999,0.02,1.01
1247,1782582420344,0.029999999999999999,0.02,1.01
1248,1782582420427,0.029999999999999999,0.02,1.02
1249,1782582420460,0.029999999999999999,0.02,1.02
1250,1782582420526,0.029999999999999999,0.02,1.02
1251,1782582420576,0.029999999999999999,0.02,1.02
1252,1782582420627,0.029999999999999999,0.02,1.02
1253,1782582420659,0.029999999999999999,0.02,1.01
1254,1782582420726,0.029999999999999999,0.02,1.02
1255,1782582420776,0.029999999999999999,0.02,1.02
1256,1782582420793,0.029999999999999999,0.02,1.02
1257,1782582420826,0.029999999999999999,0.02,1.02
1258,1782582420843,0.029999999999999999,0.02,1.02
1259,1782582420876,0.029999999999999999,0.02,1.01
1260,1782582420910,0.029999999999999999,0.02,1.01
1261,1782582420976,0.029999999999999999,0.02,1.01
1262,1782582421009,0.029999999999999999,0.02,1.01
1263,1782582421059,0.029999999999999999,0.02,1.01
1264,1782582421176,0.029999999999999999,0.02,1.01
1265,1782582421209,0.02,0.029999999999999999,1.01
1266,1782582421277,0.02,0.029999999999999999,1.01
1267,1782582421410,0.02,0.029999999999999999,1.01
1268,1782582421493,0.02,0.02,1.03
1269,1782582421542,0.02,0.02,1.03
1270,1782582421609,0.029999999999999999,0.02,1.02
1271,1782582421676,0.029999999999999999,0.02,1.01
1272,1782582421826,0.02,0.02,1.02
1273,1782582421876,0.02,0.02,1.02
1274,1782582421925,0.029999999999999999,0.02,1.02
1275,1782582421992,0.029999999999999999,0.02,1.02
1276,1782582422042,0.029999999999999999,0.02,1.01
1277,1782582422141,0.029999999999999999,0.02,1.02
1278,1782582422208,0.029999999999999999,0.02,1.02
1279,1782582422258,0.029999999999999999,0.02,1.02
1280,1782582422441,0.029999999999999999,0.02,1.02
1281,1782582422475,0.029999999999999999,0.02,1.02
1282,1782582422525,0.029999999999999999,0.02,1.02
1283,1782582422575,0.029999999999999999,0.01,1.02
1284,1782582422659,0.029999999999999999,0.02,1.01
1285,1782582422725,0.029999999999999999,0.02,1.01
1286,1782582422792,0.029999999999999999,0.02,1.01
1287,1782582422841,0.029999999999999999,0.02,1.01
1288,1782582422892,0.029999999999999999,0.02,1.01
1289,1782582422975,0.029999999999999999,0.02,1.01
1290,1782582423024,0.029999999999999999,0.02,1.01
1291,1782582423091,0.029999999999999999,0.02,1.02
1292,1782582423140,0.029999999999999999,0.02,1.02
1293,1782582423190,0.029999999999999999,0.02,1.02
1294,1782582423224,0.029999999999999999,0.02,1.02
1295,1782582423325,0.029999999999999999,0.02,1.01
1296,1782582423424,0.029999999999999999,0.02,1.02
1297,1782582423474,0.029999999999999999,0.02,1.02
1298,1782582423540,0.029999999999999999,0.02,1.01
1299,1782582423574,0.029999999999999999,0.02,1.01
1300,1782582423640,0.029999999999999999,0.02,1.01
1301,1782582423691,0.029999999999999999,0.02,1.02
1302,1782582423740,0.029999999999999999,0.02,1.02
1303,1782582423790,0.029999999999999999,0.02,1.02
1304,1782582423807,0.029999999999999999,0.02,1.02
1305,1782582423858,0.029999999999999999,0.02,1.01
1306,1782582423941,0.029999999999999999,0.02,1.01
1307,1782582424056,0.029999999999999999,0.02,1.01
1308,1782582424123,0.029999999999999999,0.02,1.01
1309,1782582424140,0.029999999999999999,0.02,1.01
1310,1782582424190,0.029999999999999999,0.02,1.01
1311,1782582424240,0.029999999999999999,0.02,1.01
1312,1782582424289,0.029999999999999999,0.02,1.01
1313,1782582424356,0.029999999999999999,0.02,1.02
1314,1782582424423,0.029999999999999999,0.02,1.01
1315,1782582424473,0.029999999999999999,0.02,1.01
1316,1782582424540,0.029999999999999999,0.02,1.01
1317,1782582424607,0.029999999999999999,0.02,1.01
1318,1782582424706,0.029999999999999999,0.02,1.01
1319,1782582424741,0.029999999999999999,0.02,1.01
1320,1782582424806,0.029999999999999999,0.02,1.01
1321,1782582424872,0.029999999999999999,0.02,1.01
1322,1782582424923,0.029999999999999999,0.02,1.01
1323,1782582425007,0.029999999999999999,0.02,1.01
1324,1782582425056,0.02,0.02,1.01
1325,1782582425106,0.02,0.02,1.01
1326,1782582425156,0.029999999999999999,0.02,1.01
1327,1782582425223,0.029999999999999999,0.02,1.01
1328,1782582425289,0.029999999999999999,0.02,1.01
1329,1782582425323,0.029999999999999999,0.02,1.01
1330,1782582425389,0.029999999999999999,0.02,1.01
1331,1782582425439,0.029999999999999999,0.02,1.01
1332,1782582425490,0.029999999999999999,0.02,1.01
1333,1782582425539,0.029999999999999999,0.01,1.01
1334,1782582425605,0.029999999999999999,0.02,1.01
1335,1782582425655,0.029999999999999999,0.02,1.01
1336,1782582425706,0.029999999999999999,0.02,1.01
1337,1782582425790,0.029999999999999999,0.02,1.01
1338,1782582425839,0.029999999999999999,0.02,1.01
1339,1782582425839,0.029999999999999999,0.02,1.02
1340,1782582425905,0.029999999999999999,0.02,1.02
1341,1782582425971,0.029999999999999999,0.02,1.01
1342,1782582426056,0.029999999999999999,0.02,1.01
1343,1782582426138,0.029999999999999999,0.02,1.01
1344,1782582426172,0.029999999999999999,0.02,1.01
1345,1782582426238,0.029999999999999999,0.02,1.01
1346,1782582426289,0.029999999999999999,0.02,1.01
1347,1782582426355,0.029999999999999999,0.02,1.02
1348,1782582426388,0.029999999999999999,0.02,1.02
1349,1782582426454,0.029999999999999999,0.02,1.01
1350,1782582426554,0.029999999999999999,0.02,1.01
1351,1782582426637,0.029999999999999999,0.02,1.01
1352,1782582426754,0.029999999999999999,0.02,1.01
1353,1782582426754,0.029999999999999999,0.02,1.01
1354,1782582426821,0.029999999999999999,0.02,1.01
1355,1782582426871,0.029999999999999999,0.02,1.01
1356,1782582426938,0.029999999999999999,0.02,1.01
1357,1782582426971,0.029999999999999999,0.02,1.01
1358,1782582427087,0.029999999999999999,0.02,1.02
1359,1782582427138,0.029999999999999999,0.02,1.02
1360,1782582427272,0.029999999999999999,0.02,1.02
1361,1782582427404,0.029999999999999999,0.02,1.01
1362,1782582427421,0.029999999999999999,0.02,1.01
1363,1782582427470,0.029999999999999999,0.02,1.01
1364,1782582427537,0.029999999999999999,0.02,1.01
1365,1782582427555,0.029999999999999999,0.02,1.01
1366,1782582427570,0.029999999999999999,0.02,1.01
1367,1782582427604,0.029999999999999999,0.02,1.01
1368,1782582427687,0.029999999999999999,0.02,1.01
1369,1782582427736,0.029999999999999999,0.02,1.01
1370,1782582427786,0.029999999999999999,0.02,1.01
1371,1782582427822,0.029999999999999999,0.02,1.01
1372,1782582427853,0.029999999999999999,0.02,1.01
1373,1782582427870,0.029999999999999999,0.02,1.01
1374,1782582427886,0.029999999999999999,0.02,1.01
1375,1782582427953,0.029999999999999999,0.02,1.01
1376,1782582428019,0.029999999999999999,0.02,1.01
1377,1782582428053,0.029999999999999999,0.02,1.01
1378,1782582428120,0.029999999999999999,0.02,1.01
1379,1782582428203,0.029999999999999999,0.02,1.01
1380,1782582428254,0.029999999999999999,0.02,1.01
1381,1782582428353,0.029999999999999999,0.02,1.01
1382,1782582428436,0.029999999999999999,0.02,1.01
1383,1782582428453,0.029999999999999999,0.02,1.01
1384,1782582428636,0.029999999999999999,0.02,1.02
1385,1782582428669,0.029999999999999999,0.02,1.02
1386,1782582428720,0.029999999999999999,0.02,1.01
1387,1782582428753,0.029999999999999999,0.02,1.01
1388,1782582428786,0.029999999999999999,0.02,1.01
1389,1782582428902,0.029999999999999999,0.02,1.01
1390,1782582428936,0.029999999999999999,0.02,1.01
1391,1782582429019,0.029999999999999999,0.02,1.01
1392,1782582429053,0.029999999999999999,0.02,1.01
1393,1782582429119,0.029999999999999999,0.02,1.02
1394,1782582429235,0.029999999999999999,0.02,1.02
1395,1782582429318,0.02,0.02,1.01
1396,1782582429337,0.02,0.02,1.01
1397,1782582429352,0.02,0.02,1.01
1398,1782582429369,0.02,0.02,1.01
1399,1782582429402,0.02,0.02,1.01
1400,1782582429485,0.02,0.02,1.01
1401,1782582429518,0.02,0.02,1.01
1402,1782582429635,0.029999999999999999,0.02,1.01
1403,1782582429670,0.029999999999999999,0.02,1.01
1404,1782582429702,0.029999999999999999,0.02,1.01
1405,1782582429752,0.029999999999999999,0.02,1.01
1406,1782582429819,0.029999999999999999,0.02,1.01
1407,1782582429852,0.02,0.02,1.01
1408,1782582429952,0.02,0.02,1.01
1409,1782582430018,0.02,0.02,1.01
1410,1782582430035,0.02,0.02,1.01
1411,1782582430051,0.02,0.02,1.01
1412,1782582430101,0.02,0.02,1.01
1413,1782582430151,0.029999999999999999,0.02,1.01
1414,1782582430184,0.029999999999999999,0.02,1.01
1415,1782582430218,0.029999999999999999,0.02,1.01
1416,1782582430251,0.029999999999999999,0.02,1.01
1417,1782582430268,0.029999999999999999,0.02,1.01
1418,1782582430301,0.029999999999999999,0.02,1.01
1419,1782582430368,0.029999999999999999,0.02,1.01
1420,1782582430451,0.029999999999999999,0.02,1.02
1421,1782582430484,0.029999999999999999,0.02,1.02
1422,1782582430535,0.029999999999999999,0.02,1.01
1423,1782582430634,0.029999999999999999,0.02,1.01
1424,1782582430817,0.029999999999999999,0.02,1.01
1425,1782582430950,0.029999999999999999,0.02,1.02
1426,1782582431001,0.029999999999999999,0.02,1.02
1427,1782582431068,0.029999999999999999,0.02,1.01
1428,1782582431084,0.02,0.02,1.01
1429,1782582431134,0.02,0.02,1.01
1430,1782582431300,0.029999999999999999,0.02,1.01
1431,1782582431317,0.029999999999999999,0.02,1.01
1432,1782582431367,0.029999999999999999,0.02,1.01
1433,1782582431383,0.029999999999999999,0.02,1.01
1434,1782582431416,0.029999999999999999,0.02,1.01
1435,1782582431484,0.029999999999999999,0.02,1.02
1436,1782582431550,0.029999999999999999,0.02,1.02
1437,1782582431651,0.029999999999999999,0.02,1.02
1438,1782582431667,0.029999999999999999,0.02,1.01
1439,1782582431700,0.029999999999999999,0.02,1.01
1440,1782582431717,0.029999999999999999,0.02,1.01
1441,1782582431734,0.029999999999999999,0.02,1.01
1442,1782582431767,0.029999999999999999,0.02,1.01
1443,1782582431833,0.029999999999999999,0.02,1.01
1444,1782582431917,0.029999999999999999,0.02,1.01
1445,1782582432000,0.029999999999999999,0.02,1.01
1446,1782582432066,0.029999999999999999,0.02,1.01
1447,1782582432083,0.029999999999999999,0.02,1.01
1448,1782582432100,0.029999999999999999,0.02,1.01
1449,1782582432133,0.029999999999999999,0.02,1.01
1450,1782582432249,0.029999999999999999,0.02,1.02
1451,1782582432333,0.029999999999999999,0.02,1.02
1452,1782582432384,0.029999999999999999,0.02,1.02
1453,1782582432416,0.029999999999999999,0.02,1.01
1454,1782582432449,0.029999999999999999,0.02,1.01
1455,1782582432483,0.029999999999999999,0.02,1.01
1456,1782582432532,0.029999999999999999,0.02,1.01
1457,1782582432583,0.029999999999999999,0.02,1.01
1458,1782582432650,0.029999999999999999,0.02,1.01
1459,1782582432699,0.029999999999999999,0.02,1.01
1460,1782582432799,0.029999999999999999,0.02,1.01
1461,1782582432851,0.029999999999999999,0.02,1.02
1462,1782582432882,0.029999999999999999,0.02,1.02
1463,1782582432934,0.029999999999999999,0.02,1.02
1464,1782582432949,0.029999999999999999,0.02,1.02
1465,1782582432966,0.029999999999999999,0.02,1.02
1466,1782582433032,0.029999999999999999,0.02,1.01
1467,1782582433100,0.029999999999999999,0.02,1.01
1468,1782582433132,0.029999999999999999,0.02,1.01
1469,1782582433165,0.029999999999999999,0.02,1.01
1470,1782582433215,0.029999999999999999,0.02,1.01
1471,1782582433266,0.029999999999999999,0.02,1.01
1472,1782582433298,0.029999999999999999,0.02,1.01
1473,1782582433332,0.029999999999999999,0.02,1.01
1474,1782582433365,0.029999999999999999,0.02,1.01
1475,1782582433415,0.029999999999999999,0.02,1.01
1476,1782582433433,0.029999999999999999,0.02,1.01
1477,1782582433483,0.029999999999999999,0.02,1.01
1478,1782582433515,0.029999999999999999,0.02,1.01
1479,1782582433550,0.029999999999999999,0.02,1.02
1480,1782582433582,0.029999999999999999,0.02,1.02
1481,1782582433648,0.029999999999999999,0.02,1.01
1482,1782582433748,0.029999999999999999,0.02,1.01
1483,1782582433815,0.029999999999999999,0.02,1.01
1484,1782582433848,0.029999999999999999,0.02,1.01
1485,1782582433864,0.029999999999999999,0.02,1.01
1486,1782582433881,0.029999999999999999,0.02,1.01
1487,1782582433948,0.029999999999999999,0.02,1.01
1488,1782582433998,0.029999999999999999,0.02,1.01
1489,1782582434014,0.029999999999999999,0.02,1.01
1490,1782582434048,0.029999999999999999,0.02,1.01
1491,1782582434081,0.029999999999999999,0.02,1.01
1492,1782582434181,0.029999999999999999,0.02,1.01
1493,1782582434248,0.029999999999999999,0.02,1.01
1494,1782582434299,0.029999999999999999,0.02,1.01
1495,1782582434365,0.029999999999999999,0.02,1.01
1496,1782582434398,0.029999999999999999,0.02,1.01
1497,1782582434415,0.029999999999999999,0.02,1.01
1498,1782582434432,0.029999999999999999,0.02,1.01
1499,1782582434465,0.029999999999999999,0.02,1.01
1500,1782582434531,0.029999999999999999,0.02,1.01
1501,1782582434597,0.029999999999999999,0.02,1.01
1502,1782582434631,0.029999999999999999,0.02,1.01
1503,1782582434681,0.029999999999999999,0.02,1.01
1504,1782582434697,0.029999999999999999,0.02,1.01
1505,1782582434731,0.029999999999999999,0.02,1.01
1506,1782582434748,0.029999999999999999,0.02,1.01
1507,1782582434764,0.029999999999999999,0.02,1.01
1508,1782582434814,0.029999999999999999,0.02,1.01
1509,1782582434847,0.029999999999999999,0.02,1.01
1510,1782582434914,0.029999999999999999,0.02,1.01
1511,1782582434964,0.029999999999999999,0.02,1.01
1512,1782582435047,0.029999999999999999,0.02,1.01
1513,1782582435080,0.029999999999999999,0.02,1.01
1514,1782582435147,0.029999999999999999,0.02,1.01
1515,1782582435164,0.029999999999999999,0.02,1.02
1516,1782582435180,0.029999999999999999,0.02,1.02
1517,1782582435213,0.029999999999999999,0.02,1.02
1518,1782582435230,0.029999999999999999,0.02,1.01
1519,1782582435263,0.029999999999999999,0.02,1.01
1520,1782582435330,0.029999999999999999,0.02,1.01
1521,1782582435397,0.029999999999999999,0.02,1.01
1522,1782582435430,0.029999999999999999,0.02,1.01
1523,1782582435446,0.029999999999999999,0.02,1.01
1524,1782582435464,0.029999999999999999,0.02,1.01
1525,1782582435498,0.029999999999999999,0.02,1.01
1526,1782582435531,0.029999999999999999,0.02,1.01
1527,1782582435614,0.029999999999999999,0.02,1.01
1528,1782582435730,0.029999999999999999,0.02,1.01
1529,1782582435813,0.029999999999999999,0.02,1.01
1530,1782582435846,0.029999999999999999,0.02,1.01
1531,1782582435913,0.029999999999999999,0.02,1.01
1532,1782582435963,0.029999999999999999,0.02,1.01
1533,1782582435980,0.029999999999999999,0.02,1.01
1534,1782582436013,0.029999999999999999,0.02,1.01
1535,1782582436030,0.029999999999999999,0.02,1.01
1536,1782582436063,0.029999999999999999,0.02,1.01
1537,1782582436080,0.029999999999999999,0.02,1.01
1538,1782582436129,0.029999999999999999,0.02,1.01
1539,1782582436180,0.029999999999999999,0.02,1.01
1540,1782582436246,0.029999999999999999,0.02,1.02
1541,1782582436279,0.029999999999999999,0.02,1.02
1542,1782582436346,0.029999999999999999,0.02,1.01
1543,1782582436363,0.029999999999999999,0.02,1.01
1544,1782582436380,0.029999999999999999,0.02,1.01
1545,1782582436446,0.029999999999999999,0.02,1.01
1546,1782582436479,0.029999999999999999,0.02,1.01
1547,1782582436514,0.029999999999999999,0.02,1.01
1548,1782582436613,0.029999999999999999,0.02,1.01
1549,1782582436663,0.029999999999999999,0.02,1.01
1550,1782582436679,0.029999999999999999,0.02,1.01
1551,1782582436696,0.029999999999999999,0.02,1.01
1552,1782582436729,0.029999999999999999,0.02,1.02
1553,1782582436762,0.029999999999999999,0.02,1.02
1554,1782582436830,0.029999999999999999,0.02,1.02
1555,1782582436863,0.029999999999999999,0.02,1.01
1556,1782582436913,0.029999999999999999,0.02,1.01
1557,1782582436946,0.029999999999999999,0.02,1.01
1558,1782582436963,0.029999999999999999,0.02,1.01
1559,1782582436996,0.029999999999999999,0.02,1.01
1560,1782582437012,0.029999999999999999,0.02,1.01
1561,1782582437029,0.029999999999999999,0.02,1.01
1562,1782582437095,0.029999999999999999,0.02,1.01
1563,1782582437129,0.029999999999999999,0.02,1.01
1564,1782582437179,0.029999999999999999,0.02,1.01
1565,1782582437245,0.029999999999999999,0.02,1.01
1566,1782582437312,0.029999999999999999,0.02,1.01
1567,1782582437345,0.029999999999999999,0.02,1.01
1568,1782582437428,0.029999999999999999,0.02,1.01
1569,1782582437479,0.029999999999999999,0.02,1.01
1570,1782582437511,0.029999999999999999,0.02,1.01
1571,1782582437545,0.029999999999999999,0.02,1.01
1572,1782582437578,0.029999999999999999,0.02,1.01
1573,1782582437595,0.029999999999999999,0.02,1.01
1574,1782582437611,0.029999999999999999,1.52,0.02
1575,1782582437728,0.029999999999999999,0.02,1.02
1576,1782582437778,0.029999999999999999,0.02,1.02
1577,1782582437795,0.029999999999999999,0.02,1.01
1578,1782582437845,0.029999999999999999,0.02,1.01
1579,1782582437895,0.029999999999999999,0.02,1.01
1580,1782582437961,0.029999999999999999,0.02,1.01
1581,1782582437995,0.029999999999999999,0.02,1.01
1582,1782582438045,0.029999999999999999,0.02,1.01
1583,1782582438128,0.029999999999999999,0.02,1.02
1584,1782582438211,0.029999999999999999,0.02,1.02
1585,1782582438328,0.029999999999999999,0.02,1.02
1586,1782582438444,0.029999999999999999,0.02,1.01
1587,1782582438494,0.029999999999999999,0.02,1.01
1588,1782582438544,0.029999999999999999,0.02,1.01
1589,1782582438577,0.029999999999999999,0.02,1.01
1590,1782582438644,0.029999999999999999,0.02,1.01
1591,1782582438677,0.029999999999999999,0.02,1.01
1592,1782582438777,0.029999999999999999,0.02,1.01
1593,1782582438927,0.029999999999999999,0.02,1.01
1594,1782582438944,0.029999999999999999,0.02,1.01
1595,1782582438994,0.029999999999999999,0.02,1.01
1596,1782582439077,0.029999999999999999,0.02,1.01
1597,1782582439143,0.029999999999999999,0.02,1.01
1598,1782582439194,0.029999999999999999,0.02,1.01
1599,1782582439277,0.029999999999999999,0.02,1.01
1600,1782582439327,0.029999999999999999,0.02,1.01
1601,1782582439443,0.029999999999999999,0.02,1.01
1602,1782582439526,0.029999999999999999,0.02,1.01
1603,1782582439544,0.02,0.02,1.01
1604,1782582439577,0.02,0.02,1.01
1605,1782582439610,0.02,0.02,1.01
1606,1782582439693,0.02,0.02,1.02
1607,1782582439777,0.029999999999999999,0.02,1.01
1608,1782582439810,0.029999999999999999,0.02,1.01
1609,1782582439843,0.029999999999999999,0.02,1.01
1610,1782582439859,0.029999999999999999,0.02,1.01
1611,1782582439943,0.029999999999999999,0.02,1.01
1612,1782582439993,0.029999999999999999,0.02,1.01
1613,1782582440060,0.029999999999999999,0.02,1.01
1614,1782582440093,0.029999999999999999,0.02,1.01
1615,1782582440143,0.029999999999999999,0.02,1.01
1616,1782582440176,0.029999999999999999,0.02,1.01
1617,1782582440226,0.029999999999999999,0.02,1.01
1618,1782582440293,0.029999999999999999,0.02,1.01
1619,1782582440359,0.029999999999999999,0.02,1.01
1620,1782582440459,0.029999999999999999,0.02,1.01
1621,1782582440575,0.029999999999999999,0.02,1.01
1622,1782582440625,0.029999999999999999,0.02,1.01
1623,1782582440675,0.029999999999999999,0.02,1.01
1624,1782582440725,0.029999999999999999,0.02,1.01
1625,1782582440759,0.02,0.02,1.01
1626,1782582441009,0.029999999999999999,0.02,1.01
1627,1782582441075,0.029999999999999999,0.02,1.01
1628,1782582441141,0.029999999999999999,0.02,1.01
1629,1782582441208,0.029999999999999999,0.02,1.01
1630,1782582441242,0.029999999999999999,0.02,1.02
1631,1782582441342,0.029999999999999999,0.02,1.02
1632,1782582441392,0.029999999999999999,0.02,1.02
1633,1782582441425,0.029999999999999999,0.02,1.02
1634,1782582441491,0.029999999999999999,0.02,1.02
1635,1782582441542,0.029999999999999999,0.02,1.01
1636,1782582441558,0.029999999999999999,0.02,1.01
1637,1782582441608,0.029999999999999999,0.02,1.01
1638,1782582441626,0.029999999999999999,0.02,1.01
1639,1782582441658,0.029999999999999999,0.02,1.01
1640,1782582441724,0.029999999999999999,0.02,1.01
1641,1782582441774,0.029999999999999999,0.02,1.01
1642,1782582441858,0.029999999999999999,0.02,1.01
1643,1782582441875,0.029999999999999999,0.02,1.01
1644,1782582441891,0.029999999999999999,0.02,1.01
1645,1782582441974,0.029999999999999999,0.02,1.01
1646,1782582442008,0.029999999999999999,0.02,1.01
1647,1782582442057,0.029999999999999999,0.02,1.01
1648,1782582442158,0.029999999999999999,0.02,1.02
1649,1782582442241,0.029999999999999999,0.02,1.01
1650,1782582442307,0.029999999999999999,0.02,1.01
1651,1782582442391,0.029999999999999999,0.02,1.01
1652,1782582442424,0.029999999999999999,0.02,1.01
1653,1782582442490,0.029999999999999999,0.02,1.01
1654,1782582442540,0.029999999999999999,0.02,1.01
1655,1782582442607,0.029999999999999999,0.02,1.01
1656,1782582442641,0.029999999999999999,0.02,1.01
1657,1782582442691,0.029999999999999999,0.02,1.01
1658,1782582442757,0.029999999999999999,0.02,1.01
1659,1782582442824,0.029999999999999999,0.02,1.01
1660,1782582442874,0.029999999999999999,0.02,1.01
1661,1782582442957,0.029999999999999999,0.02,1.01
1662,1782582443123,0.029999999999999999,0.02,1.02
1663,1782582443157,0.029999999999999999,0.02,1.02
1664,1782582443208,0.029999999999999999,0.02,1.01
1665,1782582443257,0.029999999999999999,0.02,1.01
1666,1782582443440,0.029999999999999999,0.02,1.01
1667,1782582443574,0.029999999999999999,0.02,1.01
1668,1782582443641,0.029999999999999999,0.02,1.01
1669,1782582443707,0.029999999999999999,0.02,1.01
1670,1782582443740,0.029999999999999999,0.02,1.01
1671,1782582443807,0.029999999999999999,0.02,1.01
1672,1782582443856,0.029999999999999999,0.02,1.01
1673,1782582443923,0.029999999999999999,0.02,1.01
1674,1782582443989,0.029999999999999999,0.02,1.01
1675,1782582444056,0.029999999999999999,0.02,1.01
1676,1782582444123,0.029999999999999999,0.02,1.01
1677,1782582444256,0.029999999999999999,0.02,1.01
1678,1782582444289,0.029999999999999999,0.02,1.01
1679,1782582444340,0.029999999999999999,0.02,1.01
1680,1782582444423,0.029999999999999999,0.02,1.01
1681,1782582444457,0.029999999999999999,0.02,1.01
1682,1782582444474,0.029999999999999999,0.02,1.01
1683,1782582444506,0.029999999999999999,0.02,1.01
1684,1782582444522,0.029999999999999999,0.02,1.01
1685,1782582444540,0.029999999999999999,0.02,1.01
1686,1782582444606,0.029999999999999999,0.02,1.01
1687,1782582444655,0.029999999999999999,0.02,1.01
1688,1782582444807,0.029999999999999999,0.02,1.01
1689,1782582444872,0.029999999999999999,0.02,1.01
1690,1782582444905,0.029999999999999999,0.02,1.01
1691,1782582444922,0.029999999999999999,0.02,1.01
1692,1782582444955,0.029999999999999999,0.02,1.01
1693,1782582445005,0.029999999999999999,0.02,1.01
1694,1782582445056,0.029999999999999999,0.02,1.01
1695,1782582445155,0.029999999999999999,0.02,1.01
1696,1782582445205,0.029999999999999999,0.02,1.01
1697,1782582445289,0.029999999999999999,0.02,1.01
1698,1782582445339,0.029999999999999999,0.02,1.01
1699,1782582445422,0.029999999999999999,0.02,1.01
1700,1782582445488,0.029999999999999999,0.02,1.01
1701,1782582445538,0.029999999999999999,0.02,1.02
1702,1782582445639,0.029999999999999999,0.02,1.02
1703,1782582445672,0.029999999999999999,0.02,1.01
1704,1782582445755,0.029999999999999999,0.02,1.01
1705,1782582445838,0.029999999999999999,0.02,1.01
1706,1782582445904,0.02,0.02,1.01
1707,1782582445971,0.029999999999999999,0.02,1.01
1708,1782582446021,0.02,0.02,1.01
1709,1782582446104,0.02,0.02,1.01
1710,1782582446188,0.02,0.02,1.01
1711,1782582446254,0.029999999999999999,0.02,1.01
1712,1782582446271,0.029999999999999999,0.02,1.01
1713,1782582446304,0.029999999999999999,0.02,1.01
1714,1782582446321,0.029999999999999999,0.02,1.01
1715,1782582446338,0.029999999999999999,0.02,1.01
1716,1782582446388,0.029999999999999999,0.02,1.01
1717,1782582446438,0.029999999999999999,0.02,1.01
1718,1782582446487,0.029999999999999999,0.02,1.01
1719,1782582446520,0.029999999999999999,0.02,1.01
1720,1782582446554,0.029999999999999999,0.02,1.01
1721,1782582446587,0.029999999999999999,0.02,1.01
1722,1782582446687,0.029999999999999999,0.02,1.01
1723,1782582446737,0.029999999999999999,0.02,1.02
1724,1782582446821,0.029999999999999999,0.02,1.01
1725,1782582446872,0.029999999999999999,0.02,1.01
1726,1782582446887,0.029999999999999999,0.02,1.01
1727,1782582446904,0.029999999999999999,0.02,1.01
1728,1782582446937,0.029999999999999999,0.02,1.01
1729,1782582447020,0.029999999999999999,0.02,1.01
1730,1782582447070,0.029999999999999999,0.02,1.01
1731,1782582447120,0.029999999999999999,0.02,1.01
1732,1782582447171,0.029999999999999999,0.02,1.01
1733,1782582447204,0.029999999999999999,0.02,1.01
1734,1782582447236,0.029999999999999999,0.02,1.01
1735,1782582447253,0.029999999999999999,0.02,1.01
1736,1782582447287,0.029999999999999999,0.02,1.01
1737,1782582447370,0.029999999999999999,0.02,1.01
1738,1782582447421,0.029999999999999999,0.02,1.01
1739,1782582447455,0.029999999999999999,0.02,1.01
1740,1782582447487,0.029999999999999999,0.02,1.01
1741,1782582447503,0.029999999999999999,0.02,1.01
1742,1782582447520,0.029999999999999999,0.02,1.01
1743,1782582447553,0.029999999999999999,0.02,1.01
1744,1782582447587,0.029999999999999999,0.02,1.01
1745,1782582447670,0.029999999999999999,0.02,1.01
1746,1782582447686,0.029999999999999999,0.02,1.01
1747,1782582447753,0.029999999999999999,0.02,1.01
1748,1782582447787,0.029999999999999999,0.02,1.01
1749,1782582447803,0.029999999999999999,0.02,1.01
1750,1782582447852,0.029999999999999999,0.02,1.01
1751,1782582447936,0.029999999999999999,0.02,1.01
1752,1782582447986,0.029999999999999999,0.02,1.01
1753,1782582448003,0.029999999999999999,0.02,1.01
1754,1782582448019,0.029999999999999999,0.02,1.01
1755,1782582448052,0.029999999999999999,0.02,1.01
1756,1782582448120,0.029999999999999999,0.02,1.01
1757,1782582448169,0.029999999999999999,0.02,1.01
1758,1782582448270,0.029999999999999999,0.02,1.01
1759,1782582448402,0.029999999999999999,0.02,1.01
1760,1782582448402,0.029999999999999999,0.02,1.01
1761,1782582448436,0.029999999999999999,0.02,1.01
1762,1782582448502,0.029999999999999999,0.02,1.01
1763,1782582448536,0.029999999999999999,0.02,1.01
1764,1782582448620,0.029999999999999999,0.02,1.01
1765,1782582448652,0.029999999999999999,0.02,1.01
1766,1782582448669,0.029999999999999999,0.02,1.01
1767,1782582448702,0.029999999999999999,0.02,1.01
1768,1782582448719,0.029999999999999999,0.02,1.01
1769,1782582448753,0.029999999999999999,0.02,1.01
1770,1782582448819,0.029999999999999999,0.02,1.01
1771,1782582448852,0.029999999999999999,0.02,1.01
1772,1782582448886,0.029999999999999999,0.02,1.01
1773,1782582448919,0.029999999999999999,0.02,1.01
1774,1782582448985,0.029999999999999999,0.02,1.01
1775,1782582449052,0.029999999999999999,0.02,1.01
1776,1782582449085,0.029999999999999999,0.02,1.01
1777,1782582449153,0.029999999999999999,0.02,1.01
1778,1782582449202,0.029999999999999999,0.02,1.02
1779,1782582449285,0.029999999999999999,0.02,1.02
1780,1782582449301,0.029999999999999999,0.02,1.02
1781,1782582449385,0.029999999999999999,0.02,1.01
1782,1782582449452,0.029999999999999999,0.02,1.01
1783,1782582449501,0.029999999999999999,0.02,1.01
1784,1782582449551,0.029999999999999999,0.02,1.01
1785,1782582449601,0.029999999999999999,0.02,1.01
1786,1782582449734,0.029999999999999999,0.02,1.01
1787,1782582449751,0.029999999999999999,0.02,1.01
1788,1782582449801,0.029999999999999999,0.02,1.01
1789,1782582449868,0.029999999999999999,0.02,1.01
1790,1782582449918,0.029999999999999999,0.02,1.01
1791,1782582449952,0.029999999999999999,0.02,1.01
1792,1782582450018,0.029999999999999999,0.01,1.01
1793,1782582450051,0.029999999999999999,0.01,1.02
1794,1782582450084,0.029999999999999999,0.01,1.02
1795,1782582450117,0.029999999999999999,0.01,1.02
1796,1782582450134,0.029999999999999999,0.02,1.01
1797,1782582450151,0.029999999999999999,0.02,1.01
1798,1782582450201,0.029999999999999999,0.02,1.01
1799,1782582450284,0.029999999999999999,0.02,1.01
1800,1782582450434,0.029999999999999999,0.02,1.01
1801,1782582450451,0.029999999999999999,0.02,1.01
1802,1782582450501,0.029999999999999999,0.02,1.01
1803,1782582450534,0.029999999999999999,0.02,1.01
1804,1782582450550,0.029999999999999999,0.02,1.01
1805,1782582450601,0.029999999999999999,0.02,1.01
1806,1782582450767,0.029999999999999999,0.02,1.01
1807,1782582450818,0.029999999999999999,0.02,1.01
1808,1782582450850,0.029999999999999999,0.02,1.01
1809,1782582450883,0.029999999999999999,0.02,1.01
1810,1782582450934,0.029999999999999999,0.02,1.01
1811,1782582451000,0.029999999999999999,0.02,1.01
1812,1782582451017,0.029999999999999999,0.02,1.01
1813,1782582451050,0.029999999999999999,0.02,1.01
1814,1782582451083,0.029999999999999999,0.02,1.01
1815,1782582451233,0.029999999999999999,0.02,1.01
1816,1782582451366,0.029999999999999999,0.02,1.01
1817,1782582451450,0.029999999999999999,0.02,1.01
1818,1782582451483,0.029999999999999999,0.02,1.02
1819,1782582451534,0.029999999999999999,0.02,1.02
1820,1782582451617,0.029999999999999999,0.02,1.02
1821,1782582451717,0.029999999999999999,0.02,1.02
1822,1782582451767,0.029999999999999999,0.02,1.01
1823,1782582451867,0.029999999999999999,0.02,1.01
1824,1782582451899,0.029999999999999999,0.02,1.01
1825,1782582452017,0.029999999999999999,0.02,1.01
1826,1782582452066,0.029999999999999999,0.02,1.01
1827,1782582452100,0.029999999999999999,0.02,1.01
1828,1782582452149,0.029999999999999999,0.02,1.02
1829,1782582452199,0.029999999999999999,0.02,1.02
1830,1782582452267,0.029999999999999999,0.02,1.01
1831,1782582452316,0.029999999999999999,0.02,1.01
1832,1782582452416,0.029999999999999999,0.02,1.01
1833,1782582452483,0.029999999999999999,0.02,1.01
1834,1782582452549,0.029999999999999999,0.02,1.01
1835,1782582452549,0.029999999999999999,0.02,1.01
1836,1782582452582,0.029999999999999999,0.02,1.01
1837,1782582452649,0.029999999999999999,0.02,1.01
1838,1782582452766,0.029999999999999999,0.02,1.02
1839,1782582452849,0.029999999999999999,0.02,1.01
1840,1782582452866,0.029999999999999999,0.02,1.01
1841,1782582452966,0.029999999999999999,0.02,1.01
1842,1782582453050,0.029999999999999999,0.02,1.01
1843,1782582453133,0.029999999999999999,0.02,1.01
1844,1782582453165,0.029999999999999999,0.02,1.02
1845,1782582453315,0.029999999999999999,0.02,1.02
1846,1782582453365,0.02,0.02,1.02
1847,1782582453399,0.02,0.02,1.02
1848,1782582453465,0.029999999999999999,0.02,1.02
1849,1782582453532,0.029999999999999999,0.02,1.02
1850,1782582453565,0.029999999999999999,0.02,1.02
1851,1782582453615,0.029999999999999999,0.02,1.02
1852,1782582453682,0.029999999999999999,0.02,1.02
1853,1782582453782,0.029999999999999999,0.02,1.01
1854,1782582453848,0.029999999999999999,0.02,1.01
1855,1782582453914,0.029999999999999999,0.02,1.01
1856,1782582453949,0.029999999999999999,0.02,1.01
1857,1782582454048,0.029999999999999999,0.02,1.02
1858,1782582454081,0.029999999999999999,0.02,1.01
1859,1782582454264,0.029999999999999999,0.02,1.01
1860,1782582454297,0.029999999999999999,0.02,1.01
1861,1782582454314,0.029999999999999999,0.02,1.01
1862,1782582454364,0.029999999999999999,0.02,1.01
1863,1782582454415,0.029999999999999999,0.02,1.01
1864,1782582454548,0.029999999999999999,0.02,1.01
1865,1782582454581,0.029999999999999999,0.02,1.01
1866,1782582454615,0.029999999999999999,0.02,1.01
1867,1782582454631,0.029999999999999999,0.02,1.01
1868,1782582454649,0.029999999999999999,0.02,1.01
1869,1782582454697,0.029999999999999999,0.02,1.01
1870,1782582454730,0.029999999999999999,0.02,1.02
1871,1782582454780,0.029999999999999999,0.02,1.02
1872,1782582454847,0.029999999999999999,0.02,1.02
1873,1782582455097,0.029999999999999999,0.02,1.01
1874,1782582455196,0.029999999999999999,0.02,1.01
1875,1782582455247,0.029999999999999999,0.02,1.01
1876,1782582455313,0.029999999999999999,0.02,1.01
1877,1782582455346,0.029999999999999999,0.02,1.01
1878,1782582455396,0.029999999999999999,0.02,1.01
1879,1782582455480,0.029999999999999999,0.02,1.01
1880,1782582455530,0.029999999999999999,0.02,1.01
1881,1782582455580,0.029999999999999999,0.02,1.01
1882,1782582455630,0.029999999999999999,0.02,1.01
1883,1782582455730,0.029999999999999999,0.02,1.01
1884,1782582455746,0.029999999999999999,0.02,1.01
1885,1782582455763,0.029999999999999999,0.02,1.02
1886,1782582455814,0.029999999999999999,0.02,1.01
1887,1782582455896,0.029999999999999999,0.02,1.01
1888,1782582455929,0.029999999999999999,0.02,1.01
1889,1782582455980,0.029999999999999999,0.02,1.01
1890,1782582456013,0.029999999999999999,0.02,1.01
1891,1782582456029,0.029999999999999999,0.02,1.01
1892,1782582456046,0.029999999999999999,0.02,1.01
1893,1782582456079,0.029999999999999999,0.02,1.01
1894,1782582456112,0.029999999999999999,0.02,1.01
1895,1782582456163,0.029999999999999999,0.02,1.01
1896,1782582456262,0.029999999999999999,0.02,1.01
1897,1782582456279,0.029999999999999999,0.02,1.02
1898,1782582456313,0.029999999999999999,0.02,1.02
1899,1782582456345,0.029999999999999999,0.02,1.02
1900,1782582456379,0.029999999999999999,0.02,1.01
1901,1782582456430,0.029999999999999999,0.02,1.01
1902,1782582456529,0.029999999999999999,0.02,1.01
1903,1782582456562,0.029999999999999999,0.02,1.01
1904,1782582456612,0.029999999999999999,0.02,1.01
1905,1782582456712,0.029999999999999999,0.02,1.01
1906,1782582456795,0.029999999999999999,0.02,1.01
1907,1782582456812,0.029999999999999999,0.02,1.01
1908,1782582456845,0.029999999999999999,0.02,1.02
1909,1782582456895,0.029999999999999999,0.02,1.01
1910,1782582456995,0.029999999999999999,0.02,1.01
1911,1782582457061,0.029999999999999999,0.02,1.01
1912,1782582457162,0.029999999999999999,0.02,1.01
1913,1782582457212,0.029999999999999999,0.02,1.01
1914,1782582457278,0.029999999999999999,0.02,1.02
1915,1782582457345,0.029999999999999999,0.02,1.02
1916,1782582457345,0.029999999999999999,0.02,1.02
1917,1782582457378,0.029999999999999999,0.02,1.02
1918,1782582457395,0.029999999999999999,0.02,1.02
1919,1782582457412,0.029999999999999999,0.02,1.01
1920,1782582457478,0.029999999999999999,0.02,1.01
1921,1782582457545,0.029999999999999999,0.02,1.02
1922,1782582457579,0.029999999999999999,0.02,1.02
1923,1782582457611,0.029999999999999999,0.02,1.02
1924,1782582457628,0.029999999999999999,0.02,1.02
1925,1782582457644,0.029999999999999999,0.02,1.01
1926,1782582457662,0.029999999999999999,0.02,1.01
1927,1782582457728,0.029999999999999999,0.02,1.01
1928,1782582457795,0.029999999999999999,0.02,1.01
1929,1782582457861,0.029999999999999999,0.02,1.01
1930,1782582457911,0.029999999999999999,0.02,1.01
1931,1782582458012,0.029999999999999999,0.02,1.01
1932,1782582458061,0.029999999999999999,0.02,1.01
1933,1782582458111,0.029999999999999999,0.02,1.01
1934,1782582458161,0.029999999999999999,0.02,1.02
1935,1782582458228,0.029999999999999999,0.02,1.02
1936,1782582458261,0.029999999999999999,0.02,1.02
1937,1782582458360,0.029999999999999999,0.02,1.01
1938,1782582458427,0.029999999999999999,0.02,1.01
1939,1782582458527,0.029999999999999999,0.02,1.01
1940,1782582458544,0.029999999999999999,0.02,1.01
1941,1782582458611,0.029999999999999999,0.02,1.01
1942,1782582458677,0.029999999999999999,0.02,1.01
1943,1782582458710,0.029999999999999999,0.02,1.01
1944,1782582458777,0.029999999999999999,0.02,1.01
1945,1782582458827,0.029999999999999999,0.02,1.01
1946,1782582458844,0.029999999999999999,0.02,1.01
1947,1782582458893,0.029999999999999999,0.02,1.01
1948,1782582458977,0.029999999999999999,0.02,1.01
1949,1782582459093,0.029999999999999999,0.02,1.01
1950,1782582459093,0.029999999999999999,0.02,1.01
1951,1782582459160,0.029999999999999999,0.02,1.01
1952,1782582459227,0.029999999999999999,0.02,1.01
1953,1782582459277,0.029999999999999999,0.02,1.01
1954,1782582459326,0.029999999999999999,0.02,1.01
1955,1782582459376,0.029999999999999999,0.02,1.01
1956,1782582459426,0.029999999999999999,0.02,1.01
1957,1782582459493,0.029999999999999999,0.02,1.01
1958,1782582459576,0.029999999999999999,0.02,1.01
1959,1782582459659,0.029999999999999999,0.02,1.01
1960,1782582459709,0.029999999999999999,0.02,1.01
1961,1782582459760,0.029999999999999999,0.02,1.01
1962,1782582459809,0.029999999999999999,0.02,1.01
1963,1782582459876,0.029999999999999999,0.02,1.02
1964,1782582459909,0.029999999999999999,0.02,1.02
1965,1782582459976,0.029999999999999999,0.02,1.02
1966,1782582460010,0.029999999999999999,0.02,1.01
1967,1782582460059,0.029999999999999999,0.02,1.01
1968,1782582460093,0.029999999999999999,0.02,1.01
1969,1782582460159,0.029999999999999999,0.02,1.01
1970,1782582460209,0.029999999999999999,0.02,1.01
1971,1782582460276,0.029999999999999999,0.02,1.01
1972,1782582460343,0.029999999999999999,0.02,1.01
1973,1782582460409,0.029999999999999999,0.02,1.01
1974,1782582460475,0.029999999999999999,0.02,1.01
1975,1782582460643,0.029999999999999999,0.02,1.01
1976,1782582460692,0.029999999999999999,0.02,1.01
1977,1782582460759,0.029999999999999999,0.02,1.01
1978,1782582460809,0.029999999999999999,0.02,1.01
1979,1782582460909,0.029999999999999999,0.02,1.01
1980,1782582460992,0.029999999999999999,0.02,1.01
1981,1782582461109,0.029999999999999999,0.02,1.02
1982,1782582461208,0.029999999999999999,0.02,1.01
1983,1782582461259,0.029999999999999999,0.02,1.01
1984,1782582461309,0.029999999999999999,0.02,1.01
1985,1782582461358,0.029999999999999999,0.02,1.01
1986,1782582461408,0.029999999999999999,0.02,1.01
1987,1782582461458,0.029999999999999999,0.02,1.01
1988,1782582461459,0.029999999999999999,0.02,1.01
1989,1782582461509,0.029999999999999999,0.02,1.01
1990,1782582461608,0.029999999999999999,0.02,1.02
1991,1782582461658,0.029999999999999999,0.02,1.02
1992,1782582461725,0.029999999999999999,0.02,1.02
1993,1782582461758,0.029999999999999999,0.02,1.01
1994,1782582461824,0.029999999999999999,0.02,1.01
1995,1782582461875,0.029999999999999999,0.02,1.01
1996,1782582461941,0.029999999999999999,0.02,1.01
1997,1782582462024,0.029999999999999999,0.02,1.01
1998,1782582462108,0.029999999999999999,0.02,1.01
1999,1782582462174,0.029999999999999999,0.02,1.01
2000,1782582462240,0.029999999999999999,0.02,1.01
2001,1782582462290,0.029999999999999999,0.02,1.01
2002,1782582462340,0.029999999999999999,0.02,1.01
2003,1782582462408,0.029999999999999999,0.02,1.01
2004,1782582462508,0.029999999999999999,0.02,1.01
2005,1782582462557,0.029999999999999999,0.02,1.01
2006,1782582462591,0.029999999999999999,0.02,1.01
2007,1782582462624,0.029999999999999999,0.02,1.01
2008,1782582462641,0.029999999999999999,0.02,1.01
2009,1782582462691,0.029999999999999999,0.02,1.01
2010,1782582462724,0.029999999999999999,0.02,1.01
2011,1782582462807,0.029999999999999999,0.02,1.01
2012,1782582462890,0.029999999999999999,0.02,1.01
2013,1782582462924,0.029999999999999999,0.02,1.01
2014,1782582462940,0.029999999999999999,0.02,1.01
2015,1782582462990,0.029999999999999999,0.02,1.01
2016,1782582463040,0.029999999999999999,0.02,1.01
2017,1782582463090,0.029999999999999999,0.02,1.01
2018,1782582463207,0.029999999999999999,0.02,1.01
2019,1782582463340,0.029999999999999999,0.02,1.01
2020,1782582463390,0.029999999999999999,0.02,1.01
2021,1782582463440,0.029999999999999999,0.02,1.01
2022,1782582463506,0.029999999999999999,0.02,1.02
2023,1782582463556,0.029999999999999999,0.02,1.01
2024,1782582463606,0.029999999999999999,0.02,1.02
2025,1782582463639,0.029999999999999999,0.02,1.02
2026,1782582463739,0.029999999999999999,0.02,1.02
2027,1782582463889,0.029999999999999999,0.02,1.02
2028,1782582463940,0.029999999999999999,0.02,1.01
2029,1782582463989,0.029999999999999999,0.02,1.01
2030,1782582464022,0.029999999999999999,0.02,1.01
2031,1782582464089,0.029999999999999999,0.02,1.01
2032,1782582464139,0.029999999999999999,0.02,1.01
2033,1782582464189,0.029999999999999999,0.02,1.01
2034,1782582464239,0.029999999999999999,0.02,1.02
2035,1782582464289,0.029999999999999999,0.02,1.02
2036,1782582464339,0.029999999999999999,0.02,1.02
2037,1782582464356,0.029999999999999999,0.02,1.01
2038,1782582464439,0.029999999999999999,0.02,1.01
2039,1782582464505,0.029999999999999999,0.02,1.02
2040,1782582464539,0.029999999999999999,0.02,1.02
2041,1782582464572,0.029999999999999999,0.02,1.02
2042,1782582464606,0.029999999999999999,0.02,1.02
2043,1782582464655,0.029999999999999999,0.02,1.02
2044,1782582464672,0.029999999999999999,0.02,1.01
2045,1782582464722,0.029999999999999999,0.02,1.01
2046,1782582464789,0.029999999999999999,0.02,1.01
2047,1782582464839,0.029999999999999999,0.02,1.01
2048,1782582464905,0.029999999999999999,0.02,1.01
2049,1782582464972,0.029999999999999999,0.02,1.02
2050,1782582465022,0.029999999999999999,0.02,1.02
2051,1782582465071,0.029999999999999999,0.02,1.02
2052,1782582465088,0.029999999999999999,0.02,1.02
2053,1782582465122,0.029999999999999999,0.02,1.01
2054,1782582465172,0.029999999999999999,0.02,1.01
2055,1782582465222,0.029999999999999999,0.02,1.01
2056,1782582465273,0.029999999999999999,0.02,1.01
2057,1782582465322,0.029999999999999999,0.02,1.01
2058,1782582465354,0.029999999999999999,0.02,1.01
2059,1782582465372,0.029999999999999999,0.02,1.01
2060,1782582465405,0.029999999999999999,0.02,1.01
2061,1782582465488,0.029999999999999999,0.02,1.01
2062,1782582465555,0.029999999999999999,0.02,1.01
2063,1782582465604,0.029999999999999999,0.02,1.01
2064,1782582465638,0.029999999999999999,0.02,1.02
2065,1782582465671,0.029999999999999999,0.02,1.02
2066,1782582465704,0.029999999999999999,0.02,1.02
2067,1782582465721,0.029999999999999999,0.02,1.01
2068,1782582465772,0.029999999999999999,0.02,1.01
2069,1782582465838,0.029999999999999999,0.02,1.01
2070,1782582465904,0.029999999999999999,0.02,1.01
2071,1782582465937,0.029999999999999999,0.02,1.01
2072,1782582465954,0.029999999999999999,0.02,1.01
2073,1782582465971,0.029999999999999999,0.02,1.01
2074,1782582466005,0.029999999999999999,0.02,1.01
2075,1782582466037,0.029999999999999999,0.02,1.01
2076,1782582466137,0.029999999999999999,0.02,1.01
2077,1782582466204,0.029999999999999999,0.02,1.01
2078,1782582466288,0.029999999999999999,0.02,1.02
2079,1782582466304,0.029999999999999999,0.02,1.02
2080,1782582466322,0.029999999999999999,0.02,1.01
2081,1782582466354,0.029999999999999999,0.02,1.01
2082,1782582466387,0.029999999999999999,0.02,1.01
2083,1782582466471,0.029999999999999999,0.02,1.01
2084,1782582466487,0.029999999999999999,0.02,1.01
2085,1782582466554,0.029999999999999999,0.02,1.01
2086,1782582466587,0.029999999999999999,0.02,1.01
2087,1782582466604,0.029999999999999999,0.02,1.01
2088,1782582466671,0.029999999999999999,0.02,1.02
2089,1782582466687,0.029999999999999999,0.02,1.02
2090,1782582466720,0.029999999999999999,0.02,1.02
2091,1782582466754,0.029999999999999999,0.02,1.02
2092,1782582466820,0.029999999999999999,0.02,1.01
2093,1782582466837,0.029999999999999999,0.02,1.01
2094,1782582466870,0.029999999999999999,0.02,1.01
2095,1782582466887,0.029999999999999999,0.02,1.01
2096,1782582466903,0.029999999999999999,0.02,1.01
2097,1782582466937,0.029999999999999999,0.02,1.01
2098,1782582467004,0.029999999999999999,0.02,1.01
2099,1782582467053,0.029999999999999999,0.02,1.01
2100,1782582467120,0.029999999999999999,0.02,1.01
2101,1782582467170,0.029999999999999999,0.02,1.01
2102,1782582467220,0.029999999999999999,0.02,1.01
2103,1782582467270,0.029999999999999999,0.02,1.02
2104,1782582467337,0.029999999999999999,0.02,1.02
2105,1782582467370,0.029999999999999999,0.02,1.01
2106,1782582467403,0.029999999999999999,0.02,1.01
2107,1782582467420,0.029999999999999999,0.02,1.01
2108,1782582467453,0.029999999999999999,0.02,1.01
2109,1782582467520,0.029999999999999999,0.02,1.01
2110,1782582467620,0.029999999999999999,0.02,1.01
2111,1782582467703,0.029999999999999999,0.02,1.01
2112,1782582467736,0.029999999999999999,0.02,1.01
2113,1782582467819,0.029999999999999999,0.02,1.01
2114,1782582467869,0.029999999999999999,0.02,1.01
2115,1782582467920,0.029999999999999999,0.02,1.01
2116,1782582467970,0.029999999999999999,0.02,1.01
2117,1782582468003,0.029999999999999999,0.02,1.01
2118,1782582468036,0.029999999999999999,0.02,1.01
2119,1782582468052,0.029999999999999999,0.02,1.01
2120,1782582468136,0.029999999999999999,0.02,1.01
2121,1782582468169,0.029999999999999999,0.02,1.01
2122,1782582468320,0.029999999999999999,0.02,1.01
2123,1782582468369,0.029999999999999999,0.02,1.01
2124,1782582468402,0.029999999999999999,0.02,1.02
2125,1782582468435,0.029999999999999999,0.02,1.01
2126,1782582468469,0.029999999999999999,0.02,1.01
2127,1782582468519,0.029999999999999999,0.02,1.01
2128,1782582468569,0.029999999999999999,0.02,1.01
2129,1782582468586,0.029999999999999999,0.02,1.01
2130,1782582468619,0.029999999999999999,0.02,1.01
2131,1782582468636,0.029999999999999999,0.02,1.01
2132,1782582468652,0.029999999999999999,0.02,1.01
2133,1782582468685,0.029999999999999999,0.02,1.01
2134,1782582468752,0.029999999999999999,0.02,1.01
2135,1782582468852,0.029999999999999999,0.02,1.01
2136,1782582468902,0.029999999999999999,0.02,1.01
2137,1782582468935,0.029999999999999999,0.02,1.01
2138,1782582468985,0.029999999999999999,0.02,1.01
2139,1782582469002,0.029999999999999999,0.02,1.01
2140,1782582469051,0.029999999999999999,0.02,1.01
2141,1782582469102,0.029999999999999999,0.02,1.01
2142,1782582469152,0.029999999999999999,0.02,1.02
2143,1782582469185,0.029999999999999999,0.02,1.01
2144,1782582469202,0.029999999999999999,0.02,1.01
2145,1782582469235,0.029999999999999999,0.02,1.01
2146,1782582469268,0.029999999999999999,0.02,1.01
2147,1782582469285,0.029999999999999999,0.02,1.01
2148,1782582469401,0.029999999999999999,0.02,1.01
2149,1782582469468,0.029999999999999999,0.02,1.01
2150,1782582469485,0.029999999999999999,0.02,1.01
2151,1782582469535,0.029999999999999999,0.02,1.01
2152,1782582469601,0.029999999999999999,0.02,1.02
2153,1782582469634,0.029999999999999999,0.02,1.01
2154,1782582469684,0.029999999999999999,0.02,1.01
2155,1782582469735,0.029999999999999999,0.02,1.01
2156,1782582469802,0.029999999999999999,0.02,1.01
2157,1782582469851,0.029999999999999999,0.02,1.01
2158,1782582469935,0.029999999999999999,0.02,1.01
2159,1782582470017,0.029999999999999999,0.02,1.01
2160,1782582470051,0.029999999999999999,0.02,1.01
2161,1782582470151,0.029999999999999999,0.02,1.01
2162,1782582470234,0.029999999999999999,0.02,1.01
2163,1782582470317,0.029999999999999999,0.02,1.01
2164,1782582470334,0.029999999999999999,0.02,1.01
2165,1782582470350,0.029999999999999999,0.02,1.01
2166,1782582470434,0.029999999999999999,0.02,1.01
2167,1782582470500,0.029999999999999999,0.02,1.01
2168,1782582470534,0.029999999999999999,0.02,1.01
2169,1782582470684,0.029999999999999999,0.02,1.02
2170,1782582470700,0.029999999999999999,0.02,1.01
2171,1782582470733,0.029999999999999999,0.02,1.01
2172,1782582470750,0.029999999999999999,0.02,1.01
2173,1782582470800,0.029999999999999999,0.02,1.01
2174,1782582470867,0.029999999999999999,0.02,1.01
2175,1782582470901,0.029999999999999999,0.02,1.01
2176,1782582470950,0.029999999999999999,0.02,1.01
2177,1782582470966,0.029999999999999999,0.02,1.1399999999999999
2178,1782582471001,0.02,1.52,1.01
2179,1782582471150,0.029999999999999999,0.02,1
2180,1782582471200,0.029999999999999999,0.02,1
2181,1782582471283,0.029999999999999999,0.02,1
2182,1782582471333,0.029999999999999999,0.02,1.01
2183,1782582471350,0.029999999999999999,0.02,1.01
2184,1782582471383,0.029999999999999999,0.02,1.01
2185,1782582471401,0.029999999999999999,0.02,1.01
2186,1782582471433,0.029999999999999999,0.02,1.02
2187,1782582471450,0.029999999999999999,0.02,1.02
2188,1782582471550,0.029999999999999999,0.02,1.02
2189,1782582471651,0.029999999999999999,0.02,1.02
2190,1782582471683,0.029999999999999999,0.02,1.01
2191,1782582471700,0.029999999999999999,0.02,1.01
2192,1782582471766,0.029999999999999999,0.02,1.01
2193,1782582471799,0.029999999999999999,0.02,1.01
2194,1782582471866,0.029999999999999999,0.02,1.01
2195,1782582471899,0.029999999999999999,0.02,1.01
2196,1782582471916,0.029999999999999999,0.02,1.01
2197,1782582471932,0.029999999999999999,0.02,1.01
2198,1782582471966,0.029999999999999999,0.02,1.01
2199,1782582471984,0.029999999999999999,0.02,1.02
2200,1782582472032,0.029999999999999999,0.02,1.02
2201,1782582472066,0.080000000000000002,0.029999999999999999,1.03
2202,1782582472116,0.080000000000000002,0.02,0.98999999999999999
2203,1782582472149,0.080000000000000002,-0.01,0.98999999999999999
2204,1782582472166,0.070000000000000007,-0.01,0.93999999999999995
2205,1782582472183,0.029999999999999999,-0.01,0.93999999999999995
2206,1782582472249,-0.070000000000000007,-0.02,0.93999999999999995
2207,1782582472283,-0.12,-0.02,0.93999999999999995
2208,1782582472383,-0.19,-0.050000000000000003,1.01
2209,1782582472432,-0.19,-0.029999999999999999,1.0800000000000001
2210,1782582472449,-0.19,-0.01,1.1100000000000001
2211,1782582472482,-0.19,0,1.1100000000000001
2212,1782582472499,-0.17999999999999999,0.029999999999999999,1.1100000000000001
2213,1782582472516,-0.17999999999999999,0.050000000000000003,1.1100000000000001
2214,1782582472583,-0.13,0.089999999999999997,1.02
2215,1782582472616,-0.070000000000000007,0.029999999999999999,1.03
2216,1782582472667,-0.080000000000000002,0.040000000000000001,0.98999999999999999
2217,1782582472716,-0.089999999999999997,0.050000000000000003,0.95999999999999996
2218,1782582472883,-0.10000000000000001,0.070000000000000007,0.95999999999999996
2219,1782582472949,-0.070000000000000007,0.040000000000000001,1
2220,1782582473015,-0.070000000000000007,0.029999999999999999,1.01
2221,1782582473081,-0.070000000000000007,0.029999999999999999,1.02
2222,1782582473165,-0.070000000000000007,0.029999999999999999,1.02
2223,1782582473216,-0.080000000000000002,0.040000000000000001,1
2224,1782582473281,-0.070000000000000007,0.040000000000000001,1
2225,1782582473348,-0.070000000000000007,0.040000000000000001,1
2226,1782582473398,-0.070000000000000007,0.050000000000000003,1
2227,1782582473450,-0.10000000000000001,0.050000000000000003,1.01
2228,1782582473548,-0.11,0.059999999999999998,1.01
2229,1782582473598,-0.10000000000000001,0.059999999999999998,1.01
2230,1782582473699,-0.080000000000000002,0.029999999999999999,1.05
2231,1782582473748,-0.070000000000000007,0.02,1.0600000000000001
2232,1782582473781,-0.080000000000000002,0.01,1.0600000000000001
2233,1782582473848,-0.070000000000000007,0.01,1.05
2234,1782582473899,-0.080000000000000002,0.11,1.02
2235,1782582473948,-0.080000000000000002,0.11,1.02
2236,1782582473999,-0.070000000000000007,0.11,1.0600000000000001
2237,1782582474031,-0.070000000000000007,0.10000000000000001,1.0700000000000001
2238,1782582474131,-0.059999999999999998,0.11,1.0700000000000001
2239,1782582474181,-0.080000000000000002,0.12,1.04
2240,1782582474249,-0.080000000000000002,0.12,1.01
2241,1782582474298,-0.080000000000000002,0.12,1.01
2242,1782582474364,-0.080000000000000002,0.12,1.01
2243,1782582474397,-0.080000000000000002,0.12,0.97999999999999998
2244,1782582474464,-0.080000000000000002,0.10000000000000001,0.96999999999999997
2245,1782582474548,-0.050000000000000003,0.080000000000000002,0.91000000000000003
2246,1782582474597,-0.070000000000000007,0.14000000000000001,0.85999999999999999
2247,1782582474648,-0.070000000000000007,0.14000000000000001,0.91000000000000003
2248,1782582474714,-0.070000000000000007,0.14000000000000001,0.91000000000000003
2249,1782582474747,-0.029999999999999999,0.14000000000000001,0.93000000000000005
2250,1782582474814,-0.070000000000000007,0.070000000000000007,1.01
2251,1782582474997,-0.040000000000000001,0.080000000000000002,1.05
2252,1782582475030,0,-0.029999999999999999,0.97999999999999998
2253,1782582475080,0,-0.040000000000000001,0.97999999999999998
2254,1782582475263,-0.070000000000000007,-0,1
2255,1782582475315,-0.080000000000000002,-0,0.98999999999999999
2256,1782582475330,-0.080000000000000002,0.02,1.0900000000000001
2257,1782582475397,-0.11,0.050000000000000003,1.0700000000000001
2258,1782582475430,-0.13,0.050000000000000003,1.0700000000000001
2259,1782582475447,-0.13,0.050000000000000003,1.0700000000000001
2260,1782582475596,-0.089999999999999997,-0.17000000000000001,1.1000000000000001
2261,1782582475663,-0.089999999999999997,-0.14000000000000001,1.0600000000000001
2262,1782582475713,-0.080000000000000002,-0.12,1.0600000000000001
2263,1782582475746,-0.070000000000000007,-0.14000000000000001,1.0600000000000001
2264,1782582475763,-0.070000000000000007,-0.14000000000000001,1.05
2265,1782582475935,-0.02,-0.17000000000000001,0.97999999999999998
2266,1782582475979,-0.02,-0.17000000000000001,1.0800000000000001
2267,1782582476062,0.02,-0.34999999999999998,1.0800000000000001
2268,1782582476212,0.070000000000000007,-0.29999999999999999,1.05
2269,1782582476229,0.01,-0.25,1.02
2270,1782582476279,0.070000000000000007,-0.34999999999999998,0.95999999999999996
2271,1782582476329,0.059999999999999998,-0.34999999999999998,0.95999999999999996
2272,1782582476345,0.050000000000000003,-0.34999999999999998,1.01
2273,1782582476396,0.059999999999999998,-0.34999999999999998,1.01
2274,1782582476429,0.040000000000000001,-0.38,1.0600000000000001
2275,1782582476462,0.040000000000000001,-0.40000000000000002,1.1299999999999999
2276,1782582476578,0.080000000000000002,-0.38,0.97999999999999998
2277,1782582476628,0.059999999999999998,-0.38,0.97999999999999998
2278,1782582476662,0.080000000000000002,-0.38,0.97999999999999998
2279,1782582476695,0.080000000000000002,-0.38,1
2280,1782582476712,0.10000000000000001,-0.38,1
2281,1782582476729,0.11,-0.40000000000000002,1.01
2282,1782582476762,0.11,-0.40000000000000002,1.04
2283,1782582476829,0.11,-0.40999999999999998,1.0600000000000001
2284,1782582476895,0.14000000000000001,-0.38,1.1599999999999999
2285,1782582476945,0.14000000000000001,-0.38,1.1599999999999999
2286,1782582477029,0.14000000000000001,-0.38,1.1399999999999999
2287,1782582477078,0.13,-0.34000000000000002,1.0700000000000001
2288,1782582477112,0.089999999999999997,-0.33000000000000002,0.90000000000000002
2289,1782582477145,0.14999999999999999,-0.47999999999999998,1.3300000000000001
2290,1782582477195,0.14999999999999999,-0.47999999999999998,1.23
2291,1782582477245,0.14999999999999999,-0.47999999999999998,1.23
2292,1782582477279,0.14000000000000001,-0.44,1.03
2293,1782582477312,0.14000000000000001,-0.39000000000000001,1.01
2294,1782582477362,0.13,-0.31,0.97999999999999998
2295,1782582477428,0.19,-0.53000000000000003,1.1799999999999999
2296,1782582477511,0.19,-0.52000000000000002,1.1799999999999999
2297,1782582477562,0.19,-0.5,1.1200000000000001
2298,1782582477661,0.14999999999999999,-0.47999999999999998,1.1499999999999999
2299,1782582477727,0.16,-0.47999999999999998,1.1499999999999999
2300,1782582477828,0.16,-0.47999999999999998,1.1200000000000001
2301,1782582477894,0.23000000000000001,-0.46000000000000002,1.0700000000000001
2302,1782582477927,0.23000000000000001,-0.52000000000000002,1.0800000000000001
2303,1782582477961,0.20000000000000001,-0.52000000000000002,1.1799999999999999
2304,1782582478027,0.20000000000000001,-0.52000000000000002,1.1799999999999999
2305,1782582478060,0.16,-0.51000000000000001,1.1599999999999999
2306,1782582478127,0.12,-0.47999999999999998,1.1599999999999999
2307,1782582478243,0.11,-0.42999999999999999,0.96999999999999997
2308,1782582478277,0.11,-0.39000000000000001,0.96999999999999997
2309,1782582478327,0.14000000000000001,-0.39000000000000001,1.05
2310,1782582478360,0.14000000000000001,-0.39000000000000001,1.1799999999999999
2311,1782582478377,0.14999999999999999,-0.45000000000000001,1.2
2312,1782582478643,0.17999999999999999,-0.48999999999999999,1.04
2313,1782582478643,0.20000000000000001,-0.5,1.1200000000000001
2314,1782582478676,0.20999999999999999,-0.51000000000000001,1.1200000000000001
2315,1782582478710,0.20999999999999999,-0.51000000000000001,1.1200000000000001
2316,1782582478777,0.20000000000000001,-0.5,1.1200000000000001
2317,1782582478876,0.17999999999999999,-0.44,1.0700000000000001
2318,1782582478929,0.14000000000000001,-0.46999999999999997,1.02
2319,1782582478960,0.14999999999999999,-0.46999999999999997,1.02
2320,1782582478993,0.14999999999999999,-0.46000000000000002,1.02
2321,1782582479027,0.14999999999999999,-0.45000000000000001,1.02
2322,1782582479043,0.14999999999999999,-0.42999999999999999,0.96999999999999997
2323,1782582479059,0.14999999999999999,-0.38,0.93000000000000005
2324,1782582479109,0.14999999999999999,-0.34999999999999998,0.90000000000000002
2325,1782582479160,0.14000000000000001,-0.34999999999999998,0.90000000000000002
2326,1782582479226,0.14999999999999999,-0.34999999999999998,0.90000000000000002
2327,1782582479260,0.13,-0.5,1.1100000000000001
2328,1782582479326,0.13,-0.5,1.0800000000000001
2329,1782582479376,0.13,-0.5,1.0800000000000001
2330,1782582479443,0.14000000000000001,-0.48999999999999999,1.0800000000000001
2331,1782582479560,0.20000000000000001,-0.46000000000000002,1.03
2332,1782582479576,0.20000000000000001,-0.45000000000000001,1.03
2333,1782582479643,0.20000000000000001,-0.44,1.03
2334,1782582479725,0.20000000000000001,-0.40999999999999998,0.96999999999999997
2335,1782582479792,0.22,-0.45000000000000001,1.1100000000000001
2336,1782582479827,0.22,-0.46999999999999997,1.1100000000000001
2337,1782582479875,0.23000000000000001,-0.46999999999999997,1.1000000000000001
2338,1782582479909,0.23000000000000001,-0.45000000000000001,1.1000000000000001
2339,1782582479976,0.20000000000000001,-0.45000000000000001,0.95999999999999996
2340,1782582480109,0.20999999999999999,-0.37,1.0800000000000001
2341,1782582480142,0.17999999999999999,-0.32000000000000001,1.0800000000000001
2342,1782582480209,0.13,-0.28000000000000003,0.94999999999999996
2343,1782582480292,0.11,-0.33000000000000002,0.90000000000000002
2344,1782582480425,0.12,-0.34000000000000002,0.90000000000000002
2345,1782582480460,0.12,-0.35999999999999999,1.03
2346,1782582480526,0.23000000000000001,-0.45000000000000001,1.1299999999999999
2347,1782582480559,0.20000000000000001,-0.46000000000000002,1.1299999999999999
2348,1782582480676,0.17999999999999999,-0.45000000000000001,1.1699999999999999
2349,1782582480809,0.11,-0.34999999999999998,1.21
2350,1782582480841,0.13,-0.34999999999999998,1.21
2351,1782582480908,0.11,-0.26000000000000001,1.1899999999999999
2352,1782582480942,0.11,-0.25,1.01
2353,1782582480975,0.11,-0.14000000000000001,1
2354,1782582481025,0.16,-0.029999999999999999,1.01
2355,1782582481042,0.10000000000000001,0.029999999999999999,1.0600000000000001
2356,1782582481225,0.10000000000000001,0.029999999999999999,1.0700000000000001
2357,1782582481258,0.10000000000000001,0.029999999999999999,1.0800000000000001
2358,1782582481325,0.059999999999999998,0.029999999999999999,1.22
2359,1782582481409,0.10000000000000001,0.029999999999999999,1.2
2360,1782582481491,0.10000000000000001,0.029999999999999999,1.1899999999999999
2361,1782582481525,0.10000000000000001,0.02,1.1200000000000001
2362,1782582481591,0.10000000000000001,0.02,1.1200000000000001
2363,1782582481674,0.059999999999999998,0.02,1.01
2364,1782582481724,0.050000000000000003,0.050000000000000003,1.04
2365,1782582481775,0.059999999999999998,0.050000000000000003,1.1000000000000001
2366,1782582481851,0.059999999999999998,0.050000000000000003,1.01
