index,date,GYRO_X,GYRO_Y,GYRO_Z,1,2,3,4,5
0,1765820036739,-1,1,0,0,0,0,0,0
1,1765820036921,0,1,1,0,0,0,0,0
2,1765820037104,-1,1,2,0,0,0,0,0
3,1765820037171,0,1,1,0,0,0,0,0
4,1765820037388,2,0,0,0,0,0,0,0
5,1765820037471,0,0,1,0,0,0,0,0
6,1765820037554,-1,0,1,0,0,0,0,0
7,1765820037670,-1,0,2,0,0,0,0,0
8,1765820037823,0,0,1,0,0,0,0,0
9,1765820038088,0,2,1,0,0,0,0,0
10,1765820038138,1,0,1,0,0,0,0,0
11,1765820038423,0,0,1,0,0,0,0,0
12,1765820038523,1,0,0,0,0,0,0,0
13,1765820038689,1,-1,1,0,0,0,0,0
14,1765820038806,1,1,2,0,0,0,0,0
15,1765820038990,2,-1,0,0,0,0,0,0
16,1765820039539,-2,0,2,0,0,0,0,0
17,1765820039672,1,0,2,0,0,0,0,0
18,1765820040006,0,0,0,0,0,0,0,0
19,1765820040087,1,1,1,0,0,0,0,0
20,1765820040489,1,0,0,0,0,0,0,0
21,1765820040739,1,0,1,0,0,0,0,0
22,1765820040872,-1,2,2,0,0,0,0,0
23,1765820041038,1,0,1,0,0,0,0,0
24,1765820041122,0,1,1,0,0,0,0,0
25,1765820041322,-1,0,0,0,0,0,0,0
26,1765820041556,1,255,2,0,0,0,0,0
27,1765820041888,-1,0,0,0,0,0,0,0
28,1765820042038,1,0,2,0,0,0,0,0
29,1765820042139,-1,1,2,0,0,0,0,0
30,1765820042371,1,-1,2,0,0,0,0,0
31,1765820042454,1,-1,1,0,0,0,0,0
32,1765820042654,1,0,1,0,0,0,0,0
33,1765820042821,0,1,1,0,0,0,0,0
34,1765820042904,0,0,1,0,0,0,0,0
35,1765820043221,0,1,1,0,0,0,0,0
36,1765820043405,0,1,2,0,0,0,0,0
37,1765820043456,1,2,1,0,0,0,0,0
38,1765820043705,1,1,0,0,0,0,0,0
39,1765820043788,-1,1,1,0,0,0,0,0
40,1765820043921,0,1,0,0,0,0,0,0
41,1765820044105,-1,-1,2,0,0,0,0,0
42,1765820044371,1,-1,1,0,0,0,0,0
43,1765820044721,0,2,2,0,0,0,0,0
44,1765820044837,0,-1,1,0,0,0,0,0
45,1765820045173,-1,0,1,0,0,0,0,0
46,1765820045255,0,2,0,0,0,0,0,0
47,1765820045555,2,-1,1,0,0,0,0,0
48,1765820045705,1,0,1,0,0,0,0,0
49,1765820045822,0,0,1,0,0,0,0,0
50,1765820046004,0,0,1,0,0,0,0,0
51,1765820046172,0,2,1,0,0,0,0,0
52,1765820046239,-1,1,0,0,0,0,0,0
53,1765820046455,0,0,1,0,0,0,0,0
54,1765820047021,0,0,1,0,0,0,0,0
55,1765820047172,1,0,1,0,0,0,0,0
56,1765820047488,-1,0,1,0,0,0,0,0
57,1765820047589,0,0,1,0,0,0,0,0
58,1765820047872,1,0,1,0,0,0,0,0
59,1765820047956,1,-1,1,0,0,0,0,0
60,1765820048206,1,0,1,0,0,0,0,0
61,1765820048339,1,-1,1,0,0,0,0,0
62,1765820048506,1,0,1,0,0,0,0,0
63,1765820048655,1,0,2,0,0,0,0,0
64,1765820048805,0,-2,1,0,0,0,0,0
65,1765820049355,2,1,1,0,0,0,0,0
66,1765820049555,1,-1,1,0,0,0,0,0
67,1765820049639,0,0,2,0,0,0,0,0
68,1765820049822,1,0,1,0,0,0,0,0
69,1765820049972,1,0,2,0,0,0,0,0
70,1765820050289,0,0,2,0,0,0,0,0
71,1765820050572,1,0,1,0,0,0,0,0
72,1765820050688,-1,0,0,0,0,0,0,0
73,1765820050839,0,0,1,0,0,0,0,0
74,1765820050973,0,0,1,0,0,0,0,0
75,1765820051138,2,0,1,0,0,0,0,0
76,1765820051389,0,0,1,0,0,0,0,0
77,1765820051689,0,0,1,0,0,0,0,0
78,1765820052005,2,0,2,0,0,0,0,0
79,1765820052172,0,2,1,0,0,0,0,0
80,1765820052339,0,2,1,0,0,0,0,0
81,1765820052489,1,0,0,0,0,0,0,0
82,1765820052655,0,0,2,0,0,0,0,0
83,1765820053005,1,-1,1,0,0,0,0,0
84,1765820053222,1,-1,0,0,0,0,0,0
85,1765820053405,1,0,1,0,0,0,0,0
86,1765820053506,-1,-1,1,0,0,0,0,0
87,1765820053655,1,0,1,0,0,0,0,0
88,1765820053772,2,0,1,0,0,0,0,0
89,1765820054072,2,-1,1,0,0,0,0,0
90,1765820054455,0,-1,0,0,0,0,0,0
91,1765820054555,2,0,1,0,0,0,0,0
92,1765820054838,1,-1,2,0,0,0,0,0
93,1765820055004,1,-1,2,0,0,0,0,0
94,1765820055322,1,1,1,0,0,0,0,0
95,1765820055555,0,-1,2,0,0,0,0,0
96,1765820055688,0,1,1,0,0,0,0,0
97,1765820055856,0,0,0,0,0,0,0,0
98,1765820056021,0,-1,0,0,0,0,0,0
99,1765820056088,1,-1,1,0,0,0,0,0
100,1765820056322,0,0,0,0,0,0,0,0
101,1765820056655,2,0,1,0,0,0,0,0
102,1765820056855,-1,-1,0,0,0,0,0,0
103,1765820057004,-1,-1,1,0,0,0,0,0
104,1765820057089,1,0,1,0,0,0,0,0
105,1765820057322,0,1,1,0,0,0,0,0
106,1765820057405,0,0,1,0,0,0,0,0
107,1765820057720,0,0,0,0,0,0,0,0
108,1765820057954,0,0,2,0,0,0,0,0
109,1765820058155,0,0,1,0,0,0,0,0
110,1765820058305,1,1,1,0,0,0,0,0
111,1765820058389,0,0,1,0,0,0,0,0
112,1765820058673,1,0,2,0,0,0,0,0
113,1765820058838,1,0,0,0,0,0,0,0
114,1765820059156,0,0,2,0,0,0,0,0
115,1765820059238,0,1,0,0,0,0,0,0
116,1765820059389,2,1,0,0,0,0,0,0
117,1765820059556,-1,1,2,0,0,0,0,0
118,1765820059673,2,0,1,0,0,0,0,0
119,1765820059971,2,-1,1,0,0,0,0,0
120,1765820060255,0,-1,2,0,0,0,0,0
121,1765820060489,0,-1,1,0,0,0,0,0
122,1765820060538,1,-1,1,0,0,0,0,0
123,1765820060689,0,0,1,0,0,0,0,0
124,1765820060838,1,-1,1,0,0,0,0,0
125,1765820060987,0,-1,1,0,0,0,0,0
126,1765820061138,2,0,2,0,0,0,0,0
127,1765820061222,0,0,2,0,0,0,0,0
128,1765820061539,-1,0,1,0,0,0,0,0
129,1765820061772,0,-1,1,0,0,0,0,0
130,1765820061990,2,-1,0,0,0,0,0,0
131,1765820062056,1,-2,1,0,0,0,0,0
132,1765820062238,0,-1,2,0,0,0,0,0
133,1765820062322,1,-1,1,0,0,0,0,0
134,1765820062522,0,0,1,0,0,0,0,0
135,1765820062792,0,0,0,0,0,0,0,0
136,1765820063005,0,0,2,0,0,0,0,0
137,1765820063105,1,-1,0,0,0,0,0,0
138,1765820063323,0,0,0,0,0,0,0,0
139,1765820063539,1,1,1,0,0,0,0,0
140,1765820063605,1,0,1,0,0,0,0,0
141,1765820064038,2,-1,1,0,0,0,0,0
142,1765820064272,1,-1,1,0,0,0,0,0
143,1765820064438,0,-2,1,0,0,0,0,0
144,1765820064638,2,0,1,0,0,0,0,0
145,1765820064722,2,-1,1,0,0,0,0,0
146,1765820064921,1,0,1,0,0,0,0,0
147,1765820065088,-1,-1,1,0,0,0,0,0
148,1765820065171,2,-1,2,0,0,0,0,0
149,1765820216238,1,-2,0,0,0,0,0,0
150,1765820216488,4,-2,0,0,0,0,0,0
151,1765820216770,1,-3,0,0,0,0,0,0
152,1765820217052,3,-5,1,0,0,0,0,0
153,1765820217203,4,-3,2,0,0,0,0,0
154,1765820217353,3,-2,0,0,0,0,0,0
155,1765820217520,1,-2,1,0,0,0,0,0
156,1765820217603,2,-3,1,0,0,0,0,0
157,1765820217920,3,-3,0,0,0,0,0,0
158,1765820218003,1,-2,0,0,0,0,0,0
159,1765820218303,3,-3,0,0,0,0,0,0
160,1765820218403,1,-1,1,0,0,0,0,0
161,1765820218586,3,-4,1,0,0,0,0,0
162,1765820218753,1,-3,0,0,0,0,0,0
163,1765820218887,3,-2,1,0,0,0,0,0
164,1765820219186,2,-2,1,0,0,0,0,0
165,1765820219436,3,-3,2,0,0,0,0,0
166,1765820219801,3,-3,0,0,0,0,0,0
167,1765820219903,1,-2,1,0,0,0,0,0
168,1765820220136,1,-2,0,0,0,0,0,0
169,1765820220328,3,-3,1,0,0,0,0,0
170,1765820220469,2,-3,0,0,0,0,0,0
171,1765820220720,2,-3,1,0,0,0,0,0
172,1765820220870,1,-3,1,0,0,0,0,0
173,1765820220953,2,-3,2,0,0,0,0,0
174,1765820221170,1,-3,1,0,0,0,0,0
175,1765820221270,2,-2,1,0,0,0,0,0
176,1765820221403,2,-1,0,0,0,0,0,0
177,1765820221736,2,-3,2,0,0,0,0,0
178,1765820221886,2,-3,0,0,0,0,0,0
179,1765820222036,1,-4,1,0,0,0,0,0
180,1765820222219,1,-1,0,0,0,0,0,0
181,1765820222387,2,-1,2,0,0,0,0,0
182,1765820222687,2,-3,-1,0,0,0,0,0
183,1765820223003,3,-3,1,0,0,0,0,0
184,1765820223070,3,-1,1,0,0,0,0,0
185,1765820223220,3,-3,0,0,0,0,0,0
186,1765820223386,2,-4,1,0,0,0,0,0
187,1765820223520,3,-2,0,0,0,0,0,0
188,1765820223837,3,-3,1,0,0,0,0,0
189,1765820224136,1,-4,1,0,0,0,0,0
190,1765820224503,1,-1,2,0,0,0,0,0
191,1765820224603,3,-3,0,0,0,0,0,0
192,1765820224803,2,-1,1,0,0,0,0,0
193,1765820224969,2,-4,1,0,0,0,0,0
194,1765820225053,2,-3,1,0,0,0,0,0
195,1765820225369,2,-3,1,0,0,0,0,0
196,1765820225486,4,-3,2,0,0,0,0,0
197,1765820225703,2,-2,2,0,0,0,0,0
198,1765820225836,3,-2,2,0,0,0,0,0
199,1765820226153,2,-1,1,0,0,0,0,0
200,1765820226303,2,-3,0,0,0,0,0,0
201,1765820226753,1,-3,0,0,0,0,0,0
202,1765820226854,2,-2,2,0,0,0,0,0
203,1765820227087,2,-3,1,0,0,0,0,0
204,1765820227186,0,-3,1,0,0,0,0,0
205,1765820227301,2,-2,2,0,0,0,0,0
206,1765820227552,3,-2,0,0,0,0,0,0
207,1765820227870,2,-3,1,0,0,0,0,0
208,1765820228120,3,-2,2,0,0,0,0,0
209,1765820228236,3,-3,-1,0,0,0,0,0
210,1765820228354,3,-3,1,0,0,0,0,0
211,1765820228569,2,-2,0,0,0,0,0,0
212,1765820228736,1,-3,0,0,0,0,0,0
213,1765820229120,0,-1,0,0,0,0,0,0
214,1765820229220,1,-2,1,0,0,0,0,0
215,1765820229420,3,-3,0,0,0,0,0,0
216,1765820229587,3,-1,2,0,0,0,0,0
217,1765820229670,3,-2,1,0,0,0,0,0
218,1765820229903,3,-2,1,0,0,0,0,0
219,1765820230073,3,-3,0,0,0,0,0,0
220,1765820230286,1,-1,1,0,0,0,0,0
221,1765820230452,2,-1,1,0,0,0,0,0
222,1765820230644,2,-3,1,0,0,0,0,0
223,1765820230688,0,-3,1,0,0,0,0,0
224,1765820230936,0,-3,1,0,0,0,0,0
225,1765820231053,2,-1,1,0,0,0,0,0
226,1765820231503,3,-3,1,0,0,0,0,0
227,1765820231687,3,-3,0,0,0,0,0,0
228,1765820231804,3,-2,1,0,0,0,0,0
229,1765820231985,4,-2,1,0,0,0,0,0
230,1765820232134,2,-2,0,0,0,0,0,0
231,1765820232285,2,-3,0,0,0,0,0,0
232,1765820232434,3,-2,2,0,0,0,0,0
233,1765820232501,3,-3,1,0,0,0,0,0
234,1765820232835,2,-1,1,0,0,0,0,0
235,1765820233018,3,-3,2,0,0,0,0,0
236,1765820233251,2,-3,1,0,0,0,0,0
237,1765820233318,2,-2,1,0,0,0,0,0
238,1765820233468,1,-2,1,0,0,0,0,0
239,1765820233585,2,-2,1,0,0,0,0,0
240,1765820233785,1,-3,1,0,0,0,0,0
241,1765820234185,2,-3,1,0,0,0,0,0
242,1765820234353,2,-3,0,0,0,0,0,0
243,1765820234518,2,-3,0,0,0,0,0,0
244,1765820234802,3,-2,1,0,0,0,0,0
245,1765820234868,2,-3,1,0,0,0,0,0
246,1765820235418,2,-2,0,0,0,0,0,0
247,1765820235568,2,-2,1,0,0,0,0,0
248,1765820235717,3,-3,1,0,0,0,0,0
249,1765820235785,3,-3,0,0,0,0,0,0
250,1765820235917,3,-2,1,0,0,0,0,0
251,1765820236101,0,-3,0,0,0,0,0,0
252,1765820236234,2,-3,3,0,0,0,0,0
253,1765820236418,2,-3,1,0,0,0,0,0
254,1765820236751,1,-1,0,0,0,0,0,0
255,1765820236818,2,-1,1,0,0,0,0,0
256,1765820236968,2,-3,0,0,0,0,0,0
257,1765820237051,1,-1,0,0,0,0,0,0
258,1765820237251,1,-3,-1,0,0,0,0,0
259,1765820237351,3,-3,0,0,0,0,0,0
260,1765820237468,2,-3,0,0,0,0,0,0
261,1765820237584,2,-2,0,0,0,0,0,0
262,1765820237801,4,-3,1,0,0,0,0,0
263,1765820238268,1,-3,0,0,0,0,0,0
264,1765820238351,3,-3,1,0,0,0,0,0
265,1765820238584,1,-3,1,0,0,0,0,0
266,1765820238751,3,-3,0,0,0,0,0,0
267,1765820238868,2,-3,1,0,0,0,0,0
268,1765820239218,3,-2,0,0,0,0,0,0
269,1765820239468,1,-3,1,0,0,0,0,0
270,1765820239918,2,-1,1,0,0,0,0,0
271,1765820239985,1,-4,1,0,0,0,0,0
272,1765820240201,2,-3,1,0,0,0,0,0
273,1765820240384,1,-3,0,0,0,0,0,0
274,1765820240468,1,-2,1,0,0,0,0,0
275,1765820241001,1,-4,1,0,0,0,0,0
276,1765820241102,1,-3,2,0,0,0,0,0
277,1765820241285,2,-4,0,0,0,0,0,0
278,1765820241501,2,-4,1,0,0,0,0,0
279,1765820241603,2,-1,0,0,0,0,0,0
280,1765820241802,1,-2,1,0,0,0,0,0
281,1765820242018,3,-2,1,0,0,0,0,0
282,1765820242234,3,-3,0,0,0,0,0,0
283,1765820242407,2,-1,1,0,0,0,0,0
284,1765820242604,1,-2,1,0,0,0,0,0
285,1765820242720,3,-3,1,0,0,0,0,0
286,1765820242887,2,-3,-1,0,0,0,0,0
287,1765820243085,4,-2,1,0,0,0,0,0
288,1765820243220,3,-1,1,0,0,0,0,0
289,1765820243503,2,-3,1,0,0,0,0,0
290,1765820243632,2,-3,0,0,0,0,0,0
291,1765820243958,3,-2,1,0,0,0,0,0
292,1765820244039,1,-2,1,0,0,0,0,0
293,1765820244190,4,-4,1,0,0,0,0,0
294,1765820244387,2,-4,1,0,0,0,0,0
295,1765820244486,1,-3,1,0,0,0,0,0
296,1765820244803,2,-3,1,0,0,0,0,0
297,1765820371918,3,-4,0,0,0,0,0,0
298,1765820372051,2,-3,1,0,0,0,0,0
299,1765820372203,1,-3,1,0,0,0,0,0
300,1765820372418,3,-2,1,0,0,0,0,0
301,1765820372584,3,-2,0,0,0,0,0,0
302,1765820372835,3,-3,1,0,0,0,0,0
303,1765820373017,4,-3,0,0,0,0,0,0
304,1765820373250,3,-4,1,0,0,0,0,0
305,1765820373335,1,-3,1,0,0,0,0,0
306,1765820373701,1,-3,0,0,0,0,0,0
307,1765820373800,3,-3,1,0,0,0,0,0
308,1765820374318,5,-3,0,0,0,0,0,0
309,1765820374419,3,-4,1,0,0,0,0,0
310,1765820374601,3,-4,1,0,0,0,0,0
311,1765820374818,1,-2,2,0,0,0,0,0
312,1765820374900,2,-3,1,0,0,0,0,0
313,1765820375100,3,-2,1,0,0,0,0,0
314,1765820375317,3,-3,1,0,0,0,0,0
315,1765820375532,2,-4,1,0,0,0,0,0
316,1765820375701,3,-4,-1,0,0,0,0,0
317,1765820375867,3,-3,1,0,0,0,0,0
318,1765820375984,2,-3,0,0,0,0,0,0
319,1765820376167,4,-4,0,0,0,0,0,0
320,1765820376268,2,-3,0,0,0,0,0,0
321,1765820376367,4,-2,0,0,0,0,0,0
322,1765820376450,2,-3,1,0,0,0,0,0
323,1765820376685,3,-4,1,0,0,0,0,0
324,1765820376902,4,-4,1,0,0,0,0,0
325,1765820377067,6,-5,0,0,0,0,0,0
326,1765820377233,3,-4,0,0,0,0,0,0
327,1765820377334,3,-3,1,0,0,0,0,0
328,1765820377700,2,-4,1,0,0,0,0,0
329,1765820377767,3,-3,-1,0,0,0,0,0
330,1765820378150,1,-2,0,0,0,0,0,0
331,1765820378384,3,-2,0,0,0,0,0,0
332,1765820378584,3,-3,0,0,0,0,0,0
333,1765820378767,4,-2,1,0,0,0,0,0
334,1765820378851,3,-3,0,0,0,0,0,0
335,1765820379067,1,-3,1,0,0,0,0,0
336,1765820379234,4,-2,1,0,0,0,0,0
337,1765820379334,3,-2,2,0,0,0,0,0
338,1765820379650,2,-2,1,0,0,0,0,0
339,1765820379851,3,-2,2,0,0,0,0,0
340,1765820380025,2,-2,0,0,0,0,0,0
341,1765820380149,4,-2,0,0,0,0,0,0
342,1765820380200,2,-3,1,0,0,0,0,0
343,1765820380316,3,-3,1,0,0,0,0,0
344,1765820380399,3,-3,-1,0,0,0,0,0
345,1765820380583,3,-3,0,0,0,0,0,0
346,1765820380834,3,-4,0,0,0,0,0,0
347,1765820381051,2,-2,1,0,0,0,0,0
348,1765820381218,2,-3,1,0,0,0,0,0
349,1765820381383,1,-2,1,0,0,0,0,0
350,1765820381451,2,-3,0,0,0,0,0,0
351,1765820381684,2,-4,1,0,0,0,0,0
352,1765820381751,2,-1,1,0,0,0,0,0
353,1765820382067,2,-2,0,0,0,0,0,0
354,1765820382350,3,-4,0,0,0,0,0,0
355,1765820382534,2,-3,1,0,0,0,0,0
356,1765820382684,3,-4,2,0,0,0,0,0
357,1765820382768,3,-2,0,0,0,0,0,0
358,1765820383001,3,-3,0,0,0,0,0,0
359,1765820383200,4,-3,1,0,0,0,0,0
360,1765820383551,3,-3,1,0,0,0,0,0
361,1765820383684,1,-3,1,0,0,0,0,0
362,1765820383984,2,-3,0,0,0,0,0,0
363,1765820384050,3,-3,0,0,0,0,0,0
364,1765820384434,3,-3,1,0,0,0,0,0
365,1765820384699,3,-2,1,0,0,0,0,0
366,1765820384850,3,-4,1,0,0,0,0,0
367,1765820385000,3,-3,1,0,0,0,0,0
368,1765820385134,3,-4,1,0,0,0,0,0
369,1765820385300,3,-4,1,0,0,0,0,0
370,1765820385816,4,-4,1,0,0,0,0,0
371,1765820385985,2,-3,1,0,0,0,0,0
372,1765820386100,3,-1,0,0,0,0,0,0
373,1765820386284,2,-4,2,0,0,0,0,0
374,1765820386434,2,-3,0,0,0,0,0,0
375,1765820386733,2,-3,0,0,0,0,0,0
376,1765820387050,1,-3,2,0,0,0,0,0
377,1765820387116,2,-2,1,0,0,0,0,0
378,1765820387284,3,-3,1,0,0,0,0,0
379,1765820387451,2,-3,1,0,0,0,0,0
380,1765820387584,2,-3,1,0,0,0,0,0
381,1765820388118,2,-3,2,0,0,0,0,0
382,1765820388366,3,-3,1,0,0,0,0,0
383,1765820388483,1,-2,0,0,0,0,0,0
384,1765820388584,1,-4,1,0,0,0,0,0
385,1765820388817,2,-4,0,0,0,0,0,0
386,1765820389050,2,-5,1,0,0,0,0,0
387,1765820389351,2,-3,1,0,0,0,0,0
388,1765820389433,3,-2,1,0,0,0,0,0
389,1765820389584,1,-3,1,0,0,0,0,0
390,1765820389718,2,-3,2,0,0,0,0,0
391,1765820389885,3,-3,1,0,0,0,0,0
392,1765820390066,2,-3,0,0,0,0,0,0
393,1765820390184,3,-4,1,0,0,0,0,0
394,1765820390434,3,-3,0,0,0,0,0,0
395,1765820390668,3,-3,2,0,0,0,0,0
396,1765820390751,1,-3,0,0,0,0,0,0
397,1765820390959,1,-3,1,0,0,0,0,0
398,1765820391084,3,-3,0,0,0,0,0,0
399,1765820391184,2,-3,1,0,0,0,0,0
400,1765820391334,2,-4,1,0,0,0,0,0
401,1765820391483,3,-5,1,0,0,0,0,0
402,1765820391717,3,-4,2,0,0,0,0,0
403,1765820391883,3,-4,1,0,0,0,0,0
404,1765820392101,2,-3,0,0,0,0,0,0
405,1765820392184,3,-4,1,0,0,0,0,0
406,1765820392418,2,-4,1,0,0,0,0,0
407,1765820392517,2,-3,1,0,0,0,0,0
408,1765820392634,3,-2,0,0,0,0,0,0
409,1765820392967,2,-3,0,0,0,0,0,0
410,1765820393184,1,-3,1,0,0,0,0,0
411,1765820393401,3,-4,1,0,0,0,0,0
412,1765820393485,4,-3,0,0,0,0,0,0
413,1765820393801,2,-4,1,0,0,0,0,0
414,1765820394067,3,-3,0,0,0,0,0,0
415,1765820394418,4,-3,0,0,0,0,0,0
416,1765820394534,2,-3,0,0,0,0,0,0
417,1765820394717,1,-3,1,0,0,0,0,0
418,1765820394868,2,-3,-1,0,0,0,0,0
419,1765820394934,3,-3,0,0,0,0,0,0
420,1765820395250,1,-4,0,0,0,0,0,0
421,1765820395484,4,-4,0,0,0,0,0,0
422,1765820395717,3,-3,0,0,0,0,0,0
423,1765820395834,2,-3,1,0,0,0,0,0
424,1765820396185,2,-2,0,0,0,0,0,0
425,1765820396485,4,-3,0,0,0,0,0,0
426,1765820396736,1,-4,-1,0,0,0,0,0
427,1765820396851,4,-4,1,0,0,0,0,0
428,1765820397034,2,-3,1,0,0,0,0,0
429,1765820397183,3,-4,0,0,0,0,0,0
430,1765820397251,4,-3,2,0,0,0,0,0
431,1765820397567,3,-3,1,0,0,0,0,0
432,1765820502601,4,-4,1,0,0,0,0,0
433,1765820502667,2,-4,0,0,0,0,0,0
434,1765820503032,4,-4,1,0,0,0,0,0
435,1765820503316,3,-4,-1,0,0,0,0,0
436,1765820503633,3,-4,0,0,0,0,0,0
437,1765820503700,3,-4,1,0,0,0,0,0
438,1765820503915,4,-4,0,0,0,0,0,0
439,1765820504148,3,-4,0,0,0,0,0,0
440,1765820504466,4,-4,1,0,0,0,0,0
441,1765820504532,3,-3,0,0,0,0,0,0
442,1765820504649,3,-5,2,0,0,0,0,0
443,1765820504815,2,-3,0,0,0,0,0,0
444,1765820504982,3,-4,1,0,0,0,0,0
445,1765820505166,5,-4,0,0,0,0,0,0
446,1765820505266,4,-4,1,0,0,0,0,0
447,1765820505465,4,-5,0,0,0,0,0,0
448,1765820506032,4,-4,0,0,0,0,0,0
449,1765820506182,3,-6,0,0,0,0,0,0
450,1765820506449,3,-4,0,0,0,0,0,0
451,1765820506549,4,-4,1,0,0,0,0,0
452,1765820507032,3,-3,1,0,0,0,0,0
453,1765820507332,3,-4,1,0,0,0,0,0
454,1765820507416,3,-4,1,0,0,0,0,0
455,1765820507582,2,-4,0,0,0,0,0,0
456,1765820507682,4,-4,-1,0,0,0,0,0
457,1765820507866,3,-5,1,0,0,0,0,0
458,1765820508081,2,-4,0,0,0,0,0,0
459,1765820508399,4,-5,1,0,0,0,0,0
460,1765820508482,5,-4,1,0,0,0,0,0
461,1765820508732,3,-5,0,0,0,0,0,0
462,1765820508933,4,-4,1,0,0,0,0,0
463,1765820509049,3,-4,0,0,0,0,0,0
464,1765820509166,1,-4,-1,0,0,0,0,0
465,1765820509332,2,-4,1,0,0,0,0,0
466,1765820509616,4,-4,1,0,0,0,0,0
467,1765820509982,2,-3,1,0,0,0,0,0
468,1765820510066,5,-5,0,0,0,0,0,0
469,1765820510467,3,-5,0,0,0,0,0,0
470,1765820510532,3,-4,1,0,0,0,0,0
471,1765820510948,4,-4,0,0,0,0,0,0
472,1765820511199,3,-4,0,0,0,0,0,0
473,1765820511366,3,-4,0,0,0,0,0,0
474,1765820511549,4,-5,1,0,0,0,0,0
475,1765820511632,5,-4,1,0,0,0,0,0
476,1765820511848,3,-3,0,0,0,0,0,0
477,1765820511966,2,-6,1,0,0,0,0,0
478,1765820512082,3,-4,1,0,0,0,0,0
479,1765820512415,4,-5,1,0,0,0,0,0
480,1765820512499,5,-5,1,0,0,0,0,0
481,1765820512665,3,-4,0,0,0,0,0,0
482,1765820512849,4,-4,0,0,0,0,0,0
483,1765820512966,5,-4,1,0,0,0,0,0
484,1765820513165,-6,6,-1,0,0,0,0,0
485,1765820513332,9,-10,4,0,0,0,0,0
486,1765820513449,5,-7,-3,0,0,0,0,0
487,1765820513666,1,0,-1,0,0,0,0,0
488,1765820513932,4,-6,-1,0,0,0,0,0
489,1765820514049,8,-11,4,0,0,0,0,0
490,1765820514282,8,-10,1,0,0,0,0,0
491,1765820514415,3,-3,-2,0,0,0,0,0
492,1765820514566,18,-18,2,0,0,0,0,0
493,1765820514783,7,-8,3,0,0,0,0,0
494,1765820514949,3,-5,-2,0,0,0,0,0
495,1765820515182,9,-10,3,0,0,0,0,0
496,1765820515299,5,-6,-2,0,0,0,0,0
497,1765820515616,6,-6,3,0,0,0,0,0
498,1765820515699,2,-5,-1,0,0,0,0,0
499,1765820515899,3,-6,1,0,0,0,0,0
500,1765820516081,5,-4,1,0,0,0,0,0
501,1765820516183,3,-5,0,0,0,0,0,0
502,1765820516566,3,-5,1,0,0,0,0,0
503,1765820516833,4,-3,0,0,0,0,0,0
504,1765820517215,4,-5,2,0,0,0,0,0
505,1765820517298,2,-4,0,0,0,0,0,0
506,1765820517498,2,-5,0,0,0,0,0,0
507,1765820517718,2,-5,1,0,0,0,0,0
508,1765820517781,4,-4,0,0,0,0,0,0
509,1765820518315,3,-4,1,0,0,0,0,0
510,1765820518448,3,-4,0,0,0,0,0,0
511,1765820518615,4,-4,0,0,0,0,0,0
512,1765820518797,3,-4,2,0,0,0,0,0
513,1765820518965,3,-5,0,0,0,0,0,0
514,1765820519198,4,-4,0,0,0,0,0,0
515,1765820519281,3,-4,1,0,0,0,0,0
516,1765820519599,6,-3,0,0,0,0,0,0
517,1765820519682,4,-4,0,0,0,0,0,0
518,1765820519832,3,-4,1,0,0,0,0,0
519,1765820520016,4,-3,1,0,0,0,0,0
520,1765820520133,3,-4,0,0,0,0,0,0
521,1765820520449,2,-3,0,0,0,0,0,0
522,1765820520732,3,-6,0,0,0,0,0,0
523,1765820521116,4,-4,0,0,0,0,0,0
524,1765820521199,4,-3,2,0,0,0,0,0
525,1765820521416,3,-4,-1,0,0,0,0,0
526,1765820521549,3,-4,1,0,0,0,0,0
527,1765820521632,2,-4,0,0,0,0,0,0
528,1765820521950,4,-4,0,0,0,0,0,0
529,1765820522148,3,-3,1,0,0,0,0,0
530,1765820522232,4,-5,0,0,0,0,0,0
531,1765820522432,4,-4,0,0,0,0,0,0
532,1765820522566,3,-5,0,0,0,0,0,0
533,1765820522899,0,-4,0,0,0,0,0,0
534,1765820523214,1,-4,0,0,0,0,0,0
535,1765820523282,4,-4,1,0,0,0,0,0
536,1765820523449,7,-3,1,0,0,0,0,0
537,1765820523649,3,-3,0,0,0,0,0,0
538,1765820523749,5,-5,0,0,0,0,0,0
539,1765820523899,1,-4,1,0,0,0,0,0
540,1765820524232,2,-3,0,0,0,0,0,0
541,1765820524299,4,-5,-1,0,0,0,0,0
542,1765820524466,4,-4,0,0,0,0,0,0
543,1765820524683,2,-3,0,0,0,0,0,0
544,1765820524749,4,-5,1,0,0,0,0,0
545,1765820525014,2,-5,0,0,0,0,0,0
546,1765820525132,1,-5,0,0,0,0,0,0
547,1765820525382,5,-4,1,0,0,0,0,0
548,1765820525548,4,-4,-1,0,0,0,0,0
549,1765820525732,2,-3,1,0,0,0,0,0
550,1765820525783,2,-4,1,0,0,0,0,0
551,1765820526016,3,-4,1,0,0,0,0,0
552,1765820526232,4,-3,0,0,0,0,0,0
553,1765820526583,5,-5,0,0,0,0,0,0
554,1765820526899,4,-3,0,0,0,0,0,0
555,1765820527065,2,-4,0,0,0,0,0,0
556,1765820527248,2,-4,2,0,0,0,0,0
557,1765820527349,3,-3,1,0,0,0,0,0
558,1765820527500,4,-3,2,0,0,0,0,0
559,1765820527832,0,-5,0,0,0,0,0,0
560,1765820528066,2,-5,-1,0,0,0,0,0
561,1765820528265,2,-4,0,0,0,0,0,0
562,1765820528366,4,-3,1,0,0,0,0,0
563,1765820528549,2,-3,1,0,0,0,0,0
564,1765820581764,4,-5,-256,0,0,0,0,0
565,1765820582014,4,-5,1,0,0,0,0,0
566,1765820582165,2,-4,1,0,0,0,0,0
567,1765820582366,3,-4,1,0,0,0,0,0
568,1765820582482,4,-5,0,0,0,0,0,0
569,1765820582665,3,-4,0,0,0,0,0,0
570,1765820582864,4,-5,0,0,0,0,0,0
571,1765820582964,2,-4,1,0,0,0,0,0
572,1765820583248,3,-6,0,0,0,0,0,0
573,1765820583448,4,-5,0,0,0,0,0,0
574,1765820583598,3,-3,0,0,0,0,0,0
575,1765820583731,4,-2,0,0,0,0,0,0
576,1765820583898,3,-4,2,0,0,0,0,0
577,1765820583948,4,-4,0,0,0,0,0,0
578,1765820584081,4,-3,0,0,0,0,0,0
579,1765820584231,2,-4,0,0,0,0,0,0
580,1765820584715,4,-3,0,0,0,0,0,0
581,1765820584815,3,-3,1,0,0,0,0,0
582,1765820584981,4,-4,0,0,0,0,0,0
583,1765820585165,2,-5,1,0,0,0,0,0
584,1765820585298,5,-4,1,0,0,0,0,0
585,1765820585465,3,-4,1,0,0,0,0,0
586,1765820585881,3,-4,0,0,0,0,0,0
587,1765820586096,3,-4,-1,0,0,0,0,0
588,1765820586165,3,-4,1,0,0,0,0,0
589,1765820586281,4,-4,2,0,0,0,0,0
590,1765820586365,3,-4,1,0,0,0,0,0
591,1765820586565,4,-4,0,0,0,0,0,0
592,1765820586665,3,-4,0,0,0,0,0,0
593,1765820586815,4,-3,0,0,0,0,0,0
594,1765820586932,3,-4,0,0,0,0,0,0
595,1765820587198,3,-4,1,0,0,0,0,0
596,1765820587365,3,-5,0,0,0,0,0,0
597,1765820587532,3,-4,0,0,0,0,0,0
598,1765820587664,3,-4,0,0,0,0,0,0
599,1765820587864,3,-4,1,0,0,0,0,0
600,1765820587980,4,-3,1,0,0,0,0,0
601,1765820588114,4,-3,1,0,0,0,0,0
602,1765820588448,3,-3,1,0,0,0,0,0
603,1765820588664,4,-5,1,0,0,0,0,0
604,1765820588898,5,-4,1,0,0,0,0,0
605,1765820588965,2,-5,2,0,0,0,0,0
606,1765820589114,3,-4,0,0,0,0,0,0
607,1765820589281,3,-3,0,0,0,0,0,0
608,1765820589548,4,-3,1,0,0,0,0,0
609,1765820589915,3,-5,1,0,0,0,0,0
610,1765820590014,2,-4,1,0,0,0,0,0
611,1765820590198,4,-3,1,0,0,0,0,0
612,1765820590364,4,-5,2,0,0,0,0,0
613,1765820590448,2,-4,1,0,0,0,0,0
614,1765820590748,2,-5,1,0,0,0,0,0
615,1765820590898,3,-4,-1,0,0,0,0,0
616,1765820591031,4,-5,0,0,0,0,0,0
617,1765820591181,4,-4,2,0,0,0,0,0
618,1765820591365,2,-4,1,0,0,0,0,0
619,1765820591498,3,-4,1,0,0,0,0,0
620,1765820591764,4,-3,0,0,0,0,0,0
621,1765820591982,3,-3,1,0,0,0,0,0
622,1765820592113,3,-4,0,0,0,0,0,0
623,1765820592181,1,-4,0,0,0,0,0,0
624,1765820592415,2,-3,-1,0,0,0,0,0
625,1765820592647,5,-5,1,0,0,0,0,0
626,1765820592963,3,-5,1,0,0,0,0,0
627,1765820593098,2,-3,0,0,0,0,0,0
628,1765820593415,3,-3,1,0,0,0,0,0
629,1765820593548,5,-4,255,0,0,0,0,0
630,1765820593881,5,-3,0,0,0,0,0,0
631,1765820594198,4,-4,0,0,0,0,0,0
632,1765820594281,4,-5,0,0,0,0,0,0
633,1765820594415,3,-5,-1,0,0,0,0,0
634,1765820594565,4,-4,3,0,0,0,0,0
635,1765820594715,3,-5,1,0,0,0,0,0
636,1765820594998,3,-5,0,0,0,0,0,0
637,1765820595265,2,-4,0,0,0,0,0,0
638,1765820595515,5,-4,2,0,0,0,0,0
639,1765820595664,4,-6,1,0,0,0,0,0
640,1765820595731,3,-4,2,0,0,0,0,0
641,1765820595964,3,-4,-1,0,0,0,0,0
642,1765820596181,3,-5,0,0,0,0,0,0
643,1765820596515,2,-4,1,0,0,0,0,0
644,1765820596731,3,-4,1,0,0,0,0,0
645,1765820596964,2,-5,0,0,0,0,0,0
646,1765820597098,3,-3,0,0,0,0,0,0
647,1765820597432,4,-3,1,0,0,0,0,0
648,1765820597713,3,-4,1,0,0,0,0,0
649,1765820597815,2,-4,1,0,0,0,0,0
650,1765820597981,3,-4,0,0,0,0,0,0
651,1765820598198,4,-4,1,0,0,0,0,0
652,1765820598264,5,-4,2,0,0,0,0,0
653,1765820598581,4,-4,0,0,0,0,0,0
654,1765820598831,4,-4,1,0,0,0,0,0
655,1765820599231,3,-5,1,0,0,0,0,0
656,1765820599298,3,-3,2,0,0,0,0,0
657,1765820599531,3,-4,1,0,0,0,0,0
658,1765820599681,3,-4,1,0,0,0,0,0
659,1765820599898,4,-4,1,0,0,0,0,0
660,1765820600065,4,-4,0,0,0,0,0,0
661,1765820600215,5,-5,1,0,0,0,0,0
662,1765820600314,3,-4,1,0,0,0,0,0
663,1765820600514,3,-3,1,0,0,0,0,0
664,1765820600781,5,-3,1,0,0,0,0,0
665,1765820601081,3,-3,0,0,0,0,0,0
666,1765820601314,4,-5,1,0,0,0,0,0
667,1765820601448,3,-4,1,0,0,0,0,0
668,1765820601547,4,-4,1,0,0,0,0,0
669,1765820601781,3,-4,1,0,0,0,0,0
670,1765820601998,3,-5,1,0,0,0,0,0
671,1765820602315,4,-3,0,0,0,0,0,0
672,1765820602447,3,-3,1,0,0,0,0,0
673,1765820602764,3,-5,0,0,0,0,0,0
674,1765820602848,4,-3,1,0,0,0,0,0
675,1765820603230,4,-4,1,0,0,0,0,0
676,1765820603563,4,-5,1,0,0,0,0,0
677,1765820603614,3,-4,1,0,0,0,0,0
678,1765820603781,3,-4,1,0,0,0,0,0
679,1765820603966,3,-5,0,0,0,0,0,0
680,1765820604084,5,-5,0,0,0,0,0,0
681,1765820604381,3,-4,1,0,0,0,0,0
682,1765820604631,4,-4,1,0,0,0,0,0
683,1765820604864,2,-3,1,0,0,0,0,0
684,1765820605031,4,-4,0,0,0,0,0,0
685,1765820605132,2,-5,-1,0,0,0,0,0
686,1765820605348,1,-4,0,0,0,0,0,0
687,1765820605498,3,-4,0,0,0,0,0,0
688,1765820605764,4,-4,0,0,0,0,0,0
689,1765820605881,4,-4,1,0,0,0,0,0
690,1765820606048,4,-3,1,0,0,0,0,0
691,1765820606181,4,-4,0,0,0,0,0,0
692,1765820606348,3,-5,0,0,0,0,0,0
693,1765820606898,4,-5,-255,0,0,0,0,0
694,1765820607098,4,-5,1,0,0,0,0,0
695,1765820607182,5,-3,0,0,0,0,0,0
696,1765820607231,4,-4,1,0,0,0,0,0
697,1765820607348,4,-4,1,0,0,0,0,0
698,1765820607581,2,-4,1,0,0,0,0,0
699,1765820608147,4,-3,1,0,0,0,0,0
700,1765820608281,4,-4,1,0,0,0,0,0
701,1765820608599,2,-5,1,0,0,0,0,0
702,1765820608699,2,-4,0,0,0,0,0,0
703,1765820663664,3,-5,1,0,0,0,0,0
704,1765820663781,4,-4,0,0,0,0,0,0
705,1765820663864,4,-4,-1,0,0,0,0,0
706,1765820664096,4,-4,0,0,0,0,0,0
707,1765820664180,4,-6,0,0,0,0,0,0
708,1765820664414,3,-4,0,0,0,0,0,0
709,1765820664480,5,-5,2,0,0,0,0,0
710,1765820664613,4,-5,-2,0,0,0,0,0
711,1765820664781,3,-3,1,0,0,0,0,0
712,1765820664963,4,-5,1,0,0,0,0,0
713,1765820665164,4,-4,0,0,0,0,0,0
714,1765820665414,5,-5,0,0,0,0,0,0
715,1765820665497,5,-4,1,0,0,0,0,0
716,1765820665713,3,-5,0,0,0,0,0,0
717,1765820665780,1540,-2,1,0,0,0,0,0
718,1765820665998,3,-4,0,0,0,0,0,0
719,1765820666097,4,-4,1,0,0,0,0,0
720,1765820666330,3,-4,2,0,0,0,0,0
721,1765820666481,5,-4,-1,0,0,0,0,0
722,1765820666729,3,-4,1,0,0,0,0,0
723,1765820666864,3,-3,0,0,0,0,0,0
724,1765820667014,2,-6,1,0,0,0,0,0
725,1765820667280,3,-4,0,0,0,0,0,0
726,1765820667430,4,-5,0,0,0,0,0,0
727,1765820667663,5,-4,0,0,0,0,0,0
728,1765820667847,3,-5,0,0,0,0,0,0
729,1765820668030,3,-4,1,0,0,0,0,0
730,1765820668231,4,-4,0,0,0,0,0,0
731,1765820668347,4,-4,-1,0,0,0,0,0
732,1765820668663,4,-5,0,0,0,0,0,0
733,1765820668730,3,-5,0,0,0,0,0,0
734,1765820668980,4,-3,0,0,0,0,0,0
735,1765820669212,4,-4,0,0,0,0,0,0
736,1765820669346,5,-5,1,0,0,0,0,0
737,1765820669563,5,-4,1,0,0,0,0,0
738,1765820669664,4,-5,0,0,0,0,0,0
739,1765820669980,3,-5,2,0,0,0,0,0
740,1765820670130,4,-6,0,0,0,0,0,0
741,1765820670280,4,-5,0,0,0,0,0,0
742,1765820670547,3,-5,1,0,0,0,0,0
743,1765820670680,4,-4,1,0,0,0,0,0
744,1765820670913,4,-5,0,0,0,0,0,0
745,1765820671029,3,-5,1,0,0,0,0,0
746,1765820671130,4,-4,1,0,0,0,0,0
747,1765820671279,5,-5,0,0,0,0,0,0
748,1765820671529,4,-5,1,0,0,0,0,0
749,1765820671597,2,-4,-1,0,0,0,0,0
750,1765820671914,4,-4,1,0,0,0,0,0
751,1765820672031,4,-4,-1,0,0,0,0,0
752,1765820672232,4,-5,0,0,0,0,0,0
753,1765820672397,3,-6,0,0,0,0,0,0
754,1765820672480,2,-4,0,0,0,0,0,0
755,1765820672597,3,-5,1,0,0,0,0,0
756,1765820672797,3,-5,0,0,0,0,0,0
757,1765820672930,3,-4,1,0,0,0,0,0
758,1765820673230,5,-4,0,0,0,0,0,0
759,1765820673347,4,-5,1,0,0,0,0,0
760,1765820673530,3,-4,1,0,0,0,0,0
761,1765820673714,3,-5,0,0,0,0,0,0
762,1765820673797,4,-4,0,0,0,0,0,0
763,1765820673913,3,-5,1,0,0,0,0,0
764,1765820674129,5,-5,0,0,0,0,0,0
765,1765820674213,3,-6,0,0,0,0,0,0
766,1765820674547,4,-5,0,0,0,0,0,0
767,1765820674647,4,-5,0,0,0,0,0,0
768,1765820674830,3,-6,2,0,0,0,0,0
769,1765820674981,3,-4,1,0,0,0,0,0
770,1765820675080,4,-4,0,0,0,0,0,0
771,1765820675230,4,-6,0,0,0,0,0,0
772,1765820675464,2,-5,0,0,0,0,0,0
773,1765820675530,4,-6,1,0,0,0,0,0
774,1765820675830,5,-8,1,0,0,0,0,0
775,1765820675930,4,-6,0,0,0,0,0,0
776,1765820676163,6,-7,1,0,0,0,0,0
777,1765820676314,4,-3,-1,0,0,0,0,0
778,1765820676397,5,-5,1,0,0,0,0,0
779,1765820676513,3,-4,1,0,0,0,0,0
780,1765820676730,5,-5,1,0,0,0,0,0
781,1765820676847,3,-3,0,0,0,0,0,0
782,1765820677146,2,-3,0,0,0,0,0,0
783,1765820677263,4,-5,1,0,0,0,0,0
784,1765820677447,2,-4,1,0,0,0,0,0
785,1765820677663,3,-4,0,0,0,0,0,0
786,1765820677830,4,-5,0,0,0,0,0,0
787,1765820678063,5,-5,1,0,0,0,0,0
788,1765820678130,4,-6,1,0,0,0,0,0
789,1765820678464,5,-6,1,0,0,0,0,0
790,1765820678547,4,-6,0,0,0,0,0,0
791,1765820678763,6,-5,0,0,0,0,0,0
792,1765820678864,4,-4,1,0,0,0,0,0
793,1765820679130,6,-7,1,0,0,0,0,0
794,1765820679297,6,-6,0,0,0,0,0,0
795,1765820679447,6,-6,0,0,0,0,0,0
796,1765820679596,2,-2,0,0,0,0,0,0
797,1765820679813,5,-5,1,0,0,0,0,0
798,1765820680106,1541,-2,0,0,0,0,0,0
799,1765820680129,6,-7,1,0,0,0,0,0
800,1765820680331,6,-7,1,0,0,0,0,0
801,1765820680462,4,-4,0,0,0,0,0,0
802,1765820680664,3,-7,0,0,0,0,0,0
803,1765820680780,3,-6,0,0,0,0,0,0
804,1765820681146,1,-3,0,0,0,0,0,0
805,1765820681298,4,-5,1,0,0,0,0,0
806,1765820681430,4,-4,1,0,0,0,0,0
807,1765820681647,5,-6,0,0,0,0,0,0
808,1765820681797,4,-4,0,0,0,0,0,0
809,1765820681881,2,-5,0,0,0,0,0,0
810,1765820682096,2,-4,2,0,0,0,0,0
811,1765820682196,2,-2,-1,0,0,0,0,0
812,1765820682363,4,-6,1,0,0,0,0,0
813,1765820682513,5,-7,1,0,0,0,0,0
814,1765820682663,2,-4,0,0,0,0,0,0
815,1765820682814,4,-6,0,0,0,0,0,0
816,1765820683164,4,-5,-1,0,0,0,0,0
817,1765820683230,3,-4,1,0,0,0,0,0
818,1765820683463,5,-4,1,0,0,0,0,0
819,1765820683563,2,-3,1,0,0,0,0,0
820,1765820683581,4,-4,0,0,0,0,0,0
821,1765820683714,4,-6,0,0,0,0,0,0
822,1765820683881,5,-6,0,0,0,0,0,0
823,1765820683996,4,-4,0,0,0,0,0,0
824,1765820684181,2,-4,1,0,0,0,0,0
825,1765820684313,4,-4,-1,0,0,0,0,0
826,1765820684514,4,-4,1,0,0,0,0,0
827,1765820684597,3,-3,0,0,0,0,0,0
828,1765820684780,3,-5,-1,0,0,0,0,0
829,1765820684914,4,-4,0,0,0,0,0,0
830,1765820685046,4,-4,1,0,0,0,0,0
831,1765820685247,4,-5,0,0,0,0,0,0
832,1765820685331,4,-5,-1,0,0,0,0,0
833,1765820685646,4,-5,1,0,0,0,0,0
834,1765820685764,3,-5,1,0,0,0,0,0
835,1765820685962,4,-6,0,0,0,0,0,0
836,1765820686096,4,-5,0,0,0,0,0,0
837,1765820686247,3,-5,0,0,0,0,0,0
838,1765820686363,3,-5,0,0,0,0,0,0
839,1765820686547,2,-4,0,0,0,0,0,0
840,1765820686680,5,-5,0,0,0,0,0,0
841,1765820687014,4,-6,1,0,0,0,0,0
842,1765820687113,4,-5,1,0,0,0,0,0
843,1765820687297,5,-5,1,0,0,0,0,0
844,1765820687413,3,-5,0,0,0,0,0,0
845,1765820687530,4,-5,1,0,0,0,0,0
846,1765820687730,4,-3,-1,0,0,0,0,0
847,1765820687847,3,-5,0,0,0,0,0,0
848,1765820688029,3,-4,1,0,0,0,0,0
849,1765820688129,4,-4,0,0,0,0,0,0
850,1765820688280,3,-4,0,0,0,0,0,0
851,1765820688446,4,-5,0,0,0,0,0,0
852,1765820688630,4,-4,0,0,0,0,0,0
853,1765820688747,3,-6,1,0,0,0,0,0
854,1765820688845,5,-5,0,0,0,0,0,0
855,1765820689047,4,-5,1,0,0,0,0,0
856,1765820689163,4,-6,1,0,0,0,0,0
857,1765820689513,5,-5,-1,0,0,0,0,0
858,1765820689614,4,-5,0,0,0,0,0,0
859,1765820689797,5,-4,0,0,0,0,0,0
860,1765820689913,3,-5,2,0,0,0,0,0
861,1765820690180,5,-6,1,0,0,0,0,0
862,1765820690364,6,-5,1,0,0,0,0,0
863,1765820690480,4,-6,1,0,0,0,0,0
864,1765820690797,3,-3,0,0,0,0,0,0
865,1765820690913,2,-6,1,0,0,0,0,0
866,1765820691113,4,-3,0,0,0,0,0,0
867,1765820691247,3,-5,0,0,0,0,0,0
868,1765820691480,4,-5,0,0,0,0,0,0
869,1765820691747,4,-4,2,0,0,0,0,0
870,1765820691830,3,-5,1,0,0,0,0,0
871,1765820692113,2,-4,0,0,0,0,0,0
872,1765820692247,4,-4,1,0,0,0,0,0
873,1765820692430,1540,-5,0,0,0,0,0,0
874,1765820692648,2,-5,-1,0,0,0,0,0
875,1765820692747,4,-4,1,0,0,0,0,0
876,1765820692814,4,-5,1,0,0,0,0,0
877,1765820693047,4,-5,1,0,0,0,0,0
878,1765820693198,3,-3,0,0,0,0,0,0
879,1765820693446,6,-5,1,0,0,0,0,0
880,1765820693631,4,-4,0,0,0,0,0,0
881,1765820693730,4,-4,1,0,0,0,0,0
882,1765820693996,4,-5,0,0,0,0,0,0
883,1765820694063,5,-4,0,0,0,0,0,0
884,1765820797346,5,-4,0,0,0,0,0,0
885,1765820797412,3,-5,0,0,0,0,0,0
886,1765820797562,3,-5,0,0,0,0,0,0
887,1765820797762,3,-5,1,0,0,0,0,0
888,1765820798045,3,-4,-1,0,0,0,0,0
889,1765820798128,5,-6,0,0,0,0,0,0
890,1765820798363,5,-6,-1,0,0,0,0,0
891,1765820798479,4,-5,1,0,0,0,0,0
892,1765820798663,4,-6,0,0,0,0,0,0
893,1765820798780,4,-6,0,0,0,0,0,0
894,1765820798862,3,-4,0,0,0,0,0,0
895,1765820799179,2,-4,2,0,0,0,0,0
896,1765820799312,4,-4,0,0,0,0,0,0
897,1765820799429,4,-4,-1,0,0,0,0,0
898,1765820799629,5,-4,0,0,0,0,0,0
899,1765820799762,4,-5,-1,0,0,0,0,0
900,1765820800094,3,-3,1,0,0,0,0,0
901,1765820800361,3,-4,0,0,0,0,0,0
902,1765820800646,4,-5,0,0,0,0,0,0
903,1765820800779,4,-5,0,0,0,0,0,0
904,1765820800945,3,-4,0,0,0,0,0,0
905,1765820801096,4,-7,0,0,0,0,0,0
906,1765820801162,5,-5,0,0,0,0,0,0
907,1765820801462,4,-5,1,0,0,0,0,0
908,1765820801762,3,-4,1,0,0,0,0,0
909,1765820801912,3,-4,1,0,0,0,0,0
910,1765820802078,4,-5,1,0,0,0,0,0
911,1765820802379,3,-5,0,0,0,0,0,0
912,1765820802712,3,-5,1,0,0,0,0,0
913,1765820802762,2,-5,1,0,0,0,0,0
914,1765820802912,5,-5,1,0,0,0,0,0
915,1765820803062,1,-5,1,0,0,0,0,0
916,1765820803212,4,-5,0,0,0,0,0,0
917,1765820803495,3,-6,1,0,0,0,0,0
918,1765820803745,3,-5,0,0,0,0,0,0
919,1765820804129,3,-5,0,0,0,0,0,0
920,1765820804210,4,-5,1,0,0,0,0,0
921,1765820804445,3,-4,1,0,0,0,0,0
922,1765820804646,4,-6,1,0,0,0,0,0
923,1765820804963,3,-3,1,0,0,0,0,0
924,1765820805107,3,-6,1,0,0,0,0,0
925,1765820805178,2,-3,0,0,0,0,0,0
926,1765820805412,2,-4,1,0,0,0,0,0
927,1765820805496,3,-4,1,0,0,0,0,0
928,1765820805862,4,-4,1,0,0,0,0,0
929,1765820806111,5,-5,1,0,0,0,0,0
930,1765820806262,3,-5,1,0,0,0,0,0
931,1765820806429,4,-5,1,0,0,0,0,0
932,1765820806529,2,-4,0,0,0,0,0,0
933,1765820806729,5,-5,0,0,0,0,0,0
934,1765820806944,5,-6,1,0,0,0,0,0
935,1765820807262,3,-5,1,0,0,0,0,0
936,1765820807579,5,-4,0,0,0,0,0,0
937,1765820807728,3,-5,1,0,0,0,0,0
938,1765820807929,3,-5,0,0,0,0,0,0
939,1765820808195,4,-5,0,0,0,0,0,0
940,1765820808511,3,-4,0,0,0,0,0,0
941,1765820808612,5,-4,1,0,0,0,0,0
942,1765820808727,4,-5,1,0,0,0,0,0
943,1765820808895,4,-4,2,0,0,0,0,0
944,1765820809012,3,-5,0,0,0,0,0,0
945,1765820809329,4,-6,0,0,0,0,0,0
946,1765820809595,4,-5,255,0,0,0,0,0
947,1765820809912,5,-4,-1,0,0,0,0,0
948,1765820810028,4,-4,0,0,0,0,0,0
949,1765820810246,3,-5,0,0,0,0,0,0
950,1765820810462,3,-5,0,0,0,0,0,0
951,1765820810794,4,-5,0,0,0,0,0,0
952,1765820810878,4,-5,1,0,0,0,0,0
953,1765820810994,4,-5,1,0,0,0,0,0
954,1765820811195,3,-4,1,0,0,0,0,0
955,1765820811295,4,-4,0,0,0,0,0,0
956,1765820811529,4,-6,2,0,0,0,0,0
957,1765820811595,4,-5,2,0,0,0,0,0
958,1765820811812,3,-4,1,0,0,0,0,0
959,1765820812094,5,-4,0,0,0,0,0,0
960,1765820812195,2,-5,0,0,0,0,0,0
961,1765820812312,4,-5,1,0,0,0,0,0
962,1765820812545,2,-5,1,0,0,0,0,0
963,1765820812611,3,-6,1,0,0,0,0,0
964,1765820812762,2,-4,0,0,0,0,0,0
965,1765820812894,3,-5,1,0,0,0,0,0
966,1765820813145,3,-4,0,0,0,0,0,0
967,1765820813511,3,-3,0,0,0,0,0,0
968,1765820813611,3,-5,0,0,0,0,0,0
969,1765820813844,4,-5,0,0,0,0,0,0
970,1765820813910,4,-4,0,0,0,0,0,0
971,1765820814061,4,-5,1,0,0,0,0,0
972,1765820814379,3,-3,0,0,0,0,0,0
973,1765820814579,4,-5,1,0,0,0,0,0
974,1765820814762,4,-5,0,0,0,0,0,0
975,1765820814879,5,-6,1,0,0,0,0,0
976,1765820815045,2,-5,0,0,0,0,0,0
977,1765820815195,2,-3,1,0,0,0,0,0
978,1765820815428,3,-4,0,0,0,0,0,0
979,1765820815728,5,-6,0,0,0,0,0,0
980,1765820815894,3,-6,1,0,0,0,0,0
981,1765820816045,4,-4,0,0,0,0,0,0
982,1765820816162,3,-5,1,0,0,0,0,0
983,1765820816262,2,-3,1,0,0,0,0,0
984,1765820816379,5,-5,0,0,0,0,0,0
985,1765820816680,4,-5,1,0,0,0,0,0
986,1765820816911,4,-5,1,0,0,0,0,0
987,1765820817096,3,-6,1,0,0,0,0,0
988,1765820817195,5,-5,1,0,0,0,0,0
989,1765820817346,4,-5,1,0,0,0,0,0
990,1765820817462,4,-4,1,0,0,0,0,0
991,1765820817645,4,-4,1,0,0,0,0,0
992,1765820818178,3,-5,-1,0,0,0,0,0
993,1765820818263,4,-6,1,0,0,0,0,0
994,1765820818462,4,-5,0,0,0,0,0,0
995,1765820818662,5,-6,-1,0,0,0,0,0
996,1765820818745,3,-6,1,0,0,0,0,0
997,1765820819145,5,-4,-1,0,0,0,0,0
998,1765820819395,3,-5,1,0,0,0,0,0
999,1765820819546,4,-4,0,0,0,0,0,0
1000,1765820819744,4,-5,0,0,0,0,0,0
1001,1765820819844,4,-6,0,0,0,0,0,0
1002,1765820820028,4,-6,1,0,0,0,0,0
1003,1765820820229,5,-5,0,0,0,0,0,0
1004,1765820820296,5,-5,0,0,0,0,0,0
1005,1765820820612,5,-5,0,0,0,0,0,0
1006,1765820820961,4,-4,0,0,0,0,0,0
1007,1765820821096,4,-5,1,0,0,0,0,0
1008,1765820821262,5,-4,1,0,0,0,0,0
1009,1765820821412,3,-4,1,0,0,0,0,0
1010,1765820821595,4,-4,1,0,0,0,0,0
1011,1765820821844,3,-5,1,0,0,0,0,0
1012,1765820986278,5,-7,-256,0,0,0,0,0
1013,1765820986526,3,-5,1,0,0,0,0,0
1014,1765820986877,5,-5,0,0,0,0,0,0
1015,1765820986959,3,-5,0,0,0,0,0,0
1016,1765820987176,4,-5,0,0,0,0,0,0
1017,1765820987243,5,-4,255,0,0,0,0,0
1018,1765820987393,6,-6,0,0,0,0,0,0
1019,1765820987693,4,-5,0,0,0,0,0,0
1020,1765820987776,4,-4,0,0,0,0,0,0
1021,1765820987858,6,-5,-1,0,0,0,0,0
1022,1765820988077,4,-5,0,0,0,0,0,0
1023,1765820988210,3,-4,1,0,0,0,0,0
1024,1765820988377,4,-6,1,0,0,0,0,0
1025,1765820988477,3,-6,1,0,0,0,0,0
1026,1765820988676,4,-5,0,0,0,0,0,0
1027,1765820988959,5,-5,1,0,0,0,0,0
1028,1765820989176,4,-4,0,0,0,0,0,0
1029,1765820989276,4,-6,0,0,0,0,0,0
1030,1765820989476,5,-4,1,0,0,0,0,0
1031,1765820989559,4,-5,0,0,0,0,0,0
1032,1765820989693,5,-5,2,0,0,0,0,0
1033,1765820989893,3,-7,0,0,0,0,0,0
1034,1765820990126,6,-6,0,0,0,0,0,0
1035,1765820990376,4,-5,1,0,0,0,0,0
1036,1765820990510,5,-5,0,0,0,0,0,0
1037,1765820990660,4,-6,1,0,0,0,0,0
1038,1765820990710,4,-5,1,0,0,0,0,0
1039,1765820990859,4,-5,0,0,0,0,0,0
1040,1765820990994,4,-6,0,0,0,0,0,0
1041,1765820991359,4,-5,1,0,0,0,0,0
1042,1765820991576,5,-5,1,0,0,0,0,0
1043,1765820991776,2,-6,0,0,0,0,0,0
1044,1765820991994,2,-5,0,0,0,0,0,0
1045,1765820992076,6,-5,-1,0,0,0,0,0
1046,1765820992293,3,-5,1,0,0,0,0,0
1047,1765820992510,3,-6,1,0,0,0,0,0
1048,1765820992676,6,-3,1,0,0,0,0,0
1049,1765820992910,3,-5,1,0,0,0,0,0
1050,1765820993110,4,-6,0,0,0,0,0,0
1051,1765820993226,4,-6,0,0,0,0,0,0
1052,1765820993393,5,-4,1,0,0,0,0,0
1053,1765820993509,4,-6,2,0,0,0,0,0
1054,1765820993609,5,-6,0,0,0,0,0,0
1055,1765820993759,4,-6,1,0,0,0,0,0
1056,1765820993994,6,-5,2,0,0,0,0,0
1057,1765820994410,5,-5,-1,0,0,0,0,0
1058,1765820994477,4,-6,0,0,0,0,0,0
1059,1765820994693,4,-6,0,0,0,0,0,0
1060,1765820994893,4,-5,0,0,0,0,0,0
1061,1765820994977,4,-5,0,0,0,0,0,0
1062,1765820995376,4,-5,0,0,0,0,0,0
1063,1765820995610,4,-5,0,0,0,0,0,0
1064,1765820995776,4,-5,0,0,0,0,0,0
1065,1765820995810,6,-6,1,0,0,0,0,0
1066,1765820995993,4,-4,2,0,0,0,0,0
1067,1765820996127,5,-5,1,0,0,0,0,0
1068,1765820996276,3,-5,1,0,0,0,0,0
1069,1765820996476,5,-6,0,0,0,0,0,0
1070,1765820996744,4,-6,0,0,0,0,0,0
1071,1765820996843,3,-6,0,0,0,0,0,0
1072,1765820997043,4,-5,1,0,0,0,0,0
1073,1765820997210,6,-6,0,0,0,0,0,0
1074,1765820997326,4,-5,-1,0,0,0,0,0
1075,1765820997493,4,-7,0,0,0,0,0,0
1076,1765820997543,4,-5,1,0,0,0,0,0
1077,1765820997710,5,-5,0,0,0,0,0,0
1078,1765820997927,6,-6,0,0,0,0,0,0
1079,1765820998309,5,-5,0,0,0,0,0,0
1080,1765820998393,3,-4,0,0,0,0,0,0
1081,1765820998593,5,-4,1,0,0,0,0,0
1082,1765820998843,4,-6,0,0,0,0,0,0
1083,1765820998926,3,-6,0,0,0,0,0,0
1084,1765820999243,4,-5,-1,0,0,0,0,0
1085,1765820999443,4,-6,-1,0,0,0,0,0
1086,1765820999675,4,-5,0,0,0,0,0,0
1087,1765820999794,5,-5,0,0,0,0,0,0
1088,1765820999842,5,-6,0,0,0,0,0,0
1089,1765820999926,4,-6,1,0,0,0,0,0
1090,1765821000143,6,-5,1,0,0,0,0,0
1091,1765821000409,6,-5,0,0,0,0,0,0
1092,1765821000691,3,-7,0,0,0,0,0,0
1093,1765821000859,5,-6,0,0,0,0,0,0
1094,1765821001143,5,-5,0,0,0,0,0,0
1095,1765821001326,6,-5,0,0,0,0,0,0
1096,1765821001709,5,-7,0,0,0,0,0,0
1097,1765821001943,5,-3,0,0,0,0,0,0
1098,1765821002059,4,-5,2,0,0,0,0,0
1099,1765821002392,1541,-5,0,0,0,0,0,0
1100,1765821002459,5,-4,0,0,0,0,0,0
1101,1765821002759,6,-6,1,0,0,0,0,0
1102,1765821002909,5,-6,0,0,0,0,0,0
1103,1765821002993,4,-5,0,0,0,0,0,0
1104,1765821003210,4,-5,1,0,0,0,0,0
1105,1765821003376,4,-5,-1,0,0,0,0,0
1106,1765821003443,4,-7,0,0,0,0,0,0
1107,1765821003658,4,-6,0,0,0,0,0,0
1108,1765821004209,4,-6,0,0,0,0,0,0
1109,1765821004376,5,-6,0,0,0,0,0,0
1110,1765821004677,6,-5,0,0,0,0,0,0
1111,1765821004776,4,-6,1,0,0,0,0,0
1112,1765821005059,4,-5,-1,0,0,0,0,0
1113,1765821005144,4,-5,-256,0,0,0,0,0
1114,1765821005409,4,-6,0,0,0,0,0,0
1115,1765821005526,4,-7,0,0,0,0,0,0
1116,1765821005677,4,-6,-1,0,0,0,0,0
1117,1765821005859,4,-6,1,0,0,0,0,0
1118,1765821005976,5,-6,0,0,0,0,0,0
1119,1765821006459,5,-6,0,0,0,0,0,0
1120,1765821006526,5,-5,0,0,0,0,0,0
1121,1765821006759,4,-4,0,0,0,0,0,0
1122,1765821006892,4,-6,1,0,0,0,0,0
1123,1765821006993,4,-6,1,0,0,0,0,0
1124,1765821007243,4,-6,1,0,0,0,0,0
1125,1765821007627,5,-6,-1,0,0,0,0,0
1126,1765821007794,3,-6,0,0,0,0,0,0
1127,1765821007960,4,-6,1,0,0,0,0,0
1128,1765821008026,6,-6,-1,0,0,0,0,0
1129,1765821008227,4,-6,1,0,0,0,0,0
1130,1765821008559,5,-5,0,0,0,0,0,0
1131,1765821008776,6,-5,1,0,0,0,0,0
1132,1765821008993,5,-6,0,0,0,0,0,0
1133,1765821009093,4,-5,0,0,0,0,0,0
1134,1765821009259,5,-5,1,0,0,0,0,0
1135,1765821009443,4,-5,0,0,0,0,0,0
1136,1765821009693,5,-6,0,0,0,0,0,0
1137,1765821010026,4,-6,0,0,0,0,0,0
1138,1765821010108,6,-5,0,0,0,0,0,0
1139,1765821010326,5,-6,-1,0,0,0,0,0
1140,1765821010476,4,-6,1,0,0,0,0,0
1141,1765821010543,5,-6,0,0,0,0,0,0
1142,1765821010876,4,-7,1,0,0,0,0,0
1143,1765821010942,5,-5,0,0,0,0,0,0
1144,1765821011193,6,-5,1,0,0,0,0,0
1145,1765821011343,5,-5,0,0,0,0,0,0
1146,1765821011509,5,-6,-1,0,0,0,0,0
1147,1765821011643,5,-5,2,0,0,0,0,0
1148,1765821011793,4,-6,1,0,0,0,0,0
1149,1765821012326,5,-6,0,0,0,0,0,0
1150,1765821012559,5,-5,0,0,0,0,0,0
1151,1765821012658,5,-6,0,0,0,0,0,0
1152,1765821012709,3,-5,1,0,0,0,0,0
1153,1765821012793,5,-4,1,0,0,0,0,0
1154,1765821013076,5,-5,0,0,0,0,0,0
1155,1765821013443,5,-5,0,0,0,0,0,0
1156,1765821013576,5,-5,0,0,0,0,0,0
1157,1765821013777,5,-6,2,0,0,0,0,0
1158,1765821014010,3,-5,0,0,0,0,0,0
1159,1765821014127,5,-5,-255,0,0,0,0,0
1160,1765821014392,4,-6,-1,0,0,0,0,0
1161,1765821014543,4,-6,0,0,0,0,0,0
1162,1765821014728,5,-5,0,0,0,0,0,0
1163,1765821014844,4,-6,0,0,0,0,0,0
1164,1765821015179,4,-6,1,0,0,0,0,0
1165,1765821015311,5,-6,0,0,0,0,0,0
1166,1765821015776,5,-6,0,0,0,0,0,0
1167,1765821015844,5,-6,1,0,0,0,0,0
1168,1765821286956,5,-7,2,0,0,0,0,0
1169,1765821291356,4,-8,1,0,0,0,0,0
1170,1765821296273,6,-6,0,0,0,0,0,0
1171,1765821296823,6,-6,0,0,0,0,0,0
1172,1765821297272,6,-7,0,0,0,0,0,0
1173,1765821300456,5,-6,0,0,0,0,0,0
1174,1765821307189,6,-6,255,0,0,0,0,0
1175,1765821309256,5,-7,1,0,0,0,0,0
1176,1765821454420,4,-7,-1,0,0,0,0,0
1177,1765821454821,7,-8,0,0,0,0,0,0
1178,1765821457704,4,-7,-1,0,0,0,0,0
1179,1765821458054,6,-7,0,0,0,0,0,0
1180,1765821460320,6,-6,1,0,0,0,0,0
1181,1765821461220,6,-6,1,0,0,0,0,0
1182,1765821462888,4,-7,0,0,0,0,0,0
1183,1765821873565,7,-8,1,0,0,0,0,0
1184,1765821875631,5,-8,0,0,0,0,0,0
1185,1765821876481,6,-6,0,0,0,0,0,0
1186,1765821876915,6,-8,0,0,0,0,0,0
1187,1765821879414,6,-8,0,0,0,0,0,0
1188,1765821887514,5,-7,-1,0,0,0,0,0
1189,1765821893998,7,-7,0,0,0,0,0,0
1190,1765821988298,6,-8,1,0,0,0,0,0
1191,1765822012296,6,-8,0,0,0,0,0,0
1192,1765822127395,7,-8,0,0,0,0,0,0
1193,1765822253676,6,-7,0,0,0,0,0,0
1194,1765822253744,6,-10,0,0,0,0,0,0
1195,1765822256810,6,-9,0,0,0,0,0,0
1196,1765822256927,7,-9,0,0,0,0,0,0
1197,1765822257910,6,-9,0,0,0,0,0,0
1198,1765822258279,6,-9,0,0,0,0,0,0
1199,1765822261259,6,-9,-1,0,0,0,0,0
1200,1765822263543,7,-8,0,0,0,0,0,0
1201,1765822269060,8,-13,-2,0,0,0,0,0
1202,1765822269726,5,-10,-2,0,0,0,0,0
1203,1765822269893,9,-12,1,0,0,0,0,0
1204,1765822270143,6,-8,-3,0,0,0,0,0
1205,1765822270625,7,-10,0,0,0,0,0,0
1206,1765822271310,8,-9,-1,0,0,0,0,0
1207,1765822274526,7,-9,0,0,0,0,0,0
1208,1765822277193,7,-10,-1,0,0,0,0,0
1209,1765822277476,6,-8,-2,0,0,0,0,0
1210,1765822277577,8,-9,1,0,0,0,0,0
1211,1765822277743,7,-9,0,0,0,0,0,0
1212,1765822785003,0,-3,0,0,0,0,0,0
1213,1765822792354,5,-8,-2,0,0,0,0,0
1214,1765823207314,4,-7,-1,0,0,0,0,0
1215,1765823207413,9,-11,-1,0,0,0,0,0
1216,1765823207581,14,-12,-1,0,0,0,0,0
1217,1765823207765,5,-9,0,0,0,0,0,0
1218,1765823207931,7,-10,-1,0,0,0,0,0
1219,1765823208048,8,-8,0,0,0,0,0,0
1220,1765823208248,8,-10,1,0,0,0,0,0
1221,1765823208348,7,-11,-1,0,0,0,0,0
1222,1765823208365,8,-10,-1,0,0,0,0,0
1223,1765823208548,8,-8,-1,0,0,0,0,0
1224,1765823208664,6,-8,-1,0,0,0,0,0
1225,1765823208881,7,-9,0,0,0,0,0,0
1226,1765823208965,6,-9,-1,0,0,0,0,0
1227,1765823209197,6,-8,-1,0,0,0,0,0
1228,1765823209281,6,-11,1,0,0,0,0,0
1229,1765823209513,8,-9,0,0,0,0,0,0
1230,1765823209596,8,-9,-1,0,0,0,0,0
1231,1765823209830,14,-13,0,0,0,0,0,0
1232,1765823209947,4,9,4,0,0,0,0,0
1233,1765823210130,17,-13,8,0,0,0,0,0
1234,1765823210281,3,-1,-3,0,0,0,0,0
1235,1765823210430,-8,-4,1,0,0,0,0,0
1236,1765823210631,8,-9,0,0,0,0,0,0
1237,1765823210748,6,-8,-1,0,0,0,0,0
1238,1765823210964,9,-10,0,0,0,0,0,0
1239,1765823211047,7,-10,-1,0,0,0,0,0
1240,1765823211298,6,-9,-1,0,0,0,0,0
1241,1765823211364,8,-10,1,0,0,0,0,0
1242,1765823211598,7,-9,-1,0,0,0,0,0
1243,1765823211715,7,-10,0,0,0,0,0,0
1244,1765823211915,7,-9,0,0,0,0,0,0
1245,1765823212081,6,-10,0,0,0,0,0,0
1246,1765823212215,8,-9,-1,0,0,0,0,0
1247,1765823212398,7,-9,-1,0,0,0,0,0
1248,1765823212515,5,-10,-1,0,0,0,0,0
1249,1765823212764,7,-10,-1,0,0,0,0,0
1250,1765823212831,9,-11,-1,0,0,0,0,0
1251,1765823213064,7,-11,-1,0,0,0,0,0
1252,1765823213165,8,-11,-1,0,0,0,0,0
1253,1765823213398,7,-8,-1,0,0,0,0,0
1254,1765823213498,6,-9,0,0,0,0,0,0
1255,1765823213682,6,-7,3,0,0,0,0,0
1256,1765823213849,18,-16,8,0,0,0,0,0
1257,1765823214014,22,-16,-5,0,0,0,0,0
1258,1765823214165,3,-8,-1,0,0,0,0,0
1259,1765823214503,3,-7,-1,0,0,0,0,0
1260,1765823214513,5,-9,-1,0,0,0,0,0
1261,1765823214598,4,-9,-1,0,0,0,0,0
1262,1765823214863,5,-9,0,0,0,0,0,0
1263,1765823214931,7,-11,-1,0,0,0,0,0
1264,1765823215148,6,-7,-1,0,0,0,0,0
1265,1765823215281,8,-10,0,0,0,0,0,0
1266,1765823215481,7,-9,0,0,0,0,0,0
1267,1765823215598,6,-7,-1,0,0,0,0,0
1268,1765823215764,5,-8,-1,0,0,0,0,0
1269,1765823215948,8,-10,-1,0,0,0,0,0
1270,1765823216098,7,-8,0,0,0,0,0,0
1271,1765823216297,6,-9,0,0,0,0,0,0
1272,1765823216382,6,-8,0,0,0,0,0,0
1273,1765823216613,7,-8,-1,0,0,0,0,0
1274,1765823216696,7,-9,0,0,0,0,0,0
1275,1765823216948,8,-13,-1,0,0,0,0,0
1276,1765823217048,6,-8,-1,0,0,0,0,0
1277,1765823217248,6,-10,0,0,0,0,0,0
1278,1765823217381,7,-10,0,0,0,0,0,0
1279,1765823217564,7,-9,-1,0,0,0,0,0
1280,1765823217732,8,-9,-1,0,0,0,0,0
1281,1765823217865,6,-9,-1,0,0,0,0,0
1282,1765823218081,7,-9,-2,0,0,0,0,0
1283,1765823218182,8,-9,0,0,0,0,0,0
1284,1765823218414,6,-9,-1,0,0,0,0,0
1285,1765823218480,6,-10,0,0,0,0,0,0
1286,1765823218714,7,-10,0,0,0,0,0,0
1287,1765823218848,8,-10,0,0,0,0,0,0
1288,1765823219031,8,-10,0,0,0,0,0,0
1289,1765823219181,9,-11,-1,0,0,0,0,0
1290,1765823219331,8,-11,0,0,0,0,0,0
1291,1765823219532,6,-8,0,0,0,0,0,0
1292,1765823219649,8,-9,0,0,0,0,0,0
1293,1765823219864,9,-9,1,0,0,0,0,0
1294,1765823219949,6,-11,-2,0,0,0,0,0
1295,1765823220182,10,-13,-1,0,0,0,0,0
1296,1765823220282,7,-11,-1,0,0,0,0,0
1297,1765823720209,7,-9,-2,0,0,0,0,0
1298,1765823722975,9,-12,-1,0,0,0,0,0
1299,1765823723425,6,-7,0,0,0,0,0,0
1300,1765823723858,7,-8,0,0,0,0,0,0
1301,1765823724140,6,-8,1,0,0,0,0,0
1302,1765823724590,6,-12,-1,0,0,0,0,0
1303,1765823725090,6,-10,-1,0,0,0,0,0
1304,1765823725358,6,-11,-2,0,0,0,0,0
1305,1765823725624,8,-10,0,0,0,0,0,0
1306,1765823727109,7,-9,-1,0,0,0,0,0
1307,1765823729225,8,-10,-1,0,0,0,0,0
1308,1765823730874,8,-11,-1,0,0,0,0,0
1309,1765823732208,7,-10,0,0,0,0,0,0
1310,1765823732942,7,-9,0,0,0,0,0,0
1311,1765823733473,7,-10,0,0,0,0,0,0
1312,1765823738992,8,-11,-1,0,0,0,0,0
1313,1765823740124,7,-10,0,0,0,0,0,0
1314,1765823740708,8,-11,0,0,0,0,0,0
1315,1765823741440,8,-10,-1,0,0,0,0,0
1316,1765823741842,7,-10,0,0,0,0,0,0
1317,1765823742357,7,-9,-1,0,0,0,0,0
1318,1765823744990,8,-11,-1,0,0,0,0,0
1319,1765823746858,8,-10,-1,0,0,0,0,0
1320,1765823747608,7,-9,-2,0,0,0,0,0
1321,1765823748057,8,-10,0,0,0,0,0,0
1322,1765823748641,7,-10,-1,0,0,0,0,0
1323,1765823748725,7,-10,255,0,0,0,0,0
1324,1765823749292,6,-9,0,0,0,0,0,0
1325,1765823749791,6,-11,-2,0,0,0,0,0
1326,1765823755042,9,-11,0,0,0,0,0,0
1327,1765823755574,8,-11,0,0,0,0,0,0
1328,1765823756407,7,-11,0,0,0,0,0,0
1329,1765823756792,6,-9,-1,0,0,0,0,0
1330,1765823757058,7,-10,-1,0,0,0,0,0
1331,1765823757123,8,-11,-2,0,0,0,0,0
1332,1765823865490,9,-11,0,0,0,0,0,0
1333,1765823865673,5,-9,-1,0,0,0,0,0
1334,1765823865756,9,-11,255,0,0,0,0,0
1335,1765823866156,7,-12,-1,0,0,0,0,0
1336,1765823866340,8,-10,-1,0,0,0,0,0
1337,1765823867023,6,-10,-1,0,0,0,0,0
1338,1765823868039,7,-11,-1,0,0,0,0,0
1339,1765823869990,8,-10,-256,0,0,0,0,0
1340,1765823870389,8,-9,-2,0,0,0,0,0
1341,1765823870606,6,-10,-1,0,0,0,0,0
1342,1765823870922,7,-11,0,0,0,0,0,0
1343,1765823870955,8,-10,0,0,0,0,0,0
1344,1765823873871,8,-9,0,0,0,0,0,0
1345,1765823876140,9,-11,-1,0,0,0,0,0
1346,1765823876256,8,-11,0,0,0,0,0,0
1347,1765823876539,7,-8,-2,0,0,0,0,0
1348,1765823876689,8,-9,-2,0,0,0,0,0
1349,1765823876891,7,-11,-1,0,0,0,0,0
1350,1765823880871,6,-11,-1,0,0,0,0,0
1351,1765823881005,6,-10,0,0,0,0,0,0
1352,1765823881188,7,-10,0,0,0,0,0,0
1353,1765823881405,7,-9,0,0,0,0,0,0
1354,1765823881938,7,-11,-1,0,0,0,0,0
1355,1765823882022,7,-9,0,0,0,0,0,0
1356,1765823883439,8,-11,0,0,0,0,0,0
1357,1765823883839,8,-10,0,0,0,0,0,0
1358,1765823887339,5,-11,-1,0,0,0,0,0
1359,1765823887639,7,-9,0,0,0,0,0,0
1360,1765823887773,9,-11,-1,0,0,0,0,0
1361,1765823888006,7,-9,-1,0,0,0,0,0
1362,1765823888373,6,-8,-2,0,0,0,0,0
1363,1765823889708,7,-10,0,0,0,0,0,0
1364,1765823971772,8,-9,-1,0,0,0,0,0
1365,1765823972071,7,-11,0,0,0,0,0,0
1366,1765823972771,7,-10,0,0,0,0,0,0
1367,1765823972855,7,-9,0,0,0,0,0,0
1368,1765823973038,7,-10,0,0,0,0,0,0
1369,1765823973587,7,-11,0,0,0,0,0,0
1370,1765823974172,9,-10,-1,0,0,0,0,0
1371,1765823974788,9,-10,0,0,0,0,0,0
1372,1765823977088,7,-9,-2,0,0,0,0,0
1373,1765823977538,9,-11,255,0,0,0,0,0
1374,1765823977904,8,-11,-1,0,0,0,0,0
1375,1765823978388,7,-9,-2,0,0,0,0,0
1376,1765823982871,7,-9,-1,0,0,0,0,0
1377,1765823983053,7,-10,-1,0,0,0,0,0
1378,1765823983204,9,-10,-1,0,0,0,0,0
1379,1765823983455,7,-11,-1,0,0,0,0,0
1380,1765823983737,8,-10,-1,0,0,0,0,0
1381,1765823985970,8,-10,-1,0,0,0,0,0
1382,1765823986705,8,-11,-1,0,0,0,0,0
1383,1765823987854,7,-10,-1,0,0,0,0,0
1384,1765823988655,7,-11,1,0,0,0,0,0
1385,1765823988772,9,-9,-1,0,0,0,0,0
1386,1765823988938,6,-10,0,0,0,0,0,0
1387,1765823993554,8,-9,-1,0,0,0,0,0
1388,1765823993704,6,-11,0,0,0,0,0,0
1389,1765823994054,7,-10,0,0,0,0,0,0
1390,1765823995971,7,-10,0,0,0,0,0,0
1391,1765823996621,6,-11,0,0,0,0,0,0
1392,1765823998588,9,-11,0,0,0,0,0,0
1393,1765823998805,6,-10,0,0,0,0,0,0
1394,1765823998971,8,-9,-1,0,0,0,0,0
1395,1765824002621,6,-10,0,0,0,0,0,0
1396,1765824003004,9,-10,0,0,0,0,0,0
1397,1765824003338,8,-10,0,0,0,0,0,0
1398,1765824003455,7,-10,0,0,0,0,0,0
1399,1765824003603,8,-9,0,0,0,0,0,0
1400,1765824164636,9,-9,-1,0,0,0,0,0
1401,1765824166185,4,-9,-2,0,0,0,0,0
1402,1765824169018,9,-16,0,0,0,0,0,0
1403,1765824173168,6,-10,-1,0,0,0,0,0
1404,1765824173435,8,-9,0,0,0,0,0,0
1405,1765824173535,5,-11,0,0,0,0,0,0
1406,1765824173668,9,-12,-1,0,0,0,0,0
1407,1765824175784,6,-8,-2,0,0,0,0,0
1408,1765824176285,10,-11,0,0,0,0,0,0
1409,1765824180018,8,-9,-1,0,0,0,0,0
1410,1765824180169,103,-11,-1,0,0,0,0,0
1411,1765824180469,7,-10,-256,0,0,0,0,0
1412,1765824180485,7,-9,0,0,0,0,0,0
1413,1765824180785,7,-11,-2,0,0,0,0,0
1414,1765824180968,8,-11,-1,0,0,0,0,0
1415,1765824182652,6,-9,0,0,0,0,0,0
1416,1765824183068,8,-10,-1,0,0,0,0,0
1417,1765824186818,9,-10,-1,0,0,0,0,0
1418,1765824187035,8,-10,0,0,0,0,0,0
1419,1765824187235,7,-10,0,0,0,0,0,0
1420,1765824187835,9,-10,0,0,0,0,0,0
1421,1765824190318,7,-10,1,0,0,0,0,0
1422,1765824193668,8,-10,-1,0,0,0,0,0
1423,1765824194118,8,-9,-1,0,0,0,0,0
1424,1765824194318,7,-10,0,0,0,0,0,0
1425,1765824194551,9,-9,-1,0,0,0,0,0
1426,1765824195168,8,-9,0,0,0,0,0,0
1427,1765824195351,7,-9,-2,0,0,0,0,0
1428,1765824195602,8,-10,0,0,0,0,0,0
1429,1765824195752,6,-9,-1,0,0,0,0,0
1430,1765824195901,7,-9,-1,0,0,0,0,0
