index,date,GYRO_X,GYRO_Y,GYRO_Z,1,2,3,4,5
0,1762969984544,3,65529,0,0,0,0,0,0
1,1762969984609,3,65528,65535,0,0,0,0,0
2,1762969984693,3,65529,0,0,0,0,0,0
3,1762969984792,3,65529,1,0,0,0,0,0
4,1762969984844,3,65530,0,0,0,0,0,0
5,1762969984926,4,65529,0,0,0,0,0,0
6,1762969984942,2,65530,1,0,0,0,0,0
7,1762969985025,3,65528,65535,0,0,0,0,0
8,1762969985125,5,65528,1,0,0,0,0,0
9,1762969985191,4,65529,0,0,0,0,0,0
10,1762969985259,2,65529,0,0,0,0,0,0
11,1762969985276,4,65529,1,0,0,0,0,0
12,1762969985359,3,65529,0,0,0,0,0,0
13,1762969985391,2,65529,65535,0,0,0,0,0
14,1762969985491,3,65529,65535,0,0,0,0,0
15,1762969985542,4,65528,0,0,0,0,0,0
16,1762969985591,3,65529,0,0,0,0,0,0
17,1762969985659,3,65530,0,0,0,0,0,0
18,1762969985708,2,65527,0,0,0,0,0,0
19,1762969985792,4,65528,0,0,0,0,0,0
20,1762969985875,4,65528,0,0,0,0,0,0
21,1762969985924,3,65529,65535,0,0,0,0,0
22,1762969985975,3,65529,65535,3.31,0,0,0,0
23,1762969986058,3,65529,0,0,0,0,0,0
24,1762969986058,1,65528,0,0,0,0,0,0
25,1762969986125,3,65530,1,0,0,0,0,0
26,1762969986175,4,65529,0,0,0,0,0,0
27,1762969986257,3,65529,65535,0,0,0,0,0
28,1762969986291,1,65530,1,0,0,0,0,0
29,1762969986374,4,65526,65534,3.32,0,0,0,0
30,1762969986424,3,65527,0,0,0,0,0,0
31,1762969986474,2,65530,65535,0,0,0,0,0
32,1762969986525,1,65528,65535,0,0,0,0,0
33,1762969986592,3,65530,0,1,0,0,0,0
34,1762969986658,4,65530,65535,0,0,0,0,0
35,1762969986707,5,65529,0,0,0,0,0,0
36,1762969986841,2,65528,0,3.32,0,0,0,0
37,1762969986990,3,65529,65535,0,0,0,0,0
38,1762969987024,4,65529,0,0,0,0,0,0
39,1762969987074,1,65528,65535,0,0,0,0,0
40,1762969987107,4,65529,0,0,0,0,0,0
41,1762969987174,4,65529,0,0,0,0,0,0
42,1762969987208,4,65529,65535,0,0,0,0,0
43,1762969987240,1,65529,65535,0,0,0,0,0
44,1762969987340,3,65528,65535,0,0,0,0,0
45,1762969987373,2,65529,65535,0,0,0,0,0
46,1762969987506,3,65528,0,0,0,0,0,0
47,1762969987624,4,65529,0,0,0,0,0,0
48,1762969987690,3,65530,65535,0,0,0,0,0
49,1762969987790,2,65529,0,0,0,0,0,0
50,1762969987890,3,65529,65535,0,0,0,0,0
51,1762969987957,3,65529,0,0,0,0,0,0
52,1762969988024,2,65529,65535,0,0,0,0,0
53,1762969988140,1,65529,65535,0,0,0,0,0
54,1762969988190,3,65529,0,0,0,0,0,0
55,1762969988257,3,65529,65535,0,0,0,0,0
56,1762969988323,3,65528,65535,0,0,0,0,0
57,1762969988356,3,65529,0,0,0,0,0,0
58,1762969988439,2,65529,0,0,0,0,0,0
59,1762969988489,5,65529,0,0,0,0,0,0
60,1762969988557,2,65528,0,0,0,0,0,0
61,1762969988589,3,65529,0,0,0,0,0,0
62,1762969988689,3,65528,65535,0,0,0,0,0
63,1762969988756,3,65528,0,0,0,0,0,0
64,1762969988855,5,65529,65535,0,0,0,0,0
65,1762969988990,3,65529,0,0,0,0,0,0
66,1762969989089,3,65529,0,0,0,0,0,0
67,1762969989139,2,65528,0,0,0,0,0,0
68,1762969989240,2,65529,65535,0,0,0,0,0
69,1762969989307,3,65528,0,0,0,0,0,0
70,1762969989357,4,65529,65535,0,0,0,0,0
71,1762969989438,3,65529,0,0,0,0,0,0
72,1762969989472,2,65530,65535,0,0,0,0,0
73,1762969989605,3,65528,0,0,0,0,0,0
74,1762969989655,3,65528,0,0,0,0,0,0
75,1762969989772,2,65528,65535,0,0,0,0,0
76,1762969989921,4,65530,65535,0,0,0,0,0
77,1762969990055,3,65530,65535,0,0,0,0,0
78,1762969990105,2,65528,0,3.32,0,0,0,0
79,1762969990138,2,65529,0,0,0,0,0,0
80,1762969990154,2,65529,65535,0,0,0,0,0
81,1762969990205,3,65529,65534,0,0,0,0,0
82,1762969990238,2,65530,0,1,0,0,0,0
83,1762969990304,3,65528,65535,0,0,0,0,0
84,1762969990354,3,65529,65535,0,0,0,0,0
85,1762969990437,3,65528,65535,0,0,0,0,0
86,1762969990554,3,65529,65535,0,0,0,0,0
87,1762969990570,2,65528,0,0,0,0,0,0
88,1762969990671,4,65529,65535,0,0,0,0,0
89,1762969990704,2,65529,65535,0,0,0,0,0
90,1762969990854,3,65529,1,0,0,0,0,0
91,1762969990954,2,65528,65535,0,0,0,0,0
92,1762969991103,4,65529,0,0,0,0,0,0
93,1762969991171,4,65528,0,0,0,0,0,0
94,1762969991206,2,65530,65535,0,0,0,0,0
95,1762969991288,2,65528,0,0,0,0,0,0
96,1762969991320,2,65529,0,0,0,0,0,0
97,1762969991407,2,65528,0,0,0,0,0,0
98,1762969991439,4,65529,0,0,0,0,0,0
99,1762969991521,2,65529,0,0,0,0,0,0
100,1762969991555,3,65530,0,0,0,0,0,0
101,1762969991654,4,65530,0,0,0,0,0,0
102,1762969991771,3,65529,65280,0,0,0,0,0
103,1762969991804,2,65529,65535,0,0,0,0,0
104,1762969991923,3,65529,0,0,0,0,0,0
105,1762969991972,3,65530,1,0,0,0,0,0
106,1762969992023,3,65528,1,0,0,0,0,0
107,1762969992055,4,65528,0,0,0,0,0,0
108,1762969992238,3,65530,65534,0,0,0,0,0
109,1762969992321,4,65528,0,0,0,0,0,0
110,1762969992387,4,65529,65535,0,0,0,0,0
111,1762969992421,3,65530,0,0,0,0,0,0
112,1762969992504,3,65530,0,0,0,0,0,0
113,1762969992553,1,65530,0,1,0,0,0,0
114,1762969992641,2,65529,0,0,0,0,0,0
115,1762969992654,2,65530,65535,0,0,0,0,0
116,1762969992804,4,65529,65535,0,0,0,0,0
117,1762969992921,2,65528,65535,0,0,0,0,0
118,1762969992970,3,65530,0,0,0,0,0,0
119,1762969993019,4,65528,0,0,0,0,0,0
120,1762969993069,4,65529,65535,0,0,0,0,0
121,1762969993169,2,65530,65535,0,0,0,0,0
122,1762969993220,5,65528,65535,3.26,0,0,0,0
123,1762969993318,2,65529,65535,0,0,0,0,0
124,1762969993353,3,65529,65535,0,0,0,0,0
125,1762969993470,2,65530,65534,0,0,0,0,0
126,1762969993536,2,65529,65535,0,0,0,0,0
127,1762969993553,3,65529,0,0,0,0,0,0
128,1762969993619,3,65530,0,0,0,0,0,0
129,1762969993686,2,65529,0,0,0,0,0,0
130,1762969993735,3,65528,65535,0,0,0,0,0
131,1762969993803,3,65528,65535,0,0,0,0,0
132,1762969993886,2,65529,0,0,0,0,0,0
133,1762969993935,3,65528,65535,0,0,0,0,0
134,1762969993969,3,65530,0,0,0,0,0,0
135,1762969994018,1,65529,65535,0,0,0,0,0
136,1762969994070,4,65529,65534,0,0,0,0,0
137,1762969994151,1,65531,0,0,0,0,0,0
138,1762969994184,3,65528,65535,0,0,0,0,0
139,1762969994251,3,65530,65535,0,0,0,0,0
140,1762969994286,2,65527,65535,0,0,0,0,0
141,1762969994370,4,65529,0,0,0,0,0,0
142,1762969994402,4,65530,0,0,0,0,0,0
143,1762969994487,2,65529,65535,0,0,0,0,0
144,1762969994519,2,65529,65534,0,0,0,0,0
145,1762969994602,4,65528,65534,0,0,0,0,0
146,1762969994653,4,65529,0,0,0,0,0,0
147,1762969994719,2,65529,1,0,0,0,0,0
148,1762969994769,3,65529,0,0,0,0,0,0
149,1762969994902,2,65529,65535,0,0,0,0,0
150,1762969994952,3,65529,0,0,0,0,0,0
151,1762969995052,3,65528,1,0,0,0,0,0
152,1762969995086,2,65529,0,0,0,0,0,0
153,1762969995186,2,65530,65535,0,0,0,0,0
154,1762969995220,3,65530,65534,0,0,0,0,0
155,1762969995286,2,65527,65535,0,0,0,0,0
156,1762969995368,4,65528,65280,0,0,0,0,0
157,1762969995402,1,65529,65535,0,0,0,0,0
158,1762969995484,2,65529,0,3.32,0,0,0,0
159,1762969995553,2,65531,255,0,0,0,0,0
160,1762969995601,3,65529,0,0,0,0,0,0
161,1762969995668,4,65528,65535,0,0,0,0,0
162,1762969995733,3,65528,65535,0,0,0,0,0
163,1762969995817,2,65528,0,0,0,0,0,0
164,1762969995884,4,65528,0,0,0,0,0,0
165,1762969995933,4,65530,65535,0,0,0,0,0
166,1762969996052,4,65529,0,33196,0,0,0,0
167,1762969996101,4,65529,0,0,0,0,0,0
168,1762969996135,3,65528,0,0,0,0,0,0
169,1762969996184,1,65527,65535,0,0,0,0,0
170,1762969996284,4,65529,0,0,0,0,0,0
171,1762969996368,1,65529,1,0,0,0,0,0
172,1762969996434,3,65530,0,0,0,0,0,0
173,1762969996482,3,65528,0,0,0,0,0,0
174,1762969996533,4,65529,0,0,0,0,0,0
175,1762969996584,2,65529,65535,0,0,0,0,0
176,1762969996649,2,65529,0,0,0,0,0,0
177,1762969996715,4,65530,0,0,0,0,0,0
178,1762969996766,4,65529,65535,0,0,0,0,0
179,1762969996884,1,65529,1,3.32,0,0,0,0
180,1762969997000,3,65528,0,0,0,0,0,0
181,1762969997050,2,65529,65534,0,0,0,0,0
182,1762969997083,4,65530,65535,0,0,0,0,0
183,1762969997149,3,65529,65535,0,0,0,0,0
184,1762969997216,2,65528,0,0,0,0,0,0
185,1762969997284,1,65527,0,3.31,0,0,0,0
186,1762969997365,3,65529,0,0,0,0,0,0
187,1762969997416,3,65530,0,0,0,0,0,0
188,1762969997483,2,65529,65535,0,0,0,0,0
189,1762969997532,4,65530,0,0,0,0,0,0
190,1762969997581,2,65529,0,0,0,0,0,0
191,1762969997649,3,65529,1,0,0,0,0,0
192,1762969997901,3,65528,0,0,0,0,0,0
193,1762969997934,2,65528,0,0,0,0,0,0
194,1762969998052,3,65529,0,0,0,0,0,0
195,1762969998083,3,65529,0,0,0,0,0,0
196,1762969998150,4,65529,65534,0,0,0,0,0
197,1762969998183,3,65530,0,0,0,0,0,0
198,1762969998250,3,65530,65535,0,0,0,0,0
199,1762969998315,3,65529,0,0,0,0,0,0
200,1762969998364,4,65528,0,0,0,0,0,0
201,1762969998432,4,65529,0,0,0,0,0,0
202,1762969998465,3,65529,0,0,0,0,0,0
203,1762969998548,2,65528,65535,0,0,0,0,0
204,1762969998583,2,65529,0,0,0,0,0,0
205,1762969998681,4,65529,0,0,0,0,0,0
206,1762969998733,3,65528,65535,0,0,0,0,0
207,1762969998832,2,65530,0,0,0,0,0,0
208,1762969998882,2,65529,0,0,0,0,0,0
209,1762969999033,2,65529,65535,0,0,0,0,0
210,1762969999132,4,65529,0,0,0,0,0,0
211,1762969999198,4,65528,0,0,0,0,0,0
212,1762969999215,2,65528,0,0,0,0,0,0
213,1762969999299,3,65529,0,0,0,0,0,0
214,1762969999449,4,65529,65535,0,0,0,0,0
215,1762969999482,2,65529,0,1,0,0,0,0
216,1762969999498,3,65529,1,0,0,0,0,0
217,1762969999564,4,65529,65535,0,0,0,0,0
218,1762969999632,4,65527,65535,0,0,0,0,0
219,1762969999681,2,65528,65534,0,0,0,0,0
220,1762969999765,2,65529,65535,0,0,0,0,0
221,1762969999865,1,65529,1,0,0,0,0,0
222,1762969999998,4,65529,65535,0,0,0,0,0
223,1762969999998,4,65525,0,0,0,0,0,0
224,1762970000064,5,65529,0,0,0,0,0,0
225,1762970000181,4,65530,0,0,0,0,0,0
226,1762970000264,1,65528,0,0,0,0,0,0
227,1762970000332,3,65529,0,0,0,0,0,0
228,1762970000380,2,65529,0,0,0,0,0,0
229,1762970000448,3,65528,0,0,0,0,0,0
230,1762970000531,3,65528,0,0,0,0,0,0
231,1762970000548,1,65528,1,0,0,0,0,0
232,1762970000614,5,65529,65535,0,0,0,0,0
233,1762970000681,4,65528,0,0,0,0,0,0
234,1762970000748,4,65529,0,0,0,0,0,0
235,1762970000847,1,65529,0,0,0,0,0,0
236,1762970000934,2,65530,0,0,0,0,0,0
237,1762970001134,3,65529,65280,0,0,0,0,0
238,1762970001181,3,65528,1,0,0,0,0,0
239,1762970001263,2,65529,1,0,0,0,0,0
240,1762970001363,2,65529,0,0,0,0,0,0
241,1762970001548,3,65529,65534,0,0,0,0,0
242,1762970001613,4,65528,65535,0,0,0,0,0
243,1762970001663,3,65530,65535,0,0,0,0,0
244,1762970001780,2,65530,0,0,0,0,0,0
245,1762970001897,2,65529,65535,0,0,0,0,0
246,1762970002214,3,65529,0,0,0,0,0,0
247,1762970002330,3,65528,65535,33196,0,0,0,0
248,1762970002365,4,65530,65535,0,0,0,0,0
249,1762970002413,2,65530,0,0,0,0,0,0
250,1762970002480,3,65529,0,0,0,0,0,0
251,1762970002546,2,65528,65535,1,0,0,0,0
252,1762970002613,2,65529,0,0,0,0,0,0
253,1762970002647,2,65529,65535,0,0,0,0,0
254,1762970002830,1,65529,0,3.27,0,0,0,0
255,1762970002913,3,65529,0,0,0,0,0,0
256,1762970002930,2,65528,65535,0,0,0,0,0
257,1762970003029,3,65528,65535,0,0,0,0,0
258,1762970003064,3,65529,0,1,0,0,0,0
259,1762970003147,3,65527,0,0,0,0,0,0
260,1762970003280,3,65529,65535,0,0,0,0,0
261,1762970003313,3,65528,65535,0,0,0,0,0
262,1762970003397,1,65528,0,0,0,0,0,0
263,1762970003430,2,65529,0,0,0,0,0,0
264,1762970003496,2,65530,0,0,0,0,0,0
265,1762970003529,3,65529,0,0,0,0,0,0
266,1762970003612,2,65530,0,0,0,0,0,0
267,1762970003662,5,65529,65535,33142,0,0,0,0
268,1762970003745,3,65529,65535,0,0,0,0,0
269,1762970003778,2,65527,0,0,0,0,0,0
270,1762970003946,3,65528,65535,0,0,0,0,0
271,1762970003980,4,65529,0,0,0,0,0,0
272,1762970004045,2,65529,0,0,0,0,0,0
273,1762970004178,2,65529,65535,0,0,0,0,0
274,1762970004228,3,65527,65535,3.26,0,0,0,0
275,1762970004278,2,65529,65535,0,0,0,0,0
276,1762970004295,2,65530,0,0,0,0,0,0
277,1762970004413,2,65529,0,0,0,0,0,0
278,1762970004429,1,65528,65535,0,0,0,0,0
279,1762970004527,4,65530,0,0,0,0,0,0
280,1762970004661,3,65529,0,0,0,0,0,0
281,1762970004728,3,65529,0,0,0,0,0,0
282,1762970004879,1,65528,0,0,0,0,0,0
283,1762970004962,4,65529,65535,0,0,0,0,0
284,1762970005011,3,65529,1,0,0,0,0,0
285,1762970005111,3,65530,0,0,0,0,0,0
286,1762970005128,2,65527,65535,0,0,0,0,0
287,1762970005277,3,65529,0,0,0,0,0,0
288,1762970005327,2,65529,0,0,0,0,0,0
289,1762970005393,3,65528,1,0,0,0,0,0
290,1762970005410,5,65528,65535,0,0,0,0,0
291,1762970005510,2,65529,0,3.27,0,0,0,0
292,1762970005543,2,65529,65535,0,0,0,0,0
293,1762970005609,2,65530,0,0,0,0,0,0
294,1762970005692,4,65527,0,0,0,0,0,0
295,1762970005761,3,65530,65535,1,0,0,0,0
296,1762970005828,4,65529,65535,0,0,0,0,0
297,1762970005927,2,65529,0,0,0,0,0,0
298,1762970005994,2,65529,65535,0,0,0,0,0
299,1762970006061,3,65529,1,33195,0,0,0,0
300,1762970006110,3,65528,0,0,0,0,0,0
301,1762970006211,2,65528,0,0,0,0,0,0
302,1762970006226,3,65529,65535,1,0,0,0,0
303,1762970006260,3,65529,65535,0,0,0,0,0
304,1762970006295,2,65526,65535,0,0,0,0,0
305,1762970006361,2,65529,0,0,0,0,0,0
306,1762970006410,0,65528,65535,3.32,0,0,0,0
307,1762970006493,3,65528,65534,0,0,0,0,0
308,1762970006508,4,65529,0,0,0,0,0,0
309,1762970006592,3,65528,65535,0,0,0,0,0
310,1762970006627,3,65528,0,1,0,0,0,0
311,1762970006692,3,65529,0,0,0,0,0,0
312,1762970006776,3,65528,0,0,0,0,0,0
313,1762970006891,2,65529,1,0,0,0,0,0
314,1762970006976,3,65528,65535,0,0,0,0,0
315,1762970007059,2,65530,0,0,0,0,0,0
316,1762970007109,2,65529,0,0,0,0,0,0
317,1762970007174,3,65527,65535,0,0,0,0,0
318,1762970007192,2,65528,65535,0,0,0,0,0
319,1762970007324,3,65528,0,3.31,0,0,0,0
320,1762970007375,3,65530,0,0,0,0,0,0
321,1762970007443,4,65530,1,0,0,0,0,0
322,1762970007475,2,65527,0,0,0,0,0,0
323,1762970007558,3,65527,65535,0,0,0,0,0
324,1762970007608,3,65531,0,0,0,0,0,0
325,1762970007693,3,65530,65535,0,0,0,0,0
326,1762970007707,5,65529,0,0,0,0,0,0
327,1762970007775,3,65529,0,0,0,0,0,0
328,1762970007924,5,65530,65535,0,0,0,0,0
329,1762970008041,4,65529,65535,0,0,0,0,0
330,1762970008075,3,65530,65535,0,0,0,0,0
331,1762970008142,3,65528,0,0,0,0,0,0
332,1762970008224,3,65529,65535,3.31,0,0,0,0
333,1762970008291,2,65528,0,0,0,0,0,0
334,1762970008357,3,65529,65535,0,0,0,0,0
335,1762970008391,4,65529,65534,0,0,0,0,0
336,1762970008457,2,65529,65535,0,0,0,0,0
337,1762970008490,2,65528,1,0,0,0,0,0
338,1762970008573,3,65529,0,0,0,0,0,0
339,1762970008590,3,65527,65535,0,0,0,0,0
340,1762970008674,4,65527,65535,3.31,0,0,0,0
341,1762970008757,3,65530,0,0,0,0,0,0
342,1762970008874,1,65527,0,0,0,0,0,0
343,1762970008908,4,65529,0,0,0,0,0,0
344,1762970008974,3,65528,0,0,0,0,0,0
345,1762970009008,3,65529,0,0,0,0,0,0
346,1762970009174,3,65528,65535,0,0,0,0,0
347,1762970009241,1,65528,65535,0,0,0,0,0
348,1762970009307,2,65527,65535,0,0,0,0,0
349,1762970009341,3,65529,1,0,0,0,0,0
350,1762970009375,2,65530,0,1,0,0,0,0
351,1762970009458,3,65528,0,0,0,0,0,0
352,1762970009491,3,65529,0,0,0,0,0,0
353,1762970009574,3,65529,0,0,0,0,0,0
354,1762970009623,4,65530,65535,0,0,0,0,0
355,1762970009691,3,65528,0,0,0,0,0,0
356,1762970009724,4,65529,0,0,0,0,0,0
357,1762970009907,3,65528,65535,0,0,0,0,0
358,1762970010008,5,65528,0,0,0,0,0,0
359,1762970010042,4,65529,65535,0,0,0,0,0
360,1762970010157,3,65528,0,0,0,0,0,0
361,1762970010223,3,65527,0,0,0,0,0,0
362,1762970010259,3,65528,0,0,0,0,0,0
363,1762970010323,2,65531,65535,0,0,0,0,0
364,1762970010374,2,65530,0,0,0,0,0,0
365,1762970010474,3,65529,65535,0,0,0,0,0
366,1762970010558,2,65529,65535,0,0,0,0,0
367,1762970010588,4,65529,65535,0,0,0,0,0
368,1762970010659,2,65529,65535,0,0,0,0,0
369,1762970010708,2,65529,65535,0,0,0,0,0
370,1762970010772,1,65528,65535,0,0,0,0,0
371,1762970010822,2,65528,0,0,0,0,0,0
372,1762970010990,3,65529,0,0,0,0,0,0
373,1762970011178,4,65530,1,0,0,0,0,0
374,1762970011254,4,65526,65535,0,0,0,0,0
375,1762970011321,3,65529,0,0,0,0,0,0
376,1762970011422,5,65528,65535,0,0,0,0,0
377,1762970011472,3,65529,0,0,0,0,0,0
378,1762970011539,2,65529,1,0,0,0,0,0
379,1762970011557,3,65529,0,0,0,0,0,0
380,1762970011623,2,65530,0,0,0,0,0,0
381,1762970011672,5,65528,65535,1,0,0,0,0
382,1762970011754,2,65528,65535,0,0,0,0,0
383,1762970011805,3,65529,0,0,0,0,0,0
384,1762970012004,3,65529,65535,0,0,0,0,0
385,1762970012087,2,65528,0,0,0,0,0,0
386,1762970012121,3,65527,0,0,0,0,0,0
387,1762970012170,2,65528,255,1,0,0,0,0
388,1762970012222,3,65528,65535,0,0,0,0,0
389,1762970012271,3,65528,65535,0,0,0,0,0
390,1762970012338,2,65529,0,3.26,0,0,0,0
391,1762970012405,2,65529,65535,0,0,0,0,0
392,1762970012454,3,65529,65535,0,0,0,0,0
393,1762970012506,5,65529,0,0,0,0,0,0
394,1762970012554,2,65528,0,0,0,0,0,0
395,1762970012604,2,65528,65535,0,0,0,0,0
396,1762970012654,3,65529,0,0,0,0,0,0
397,1762970012771,4,65528,0,0,0,0,0,0
398,1762970012887,4,65529,0,0,0,0,0,0
399,1762970012987,2,65528,0,0,0,0,0,0
400,1762970013022,4,65528,65535,0,0,0,0,0
401,1762970013120,3,65530,65535,0,0,0,0,0
402,1762970013187,3,65529,0,0,0,0,0,0
403,1762970013253,3,65529,1,0,0,0,0,0
404,1762970013287,3,65528,0,3.31,0,0,0,0
405,1762970013439,4,65528,65535,0,0,0,0,0
406,1762970013439,4,65530,0,0,0,0,0,0
407,1762970013553,3,65529,1,0,0,0,0,0
408,1762970013587,3,65529,65535,0,0,0,0,0
409,1762970013654,4,65528,0,0,0,0,0,0
410,1762970013753,3,65528,0,0,0,0,0,0
411,1762970013803,3,65529,65534,0,0,0,0,0
412,1762970013937,3,65530,65535,0,0,0,0,0
413,1762970014039,3,65530,0,0,0,0,0,0
414,1762970014085,4,65529,0,0,0,0,0,0
415,1762970014152,2,65529,0,0,0,0,0,0
416,1762970014220,3,65528,0,0,0,0,0,0
417,1762970014321,2,65530,0,3.32,0,0,0,0
418,1762970014369,3,65529,0,0,0,0,0,0
419,1762970014386,2,65529,0,0,0,0,0,0
420,1762970014469,3,65530,0,0,0,0,0,0
421,1762970014535,1,65528,65534,0,0,0,0,0
422,1762970014569,3,65530,0,0,0,0,0,0
423,1762970014636,2,65528,0,0,0,0,0,0
424,1762970014685,3,65529,0,0,0,0,0,0
425,1762970014736,4,65529,0,0,0,0,0,0
426,1762970014838,4,65529,65535,0,0,0,0,0
427,1762970014936,3,65530,0,0,0,0,0,0
428,1762970015020,1,65529,65535,0,0,0,0,0
429,1762970015053,4,65529,65535,0,0,0,0,0
430,1762970015136,5,65529,0,0,0,0,0,0
431,1762970015235,3,65529,0,0,0,0,0,0
432,1762970015335,3,65531,1,0,0,0,0,0
433,1762970015385,3,65528,0,0,0,0,0,0
434,1762970015418,2,65528,65535,0,0,0,0,0
435,1762970015470,3,65528,65535,0,0,0,0,0
436,1762970015535,2,65530,1,3.32,0,0,0,0
437,1762970015602,2,65530,1,0,0,0,0,0
438,1762970015637,3,65530,65535,0,0,0,0,0
439,1762970015685,4,65528,65535,0,0,0,0,0
440,1762970015735,2,65529,0,0,0,0,0,0
441,1762970015801,3,65528,1,0,0,0,0,0
442,1762970015868,3,65527,0,0,0,0,0,0
443,1762970015953,5,65528,65535,0,0,0,0,0
444,1762970016052,3,65529,1,0,0,0,0,0
445,1762970016087,3,65528,0,0,0,0,0,0
446,1762970016150,3,65529,65535,0,0,0,0,0
447,1762970016185,3,65528,0,0,0,0,0,0
448,1762970016236,1,65529,65535,0,0,0,0,0
449,1762970016269,4,65527,1,0,0,0,0,0
450,1762970016317,3,65530,1,0,0,0,0,0
451,1762970016384,2,65529,1,0,0,0,0,0
452,1762970016418,4,65528,0,3.31,0,0,0,0
453,1762970016534,3,65529,0,0,0,0,0,0
454,1762970016636,0,65527,0,0,0,0,0,0
455,1762970016704,2,65527,1,0,0,0,0,0
456,1762970016734,5,65528,65535,0,0,0,0,0
457,1762970016834,3,65529,65535,0,0,0,0,0
458,1762970016934,3,65530,0,0,0,0,0,0
459,1762970017034,3,65530,0,0,0,0,0,0
460,1762970017067,3,65529,0,0,0,0,0,0
461,1762970017118,5,65528,65535,0,0,0,0,0
462,1762970017184,2,65530,65534,0,0,0,0,0
463,1762970017366,3,65527,65535,0,0,0,0,0
464,1762970017400,2,65528,1,0,0,0,0,0
465,1762970017466,2,65529,0,0,0,0,0,0
466,1762970017500,5,65526,65535,0,0,0,0,0
467,1762970017551,2,65529,65535,0,0,0,0,0
468,1762970017618,1,65531,1,0,0,0,0,0
469,1762970017667,4,65530,65535,0,0,0,0,0
470,1762970017717,3,65529,65534,0,0,0,0,0
471,1762970017768,3,65531,65535,0,0,0,0,0
472,1762970017918,4,65532,1,0,0,0,0,0
473,1762970018000,2,65529,65535,0,0,0,0,0
474,1762970018033,4,65528,65534,0,0,0,0,0
475,1762970018135,4,65528,1,0,0,0,0,0
476,1762970018135,3,65531,0,0,0,0,0,0
477,1762970018217,2,65532,65535,0,0,0,0,0
478,1762970018300,4,65527,1,0,0,0,0,0
479,1762970018400,3,65527,0,0,0,0,0,0
480,1762970018467,3,65528,1,0,0,0,0,0
481,1762970018517,3,65528,0,0,0,0,0,0
482,1762970018583,4,65528,65535,0,0,0,0,0
483,1762970018616,3,65530,0,0,0,0,0,0
484,1762970018700,2,65530,0,0,0,0,0,0
485,1762970018816,4,65529,1,0,0,0,0,0
486,1762970018933,4,65530,0,0,0,0,0,0
487,1762970019033,3,65530,1,0,0,0,0,0
488,1762970019084,2,65530,0,0,0,0,0,0
489,1762970019215,2,65528,0,0,0,0,0,0
490,1762970019283,3,65528,0,0,0,0,0,0
491,1762970019369,3,65528,65535,0,0,0,0,0
492,1762970019465,3,65528,65535,0,0,0,0,0
493,1762970019483,3,65529,1,0,0,0,0,0
494,1762970019550,2,65528,65535,0,0,0,0,0
495,1762970019600,4,65527,0,0,0,0,0,0
496,1762970019700,4,65528,0,0,0,0,0,0
497,1762970019716,3,65528,0,0,0,0,0,0
498,1762970019833,2,65527,0,0,0,0,0,0
499,1762970019882,3,65528,65535,0,0,0,0,0
500,1762970020033,2,65529,65535,0,0,0,0,0
501,1762970020083,3,65528,0,0,0,0,0,0
502,1762970020150,2,65528,65534,0,0,0,0,0
503,1762970020216,3,65530,1,0,0,0,0,0
504,1762970020314,3,65529,65535,0,0,0,0,0
505,1762970020366,4,65528,65535,0,0,0,0,0
506,1762970020415,3,65530,65535,0,0,0,0,0
507,1762970020464,2,65529,65535,0,0,0,0,0
508,1762970020597,1,65529,65535,0,0,0,0,0
509,1762970020664,3,65529,65535,0,0,0,0,0
510,1762970020714,3,65530,0,0,0,0,0,0
511,1762970020797,2,65528,65535,0,0,0,0,0
512,1762970020814,1,65528,0,0,0,0,0,0
513,1762970020948,2,65528,65535,0,0,0,0,0
514,1762970021083,3,65528,65535,0,0,0,0,0
515,1762970021165,2,65529,0,0,0,0,0,0
516,1762970021215,2,65530,0,0,0,0,0,0
517,1762970021265,3,65529,0,0,0,0,0,0
518,1762970021315,3,65529,0,0,0,0,0,0
519,1762970021348,3,65529,0,0,0,0,0,0
520,1762970021417,3,65529,1,0,0,0,0,0
521,1762970021465,2,65530,0,33196,0,0,0,0
522,1762970021549,2,65529,0,0,0,0,0,0
523,1762970021599,2,65529,0,0,0,0,0,0
524,1762970021664,4,65528,65280,0,0,0,0,0
525,1762970021697,4,65529,0,1,0,0,0,0
526,1762970021814,2,65528,0,0,0,0,0,0
527,1762970021864,2,65528,65535,0,0,0,0,0
528,1762970021981,3,65527,65535,3.31,0,0,0,0
529,1762970022048,1,65529,0,0,0,0,0,0
530,1762970022114,3,65528,65535,0,0,0,0,0
531,1762970022152,3,65529,1,0,0,0,0,0
532,1762970022197,4,65529,0,0,0,0,0,0
533,1762970022314,2,65528,65535,0,0,0,0,0
534,1762970022347,2,65528,65535,0,0,0,0,0
535,1762970022397,3,65529,65535,3.26,0,0,0,0
536,1762970022464,3,65531,0,0,0,0,0,0
537,1762970023131,3,65529,65535,0,0,0,0,0
538,1762970023180,3,65529,65535,0,0,0,0,0
539,1762970023396,3,65528,255,0,0,0,0,0
540,1762970023446,3,65530,0,0,0,0,0,0
541,1762970024878,2,65529,65535,0,0,0,0,0
542,1762970024978,3,65529,0,1,0,0,0,0
543,1762970024995,3,65528,1,0,0,0,0,0
544,1762970025078,4,65528,65535,0,0,0,0,0
545,1762970025145,2,65529,65535,3.32,0,0,0,0
546,1762970025195,2,65528,65535,0,0,0,0,0
547,1762970025262,2,65530,0,0,0,0,0,0
548,1762970025312,4,65529,1,0,0,0,0,0
549,1762970025395,3,65528,65535,1,0,0,0,0
550,1762970025428,2,65528,0,0,0,0,0,0
551,1762970025495,4,65529,1,0,0,0,0,0
552,1762970025561,3,65529,0,3.32,0,0,0,0
553,1762970025661,4,65528,0,0,0,0,0,0
554,1762970025777,3,65528,65535,0,0,0,0,0
555,1762970025828,3,65530,0,0,0,0,0,0
556,1762970026027,4,65529,1,0,0,0,0,0
557,1762970026061,3,65528,0,0,0,0,0,0
558,1762970026195,3,65531,0,0,0,0,0,0
559,1762970026228,4,65528,0,0,0,0,0,0
560,1762970026344,3,65528,0,0,0,0,0,0
561,1762970026377,3,65530,65535,0,0,0,0,0
562,1762970026410,3,65528,65535,0,0,0,0,0
563,1762970026528,2,65528,0,0,0,0,0,0
564,1762970026627,3,65528,0,0,0,0,0,0
565,1762970026661,4,65528,1,0,0,0,0,0
566,1762970026727,4,65529,65535,0,0,0,0,0
567,1762970026777,3,65530,0,0,0,0,0,0
568,1762970026844,2,65531,65534,0,0,0,0,0
569,1762970026894,5,65529,1,0,0,0,0,0
570,1762970026960,3,65529,65535,0,0,0,0,0
571,1762970027010,3,65527,65535,0,0,0,0,0
572,1762970027059,2,65529,65535,0,0,0,0,0
573,1762970027126,3,65529,0,0,0,0,0,0
574,1762970027176,4,65528,0,0,0,0,0,0
575,1762970027245,3,65530,65535,0,0,0,0,0
576,1762970027276,5,65530,65535,0,0,0,0,0
577,1762970027344,4,65529,0,0,0,0,0,0
578,1762970027426,3,65530,0,0,0,0,0,0
579,1762970027493,3,65529,65535,0,0,0,0,0
580,1762970027526,2,65530,1,0,0,0,0,0
581,1762970027592,3,65527,65535,0,0,0,0,0
582,1762970027642,3,65530,65535,0,0,0,0,0
583,1762970027743,3,65528,0,0,0,0,0,0
584,1762970027776,4,65529,65535,0,0,0,0,0
585,1762970027860,1,65529,65535,0,0,0,0,0
586,1762970027993,1,65527,65534,0,0,0,0,0
587,1762970028109,3,65528,65535,0,0,0,0,0
588,1762970028242,3,65528,0,0,0,0,0,0
589,1762970028325,4,65528,1,0,0,0,0,0
590,1762970028342,3,65531,65535,0,0,0,0,0
591,1762970028492,2,65528,65535,0,0,0,0,0
592,1762970028525,2,65529,0,0,0,0,0,0
593,1762970028558,3,65529,65535,0,0,0,0,0
594,1762970028592,4,65529,65535,0,0,0,0,0
595,1762970028626,2,65527,65535,0,0,0,0,0
596,1762970028691,2,65528,0,0,0,0,0,0
597,1762970028758,4,65529,0,3.32,0,0,0,0
598,1762970028941,5,65528,65535,0,0,0,0,0
599,1762970028958,3,65531,0,0,0,0,0,0
600,1762970029075,3,65529,65535,1,0,0,0,0
601,1762970029159,2,65529,65535,0,0,0,0,0
602,1762970029175,3,65530,65534,0,0,0,0,0
603,1762970029258,5,65527,0,0,0,0,0,0
604,1762970029324,3,65530,65535,0,0,0,0,0
605,1762970029374,4,65527,0,0,0,0,0,0
606,1762970029442,2,65527,0,0,0,0,0,0
607,1762970029492,4,65529,65535,0,0,0,0,0
608,1762970029542,2,65530,65535,0,0,0,0,0
609,1762970029591,3,65529,0,0,0,0,0,0
610,1762970029724,4,65528,0,0,0,0,0,0
611,1762970029811,2,65529,65535,0,0,0,0,0
612,1762970029858,3,65528,65535,0,0,0,0,0
613,1762970029941,2,65528,0,0,0,0,0,0
614,1762970029974,3,65528,1,0,0,0,0,0
615,1762970030058,3,65529,0,0,0,0,0,0
616,1762970030074,2,65529,0,0,0,0,0,0
617,1762970030141,2,65529,65535,0,0,0,0,0
618,1762970030207,1,65529,0,0,0,0,0,0
619,1762970030257,4,65527,0,0,0,0,0,0
620,1762970030308,4,65528,65535,0,0,0,0,0
621,1762970030374,4,65529,0,0,0,0,0,0
622,1762970030441,1,65528,65535,0,0,0,0,0
623,1762970030473,4,65529,0,0,0,0,0,0
624,1762970030526,2,65529,0,0,0,0,0,0
625,1762970030607,4,65529,0,0,0,0,0,0
626,1762970030690,2,65528,0,0,0,0,0,0
627,1762970030724,1,65529,65534,0,0,0,0,0
628,1762970030857,4,65529,0,0,0,0,0,0
629,1762970030924,2,65529,65535,0,0,0,0,0
630,1762970030940,3,65528,0,0,0,0,0,0
631,1762970031074,3,65529,0,3.32,0,0,0,0
632,1762970031123,1,65529,0,0,0,0,0,0
633,1762970031223,3,65530,0,0,0,0,0,0
634,1762970031273,3,65528,0,0,0,0,0,0
635,1762970031441,3,65528,0,0,0,0,0,0
636,1762970031557,4,65529,65535,0,0,0,0,0
637,1762970031590,2,65529,255,0,0,0,0,0
638,1762970031672,3,65529,65535,0,0,0,0,0
639,1762970031689,4,65528,0,0,0,0,0,0
640,1762970031722,3,65529,1,1,0,0,0,0
641,1762970031789,3,65529,65535,0,0,0,0,0
642,1762970031822,4,65528,65535,0,0,0,0,0
643,1762970031906,2,65530,65535,0,0,0,0,0
644,1762970031973,1,65529,0,0,0,0,0,0
645,1762970032106,1,65528,65535,0,0,0,0,0
646,1762970032205,3,65528,0,0,0,0,0,0
647,1762970032239,3,65530,0,0,0,0,0,0
648,1762970032305,2,65528,0,0,0,0,0,0
649,1762970032406,3,65530,0,0,0,0,0,0
650,1762970032455,1,65529,65535,0,0,0,0,0
651,1762970032540,2,65529,0,0,0,0,0,0
652,1762970032572,2,65529,1,0,0,0,0,0
653,1762970032690,3,65529,0,0,0,0,0,0
654,1762970032789,2,65529,0,0,0,0,0,0
655,1762970032822,3,65529,65535,0,0,0,0,0
656,1762970032888,3,65530,65535,0,0,0,0,0
657,1762970032972,3,65528,0,0,0,0,0,0
658,1762970033038,3,65529,65535,0,0,0,0,0
659,1762970033072,4,65529,65535,0,0,0,0,0
660,1762970033139,4,65529,0,0,0,0,0,0
661,1762970033222,3,65529,0,0,0,0,0,0
662,1762970033354,3,65529,0,0,0,0,0,0
663,1762970033421,3,65529,0,0,0,0,0,0
664,1762970033455,2,65529,65535,0,0,0,0,0
665,1762970033538,3,65529,0,0,0,0,0,0
666,1762970033572,1,65530,1,0,0,0,0,0
667,1762970033655,3,65529,65535,0,0,0,0,0
668,1762970033688,3,65528,1,0,0,0,0,0
669,1762970033771,4,65528,0,3.32,0,0,0,0
670,1762970033854,4,65529,65535,0,0,0,0,0
671,1762970033906,1,65530,65535,0,0,0,0,0
672,1762970033988,3,65528,65535,0,0,0,0,0
673,1762970034071,2,65529,65535,0,0,0,0,0
674,1762970034104,3,65528,1,0,0,0,0,0
675,1762970034171,2,65529,0,0,0,0,0,0
676,1762970034255,3,65529,0,33195,0,0,0,0
677,1762970034304,4,65529,0,0,0,0,0,0
678,1762970034338,2,65529,0,0,0,0,0,0
679,1762970034420,2,65528,0,0,0,0,0,0
680,1762970034454,3,65529,65535,0,0,0,0,0
681,1762970034537,4,65530,0,0,0,0,0,0
682,1762970034570,2,65529,0,0,0,0,0,0
683,1762970034637,3,65528,0,0,0,0,0,0
684,1762970034704,3,65527,0,0,0,0,0,0
685,1762970034770,3,65528,65535,0,0,0,0,0
686,1762970034870,4,65530,0,0,0,0,0,0
687,1762970034970,3,65529,0,0,0,0,0,0
688,1762970035005,2,65529,65535,0,0,0,0,0
689,1762970035037,4,65528,0,0,0,0,0,0
690,1762970035120,3,65530,1,0,0,0,0,0
691,1762970035187,2,65529,65535,3.31,0,0,0,0
692,1762970035270,5,65530,65535,0,0,0,0,0
693,1762970035303,3,65530,1,0,0,0,0,0
694,1762970035370,4,65529,65535,0,0,0,0,0
695,1762970035420,4,65530,0,0,0,0,0,0
696,1762970035453,3,65529,1,0,0,0,0,0
697,1762970035536,3,65529,0,0,0,0,0,0
698,1762970035603,3,65530,0,0,0,0,0,0
699,1762970035688,3,65528,0,0,0,0,0,0
700,1762970035719,4,65529,0,0,0,0,0,0
701,1762970035769,2,65528,0,0,0,0,0,0
702,1762970035853,3,65530,65535,0,0,0,0,0
703,1762970035970,3,65529,1,0,0,0,0,0
704,1762970036003,4,65529,0,0,0,0,0,0
705,1762970036086,2,65530,0,0,0,0,0,0
706,1762970036154,6,65529,0,0,0,0,0,0
707,1762970036220,2,65529,0,0,0,0,0,0
708,1762970036269,3,65528,0,0,0,0,0,0
709,1762970036335,4,65531,65535,0,0,0,0,0
710,1762970036370,2,65529,65535,0,0,0,0,0
711,1762970036419,3,65528,0,0,0,0,0,0
712,1762970036502,2,65529,0,0,0,0,0,0
713,1762970036535,1,65527,65535,0,0,0,0,0
714,1762970036603,3,65528,0,0,0,0,0,0
715,1762970036652,4,65528,0,0,0,0,0,0
716,1762970036719,3,65528,1,1,0,0,0,0
717,1762970036768,2,65528,0,0,0,0,0,0
718,1762970036870,2,65528,65535,0,0,0,0,0
719,1762970037002,3,65529,65535,0,0,0,0,0
720,1762970037068,2,65527,0,0,0,0,0,0
721,1762970037118,2,65529,65535,0,0,0,0,0
722,1762970037188,3,65529,0,0,0,0,0,0
723,1762970037235,1,65528,0,0,0,0,0,0
724,1762970037300,3,65530,1,0,0,0,0,0
725,1762970037352,5,65528,65535,0,0,0,0,0
726,1762970037417,3,65528,65535,0,0,0,0,0
727,1762970037485,4,65530,0,0,0,0,0,0
728,1762970037534,2,65529,0,0,0,0,0,0
729,1762970037600,3,65529,0,0,0,0,0,0
730,1762970037635,5,65529,0,0,0,0,0,0
731,1762970037702,3,65528,0,0,0,0,0,0
732,1762970037751,2,65529,1,0,0,0,0,0
733,1762970037885,3,65528,65535,0,0,0,0,0
734,1762970037952,4,65529,65535,0,0,0,0,0
735,1762970037984,2,65528,0,0,0,0,0,0
736,1762970038067,4,65528,0,0,0,0,0,0
737,1762970038151,2,65529,65535,0,0,0,0,0
738,1762970038268,3,65527,0,0,0,0,0,0
739,1762970038334,1,65530,65534,3.31,0,0,0,0
740,1762970038401,1,65530,0,0,0,0,0,0
741,1762970038401,2,65527,0,0,0,0,0,0
742,1762970038485,3,65530,0,0,0,0,0,0
743,1762970038517,3,65528,65535,0,0,0,0,0
744,1762970038600,1,65529,0,0,0,0,0,0
745,1762970038617,3,65529,65535,0,0,0,0,0
746,1762970038700,2,65530,0,0,0,0,0,0
747,1762970038750,4,65529,1,3.27,0,0,0,0
748,1762970038851,2,65530,1,0,0,0,0,0
749,1762970038884,2,65530,0,0,0,0,0,0
750,1762970038950,2,65529,0,0,0,0,0,0
751,1762970038968,3,65529,65535,0,0,0,0,0
752,1762970039084,4,65530,0,0,0,0,0,0
753,1762970039200,3,65530,0,0,0,0,0,0
754,1762970039284,1,65528,65535,0,0,0,0,0
755,1762970039335,3,65528,0,0,0,0,0,0
756,1762970039382,5,65531,65535,0,0,0,0,0
757,1762970039450,5,65528,0,0,0,0,0,0
758,1762970039501,2,65528,0,0,0,0,0,0
759,1762970039550,5,65528,0,0,0,0,0,0
760,1762970039601,2,65528,0,0,0,0,0,0
761,1762970039717,3,65530,0,0,0,0,0,0
762,1762970039815,5,65527,65535,0,0,0,0,0
763,1762970039833,2,65528,0,0,0,0,0,0
764,1762970039933,3,65529,65534,0,0,0,0,0
765,1762970039950,3,65529,0,0,0,0,0,0
766,1762970040065,4,65530,65535,0,0,0,0,0
767,1762970040166,3,65529,65535,0,0,0,0,0
768,1762970040216,2,65529,0,0,0,0,0,0
769,1762970040266,3,65529,65535,0,0,0,0,0
770,1762970040316,4,65530,0,0,0,0,0,0
771,1762970040381,3,65530,1,0,0,0,0,0
772,1762970040449,3,65529,1,0,0,0,0,0
773,1762970040483,3,65529,65535,0,0,0,0,0
774,1762970040549,3,65530,0,0,0,0,0,0
775,1762970040616,3,65529,0,33196,0,0,0,0
776,1762970040683,3,65530,0,0,0,0,0,0
777,1762970040715,3,65528,65534,0,0,0,0,0
778,1762970040867,3,65529,0,0,0,0,0,0
779,1762970040932,2,65529,1,0,0,0,0,0
780,1762970040948,4,65530,65535,0,0,0,0,0
781,1762970041065,3,65528,0,0,0,0,0,0
782,1762970041116,2,65529,65535,0,0,0,0,0
783,1762970041265,3,65529,0,0,0,0,0,0
784,1762970041283,5,65527,65535,0,0,0,0,0
785,1762970041399,5,65528,0,0,0,0,0,0
786,1762970041465,3,65529,0,0,0,0,0,0
787,1762970041531,2,65529,0,0,0,0,0,0
788,1762970041583,65521,65526,65527,0,0,0,0,0
789,1762970041631,9,65530,65531,0,0,0,0,0
790,1762970041698,12,65530,4,0,0,0,0,0
791,1762970041748,65534,65525,0,0,0,0,0,0
792,1762970041815,4,65529,2,0,0,0,0,0
793,1762970041849,1,65528,5,0,0,0,0,0
794,1762970041915,1,65519,65534,0,0,0,0,0
795,1762970041981,65534,65521,65535,0,0,0,0,0
796,1762970042081,0,65524,65534,0,0,0,0,0
797,1762970042130,7,65527,1,0,0,0,0,0
798,1762970042198,1,65526,65535,1,0,0,0,0
799,1762970042248,5,65527,65534,0,0,0,0,0
800,1762970042414,3,65527,65535,0,0,0,0,0
801,1762970042481,4,65527,0,0,0,0,0,0
802,1762970042531,3,65526,1,0,0,0,0,0
803,1762970042581,1,65526,0,0,0,0,0,0
804,1762970042897,2,65529,1,0,0,0,0,0
805,1762970042931,2,65528,65535,0,0,0,0,0
806,1762970042997,3,65528,0,0,0,0,0,0
807,1762970043063,3,65529,1,0,0,0,0,0
808,1762970043114,4,65527,0,1,0,0,0,0
809,1762970043247,2,65528,0,0,0,0,0,0
810,1762970043280,2,65529,0,0,0,0,0,0
811,1762970043447,2,65528,1,0,0,0,0,0
812,1762970043480,2,65529,0,0,0,0,0,0
813,1762970043563,4,65528,65535,1,0,0,0,0
814,1762970043596,2,65528,0,0,0,0,0,0
815,1762970043663,1,65528,65535,0,0,0,0,0
816,1762970043697,4,65528,65535,0,0,0,0,0
817,1762970043863,3,65529,65535,33196,0,0,0,0
818,1762970043880,2,65528,0,0,0,0,0,0
819,1762970043913,4,65528,0,0,0,0,0,0
820,1762970043996,3,65529,0,0,0,0,0,0
821,1762970044096,1,65527,0,1,0,0,0,0
822,1762970044179,65535,65530,65534,0,0,0,0,0
823,1762970044396,2,65528,65535,0,0,0,0,0
824,1762970044446,3,65530,65535,0,0,0,0,0
825,1762970044513,3,65531,65535,0,0,0,0,0
826,1762970044547,4,65528,0,0,0,0,0,0
827,1762970044612,4,65529,0,0,0,0,0,0
828,1762970044646,4,65530,65535,0,0,0,0,0
829,1762970044730,4,65529,0,0,0,0,0,0
830,1762970044829,3,65529,0,0,0,0,0,0
831,1762970045112,2,65530,65535,0,0,0,0,0
832,1762970045128,3,65528,1,33140,0,0,0,0
833,1762970045261,3,65528,0,0,0,0,0,0
834,1762970045312,4,65527,0,0,0,0,0,0
835,1762970045395,3,65528,0,0,0,0,0,0
836,1762970045513,3,65529,0,0,0,0,0,0
837,1762970046344,2,65528,0,0,0,0,0,0
838,1762970046460,3,65528,0,0,0,0,0,0
839,1762970046545,2,65529,0,3.26,0,0,0,0
840,1762970046577,2,65528,65535,0,0,0,0,0
841,1762970046644,3,65529,0,0,0,0,0,0
842,1762970046677,2,65528,0,0,0,0,0,0
843,1762970046812,2,65529,65535,0,0,0,0,0
844,1762970046927,2,65528,0,0,0,0,0,0
845,1762970046977,3,65530,65535,3.32,0,0,0,0
846,1762970047061,3,65530,65535,0,0,0,0,0
847,1762970047127,2,65529,65535,0,0,0,0,0
848,1762970047161,2,65527,65535,0,0,0,0,0
849,1762970047210,4,65528,0,0,0,0,0,0
850,1762970047243,2,65528,0,0,0,0,0,0
851,1762970047360,2,65528,0,0,0,0,0,0
852,1762970047427,4,65529,65535,0,0,0,0,0
853,1762970047444,3,65527,65535,0,0,0,0,0
854,1762970047530,4,65528,65535,0,0,0,0,0
855,1762970047594,3,65528,0,0,0,0,0,0
856,1762970047643,3,65529,0,0,0,0,0,0
857,1762970047710,5,65529,0,0,0,0,0,0
858,1762970047743,2,65530,255,0,0,0,0,0
859,1762970047843,3,65529,1,0,0,0,0,0
860,1762970047976,3,65529,65535,0,0,0,0,0
861,1762970048027,4,65530,0,0,0,0,0,0
862,1762970048109,3,65528,0,0,0,0,0,0
863,1762970048146,2,65528,1,0,0,0,0,0
864,1762970048210,4,65529,255,0,0,0,0,0
865,1762970048310,2,65528,0,0,0,0,0,0
866,1762970048428,3,65529,0,0,0,0,0,0
867,1762970048445,3,65529,0,0,0,0,0,0
868,1762970048509,2,65530,0,0,0,0,0,0
869,1762970048542,3,65528,1,0,0,0,0,0
870,1762970048609,2,65528,0,0,0,0,0,0
871,1762970048642,3,65527,65535,0,0,0,0,0
872,1762970048709,3,65527,0,0,0,0,0,0
873,1762970048759,3,65529,0,0,0,0,0,0
874,1762970048908,2,65528,0,0,0,0,0,0
875,1762970048992,1,65528,0,0,0,0,0,0
876,1762970049091,3,65529,0,0,0,0,0,0
877,1762970049142,3,65529,0,0,0,0,0,0
878,1762970049176,3,65529,0,0,0,0,0,0
879,1762970049224,3,65528,0,0,0,0,0,0
880,1762970049308,2,65529,0,0,0,0,0,0
881,1762970049358,3,65529,65535,0,0,0,0,0
882,1762970049407,4,65529,1,0,0,0,0,0
883,1762970049457,3,65529,0,0,0,0,0,0
884,1762970049507,3,65529,0,0,0,0,0,0
885,1762970049574,4,65527,0,0,0,0,0,0
886,1762970049607,2,65529,65535,0,0,0,0,0
887,1762970049676,2,65529,0,0,0,0,0,0
888,1762970049741,3,65531,65535,0,0,0,0,0
889,1762970049807,4,65528,0,0,0,0,0,0
890,1762970049890,2,65528,1,0,0,0,0,0
891,1762970049992,2,65530,65535,0,0,0,0,0
892,1762970050057,2,65529,0,0,0,0,0,0
893,1762970050091,2,65528,65535,0,0,0,0,0
894,1762970050224,3,65528,0,33195,0,0,0,0
895,1762970050273,4,65529,1,0,0,0,0,0
896,1762970050273,3,65529,0,0,0,0,0,0
897,1762970050323,4,65529,0,0,0,0,0,0
898,1762970050391,4,65529,0,0,0,0,0,0
899,1762970050440,4,65528,65535,0,0,0,0,0
900,1762970050492,1,65529,65280,0,0,0,0,0
901,1762970050523,3,65528,0,0,0,0,0,0
902,1762970050590,4,65530,65535,0,0,0,0,0
903,1762970050656,3,65529,0,0,0,0,0,0
904,1762970050706,3,65530,1,0,0,0,0,0
905,1762970050756,1,65529,65535,0,0,0,0,0
906,1762970050840,2,65529,65535,0,0,0,0,0
907,1762970050873,3,65528,65535,0,0,0,0,0
908,1762970050956,5,65529,0,0,0,0,0,0
909,1762970050973,3,65529,0,0,0,0,0,0
910,1762970051040,3,65529,65535,0,0,0,0,0
911,1762970051090,2,65529,65535,0,0,0,0,0
912,1762970051139,3,65529,0,0,0,0,0,0
913,1762970051173,3,65529,65535,0,0,0,0,0
914,1762970051257,2,65528,65535,0,0,0,0,0
915,1762970051289,1,65528,65535,0,0,0,0,0
916,1762970051357,1,65528,0,0,0,0,0,0
917,1762970051391,3,65529,65535,0,0,0,0,0
918,1762970051457,4,65529,65535,0,0,0,0,0
919,1762970051489,4,65530,0,0,0,0,0,0
920,1762970051589,4,65529,65535,0,0,0,0,0
921,1762970051606,4,65530,65535,0,0,0,0,0
922,1762970051688,3,65529,65535,0,0,0,0,0
923,1762970051725,3,65529,0,0,0,0,0,0
924,1762970051839,3,65529,0,0,0,0,0,0
925,1762970051889,2,65528,0,0,0,0,0,0
926,1762970052039,3,65530,65535,0,0,0,0,0
927,1762970052105,2,65529,65535,0,0,0,0,0
928,1762970052140,2,65527,0,0,0,0,0,0
929,1762970052191,2,65529,1,0,0,0,0,0
930,1762970052255,3,65529,0,0,0,0,0,0
931,1762970052307,3,65529,65535,0,0,0,0,0
932,1762970052421,4,65529,255,0,0,0,0,0
933,1762970052438,3,65528,0,0,0,0,0,0
934,1762970052489,3,65529,0,0,0,0,0,0
935,1762970052522,2,65528,65535,0,0,0,0,0
936,1762970052575,4,65529,0,0,0,0,0,0
937,1762970052625,4,65529,65535,0,0,0,0,0
938,1762970052705,3,65529,65535,0,0,0,0,0
939,1762970052722,2,65530,65535,0,0,0,0,0
940,1762970052805,2,65530,0,0,0,0,0,0
941,1762970052838,3,65529,0,0,0,0,0,0
942,1762970052955,4,65530,1,3.32,0,0,0,0
943,1762970052971,3,65525,65535,0,0,0,0,0
944,1762970053056,2,65529,1,0,0,0,0,0
945,1762970053171,3,65529,0,0,0,0,0,0
946,1762970053221,4,65528,255,0,0,0,0,0
947,1762970053256,2,65530,0,0,0,0,0,0
948,1762970053421,2,65528,65535,0,0,0,0,0
949,1762970053504,3,65529,65535,0,0,0,0,0
950,1762970053537,2,65528,65535,0,0,0,0,0
951,1762970053620,3,65529,0,0,0,0,0,0
952,1762970053687,4,65529,0,0,0,0,0,0
953,1762970053704,3,65528,0,0,0,0,0,0
954,1762970053871,3,65529,0,0,0,0,0,0
955,1762970053920,2,65528,65535,0,0,0,0,0
956,1762970053970,4,65529,0,0,0,0,0,0
957,1762970054021,2,65528,0,0,0,0,0,0
958,1762970054071,2,65530,0,0,0,0,0,0
959,1762970054120,1,65529,1,0,0,0,0,0
960,1762970054188,3,65530,0,0,0,0,0,0
961,1762970054253,2,65529,0,33160,0,0,0,0
962,1762970054371,2,65527,65535,0,0,0,0,0
963,1762970054420,2,65529,0,0,0,0,0,0
964,1762970054470,3,65529,1,0,0,0,0,0
965,1762970054569,4,65529,0,0,0,0,0,0
966,1762970054637,2,65529,1,0,0,0,0,0
967,1762970054687,2,65529,1,0,0,0,0,0
968,1762970054786,2,65529,65535,0,0,0,0,0
969,1762970054820,2,65530,0,0,0,0,0,0
970,1762970054920,4,65528,0,0,0,0,0,0
971,1762970054953,3,65529,65535,0,0,0,0,0
972,1762970055005,1,65527,65535,0,0,0,0,0
973,1762970055053,3,65529,65535,0,0,0,0,0
974,1762970055121,3,65529,0,0,0,0,0,0
975,1762970055219,4,65529,0,0,0,0,0,0
976,1762970055286,3,65530,0,0,0,0,0,0
977,1762970055353,4,65529,0,0,0,0,0,0
978,1762970055403,2,65528,0,0,0,0,0,0
979,1762970055452,5,65530,65535,0,0,0,0,0
980,1762970055570,3,65529,65535,0,0,0,0,0
981,1762970055653,2,65528,0,0,0,0,0,0
982,1762970055785,4,65528,65535,0,0,0,0,0
983,1762970055869,2,65528,65535,0,0,0,0,0
984,1762970055885,3,65529,0,0,0,0,0,0
985,1762970055969,3,65529,65535,0,0,0,0,0
986,1762970055985,4,65529,0,0,0,0,0,0
987,1762970056085,2,65528,0,0,0,0,0,0
988,1762970056201,1,65526,0,0,0,0,0,0
989,1762970056218,4,65530,0,0,0,0,0,0
990,1762970056319,3,65529,0,0,0,0,0,0
991,1762970056353,4,65528,0,0,0,0,0,0
992,1762970056485,3,65528,0,0,0,0,0,0
993,1762970056518,2,65528,65535,0,0,0,0,0
994,1762970056569,3,65530,0,0,0,0,0,0
995,1762970056669,3,65528,0,0,0,0,0,0
996,1762970056752,3,65529,65535,0,0,0,0,0
997,1762970056785,3,65530,0,0,0,0,0,0
998,1762970056852,2,65527,0,0,0,0,0,0
999,1762970056901,3,65529,0,0,0,0,0,0
1000,1762970056984,2,65529,65535,0,0,0,0,0
1001,1762970057035,2,65528,65535,0,0,0,0,0
1002,1762970057118,3,65529,0,0,0,0,0,0
1003,1762970057153,4,65528,1,0,0,0,0,0
1004,1762970057268,2,65530,0,0,0,0,0,0
1005,1762970057369,4,65529,0,0,0,0,0,0
1006,1762970057451,4,65529,65535,0,0,0,0,0
1007,1762970057534,3,65529,0,0,0,0,0,0
1008,1762970057552,2,65529,0,0,0,0,0,0
1009,1762970057618,1,65529,0,0,0,0,0,0
1010,1762970057651,3,65528,0,0,0,0,0,0
1011,1762970057784,4,65529,0,0,0,0,0,0
1012,1762970057868,3,65530,0,0,0,0,0,0
1013,1762970057917,1,65527,1,3.31,0,0,0,0
1014,1762970058001,4,65530,65535,0,0,0,0,0
1015,1762970058033,3,65529,65535,0,0,0,0,0
1016,1762970058234,3,65528,0,0,0,0,0,0
1017,1762970058300,2,65528,65535,0,0,0,0,0
1018,1762970058350,2,65530,0,3.32,0,0,0,0
1019,1762970058433,2,65530,65535,0,0,0,0,0
1020,1762970058488,2,65529,0,0,0,0,0,0
1021,1762970058533,4,65530,0,0,0,0,0,0
1022,1762970058616,4,65529,0,0,0,0,0,0
1023,1762970058650,3,65529,65535,0,0,0,0,0
1024,1762970058717,5,65529,65535,0,0,0,0,0
1025,1762970058750,3,65528,1,0,0,0,0,0
1026,1762970058884,3,65529,65535,0,0,0,0,0
1027,1762970058967,3,65528,65535,0,0,0,0,0
1028,1762970059016,4,65530,65535,0,0,0,0,0
1029,1762970059083,2,65528,65535,0,0,0,0,0
1030,1762970059134,3,65530,65535,0,0,0,0,0
1031,1762970059201,2,65528,0,0,0,0,0,0
1032,1762970059232,1,65529,0,0,0,0,0,0
1033,1762970059301,4,65527,0,3.32,0,0,0,0
1034,1762970059399,5,65529,65535,0,0,0,0,0
1035,1762970059467,4,65529,0,0,0,0,0,0
1036,1762970059550,3,65528,0,0,0,0,0,0
1037,1762970059583,3,65528,0,1,0,0,0,0
1038,1762970059633,3,65529,0,0,0,0,0,0
1039,1762970059766,2,65529,0,0,0,0,0,0
1040,1762970059866,3,65529,65535,0,0,0,0,0
1041,1762970059882,3,65529,0,0,0,0,0,0
1042,1762970059948,3,65529,0,0,0,0,0,0
1043,1762970060016,2,65529,1,0,0,0,0,0
1044,1762970060082,3,65529,0,0,0,0,0,0
1045,1762970060115,3,65529,65535,0,0,0,0,0
1046,1762970060199,3,65528,0,0,0,0,0,0
1047,1762970060282,2,65529,65535,0,0,0,0,0
1048,1762970060399,3,65528,0,0,0,0,0,0
1049,1762970060432,4,65527,0,1,0,0,0,0
1050,1762970060498,4,65529,0,0,0,0,0,0
1051,1762970060565,3,65528,0,0,0,0,0,0
1052,1762970060598,2,65529,65535,0,0,0,0,0
1053,1762970060664,2,65528,0,3.32,0,0,0,0
1054,1762970060731,2,65528,0,0,0,0,0,0
1055,1762970060765,3,65528,0,0,0,0,0,0
1056,1762970060864,2,65530,0,0,0,0,0,0
1057,1762970060914,3,65529,0,0,0,0,0,0
1058,1762970060948,2,65529,65535,0,0,0,0,0
1059,1762970060997,2,65529,65535,0,0,0,0,0
1060,1762970061081,4,65528,0,0,0,0,0,0
1061,1762970061214,3,65528,65535,0,0,0,0,0
1062,1762970061282,3,65529,0,0,0,0,0,0
1063,1762970061382,3,65529,0,0,0,0,0,0
1064,1762970061466,3,65529,65534,0,0,0,0,0
1065,1762970061531,2,65527,1,0,0,0,0,0
1066,1762970061598,3,65528,1,0,0,0,0,0
1067,1762970061714,3,65531,0,0,0,0,0,0
1068,1762970061830,4,65528,0,0,0,0,0,0
1069,1762970061897,3,65529,65535,0,0,0,0,0
1070,1762970061980,4,65529,65535,0,0,0,0,0
1071,1762970062031,3,65529,65535,0,0,0,0,0
1072,1762970062147,4,65528,0,0,0,0,0,0
1073,1762970062164,2,65529,1,0,0,0,0,0
1074,1762970062231,4,65528,0,0,0,0,0,0
1075,1762970062383,2,65529,1,0,0,0,0,0
1076,1762970062447,2,65529,65535,0,0,0,0,0
1077,1762970062513,2,65528,65534,0,0,0,0,0
1078,1762970062596,3,65529,0,0,0,0,0,0
1079,1762970062629,3,65529,65534,0,0,0,0,0
1080,1762970062696,2,65528,0,1,0,0,0,0
1081,1762970062729,4,65528,65535,0,0,0,0,0
1082,1762970062848,1,65528,0,0,0,0,0,0
1083,1762970062863,4,65530,65535,0,0,0,0,0
1084,1762970062947,2,65528,1,3.32,0,0,0,0
1085,1762970062996,3,65529,0,0,0,0,0,0
1086,1762970063029,4,65529,65535,0,0,0,0,0
1087,1762970063114,3,65529,1,0,0,0,0,0
1088,1762970063230,2,65529,65535,0,0,0,0,0
1089,1762970063280,3,65530,65535,0,0,0,0,0
1090,1762970063346,4,65528,0,0,0,0,0,0
1091,1762970063463,2,65530,65535,0,0,0,0,0
1092,1762970063529,3,65529,65535,0,0,0,0,0
1093,1762970063596,3,65529,1,0,0,0,0,0
1094,1762970063646,3,65530,65535,0,0,0,0,0
1095,1762970063695,2,65529,0,0,0,0,0,0
1096,1762970063862,2,65528,0,0,0,0,0,0
1097,1762970063978,4,65529,0,0,0,0,0,0
1098,1762970064029,3,65530,65535,0,0,0,0,0
1099,1762970064096,4,65528,65535,0,0,0,0,0
1100,1762970064279,3,65529,65535,0,0,0,0,0
1101,1762970064345,4,65528,65535,0,0,0,0,0
1102,1762970064378,4,65528,65535,0,0,0,0,0
1103,1762970064495,3,65528,0,0,0,0,0,0
1104,1762970064512,3,65529,1,0,0,0,0,0
1105,1762970064612,4,65528,1,0,0,0,0,0
1106,1762970064696,3,65528,1,0,0,0,0,0
1107,1762970064731,0,65530,65535,0,0,0,0,0
1108,1762970064811,5,65529,65535,0,0,0,0,0
1109,1762970064914,2,65530,1,0,0,0,0,0
1110,1762970065127,3,65529,0,0,0,0,0,0
1111,1762970065145,2,65530,1,0,0,0,0,0
1112,1762970065228,3,65529,0,0,0,0,0,0
1113,1762970065262,4,65528,65535,0,0,0,0,0
1114,1762970065712,3,65529,65535,0,0,0,0,0
1115,1762970065794,2,65530,0,0,0,0,0,0
1116,1762970065945,3,65528,0,0,0,0,0,0
1117,1762970066327,3,65527,1,0,0,0,0,0
1118,1762970066444,3,65528,65535,0,0,0,0,0
1119,1762970066560,3,65528,65535,0,0,0,0,0
1120,1762970066610,3,65528,0,0,0,0,0,0
1121,1762970066677,2,65529,1,0,0,0,0,0
1122,1762970066728,3,65530,1,0,0,0,0,0
1123,1762970066793,0,65530,65535,0,0,0,0,0
1124,1762970066843,4,65528,65534,0,0,0,0,0
1125,1762970066927,4,65530,1,0,0,0,0,0
1126,1762970066976,3,65527,0,0,0,0,0,0
1127,1762970067026,3,65529,0,3.31,0,0,0,0
1128,1762970067093,4,65530,65534,0,0,0,0,0
1129,1762970067126,1,65528,1,0,0,0,0,0
1130,1762970067193,2,65528,65535,0,0,0,0,0
1131,1762970067346,4,65530,0,0,0,0,0,0
1132,1762970067576,3,65528,0,0,0,0,0,0
1133,1762970067676,5,65530,0,0,0,0,0,0
1134,1762970067709,2,65529,65535,0,0,0,0,0
1135,1762970067775,3,65530,0,0,0,0,0,0
1136,1762970067909,4,65528,0,0,0,0,0,0
1137,1762970067976,5,65528,0,0,0,0,0,0
1138,1762970068093,2,65528,65535,0,0,0,0,0
1139,1762970068143,3,65528,65535,0,0,0,0,0
1140,1762970068244,2,65528,0,0,0,0,0,0
1141,1762970068309,2,65529,65535,0,0,0,0,0
1142,1762970068358,3,65528,65535,0,0,0,0,0
1143,1762970068425,3,65529,65535,0,0,0,0,0
1144,1762970068493,2,65529,0,0,0,0,0,0
1145,1762970068542,4,65528,0,0,0,0,0,0
1146,1762970068608,2,65528,0,0,0,0,0,0
1147,1762970068658,3,65529,0,0,0,0,0,0
1148,1762970068727,3,65529,65535,0,0,0,0,0
1149,1762970068774,5,65529,0,0,0,0,0,0
1150,1762970068959,2,65528,1,3.32,0,0,0,0
1151,1762970068992,3,65530,65535,0,0,0,0,0
1152,1762970069042,2,65527,65535,0,0,0,0,0
1153,1762970069093,2,65529,65535,1,0,0,0,0
1154,1762970069158,4,65530,0,0,0,0,0,0
1155,1762970069209,2,65529,0,0,0,0,0,0
1156,1762970069341,4,65529,0,33196,0,0,0,0
1157,1762970069424,4,65527,65535,0,0,0,0,0
1158,1762970069443,3,65530,1,0,0,0,0,0
1159,1762970069541,4,65530,1,0,0,0,0,0
1160,1762970069591,4,65528,0,0,0,0,0,0
1161,1762970069641,4,65528,0,0,0,0,0,0
1162,1762970069674,4,65528,0,0,0,0,0,0
1163,1762970069742,3,65528,65535,0,0,0,0,0
1164,1762970069808,3,65530,0,0,0,0,0,0
1165,1762970069907,3,65529,65535,0,0,0,0,0
1166,1762970069974,5,65528,0,0,0,0,0,0
1167,1762970069991,3,65528,0,0,0,0,0,0
1168,1762970070024,1,65530,0,0,0,0,0,0
1169,1762970070075,3,65529,65535,0,0,0,0,0
1170,1762970070124,3,65528,65535,0,0,0,0,0
1171,1762970070191,3,65529,0,0,0,0,0,0
1172,1762970070274,2,65528,0,0,0,0,0,0
1173,1762970070308,3,65530,65534,0,0,0,0,0
1174,1762970070391,3,65529,0,0,0,0,0,0
1175,1762970070424,4,65530,0,0,0,0,0,0
1176,1762970070508,3,65529,0,0,0,0,0,0
1177,1762970070540,4,65528,65535,0,0,0,0,0
1178,1762970070607,2,65529,0,0,0,0,0,0
1179,1762970070641,3,65528,0,3.31,0,0,0,0
1180,1762970070740,3,65529,65535,0,0,0,0,0
1181,1762970070774,2,65529,0,0,0,0,0,0
1182,1762970070857,2,65528,0,0,0,0,0,0
1183,1762970070906,4,65530,65535,0,0,0,0,0
1184,1762970070974,3,65529,65535,0,0,0,0,0
1185,1762970071023,3,65530,1,0,0,0,0,0
1186,1762970071172,3,65530,0,0,0,0,0,0
1187,1762970071223,3,65531,65535,0,0,0,0,0
1188,1762970071273,0,65529,65535,0,0,0,0,0
1189,1762970071323,3,65529,0,0,0,0,0,0
1190,1762970071374,4,65529,0,0,0,0,0,0
1191,1762970071408,2,65529,1,0,0,0,0,0
1192,1762970071489,4,65529,65535,0,0,0,0,0
1193,1762970071523,3,65529,65535,0,0,0,0,0
1194,1762970071656,3,65529,0,0,0,0,0,0
1195,1762970071739,3,65530,65535,0,0,0,0,0
1196,1762970071789,4,65526,0,0,0,0,0,0
1197,1762970071907,4,65528,0,0,0,0,0,0
1198,1762970071940,3,65529,0,0,0,0,0,0
1199,1762970072006,5,65529,65535,0,0,0,0,0
1200,1762970072072,2,65527,0,0,0,0,0,0
1201,1762970072155,5,65530,0,0,0,0,0,0
1202,1762970072307,2,65528,0,1,0,0,0,0
1203,1762970072407,2,65529,0,0,0,0,0,0
1204,1762970072439,3,65530,0,0,0,0,0,0
1205,1762970072556,2,65528,0,0,0,0,0,0
1206,1762970072605,2,65531,0,0,0,0,0,0
1207,1762970072655,2,65530,65534,0,0,0,0,0
1208,1762970072705,3,65529,0,0,0,0,0,0
1209,1762970072773,2,65529,0,0,0,0,0,0
1210,1762970072838,1,65531,65535,0,0,0,0,0
1211,1762970072889,3,65528,1,0,0,0,0,0
1212,1762970072955,3,65529,1,3.26,0,0,0,0
1213,1762970073023,3,65530,0,0,0,0,0,0
1214,1762970073055,3,65531,0,0,0,0,0,0
1215,1762970073139,1,65528,0,0,0,0,0,0
1216,1762970073171,3,65529,65535,1,0,0,0,0
1217,1762970073240,3,65530,0,0,0,0,0,0
1218,1762970073272,2,65529,65535,0,0,0,0,0
1219,1762970073355,2,65528,0,0,0,0,0,0
1220,1762970073437,3,65527,65535,0,0,0,0,0
1221,1762970073487,2,65529,255,0,0,0,0,0
1222,1762970073554,2,65528,65535,0,0,0,0,0
1223,1762970073605,3,65530,65535,0,0,0,0,0
1224,1762970073671,2,65528,65535,0,0,0,0,0
1225,1762970073704,3,65528,65535,0,0,0,0,0
1226,1762970073787,1,65529,65535,0,0,0,0,0
1227,1762970073870,3,65530,0,0,0,0,0,0
1228,1762970074003,4,65530,65535,0,0,0,0,0
1229,1762970074037,2,65529,65535,0,0,0,0,0
1230,1762970074054,3,65529,0,0,0,0,0,0
1231,1762970074136,2,65528,0,0,0,0,0,0
1232,1762970074203,3,65528,65535,0,0,0,0,0
1233,1762970074253,2,65530,65535,0,0,0,0,0
1234,1762970074320,5,65529,0,3.32,0,0,0,0
1235,1762970074369,2,65528,0,0,0,0,0,0
1236,1762970074487,3,65531,0,0,0,0,0,0
1237,1762970074569,3,65528,65535,1,0,0,0,0
1238,1762970074603,2,65530,65535,0,0,0,0,0
1239,1762970074670,2,65529,0,0,0,0,0,0
1240,1762970074703,3,65530,1,0,0,0,0,0
1241,1762970074886,3,65530,65535,0,0,0,0,0
1242,1762970075036,3,65528,65535,0,0,0,0,0
1243,1762970075053,3,65529,65535,0,0,0,0,0
1244,1762970075136,3,65530,0,0,0,0,0,0
1245,1762970075169,4,65528,0,0,0,0,0,0
1246,1762970075302,4,65531,0,0,0,0,0,0
1247,1762970075352,2,65528,0,0,0,0,0,0
1248,1762970075419,1,65530,0,0,0,0,0,0
1249,1762970075468,4,65529,65535,0,0,0,0,0
1250,1762970075535,3,65528,0,0,0,0,0,0
1251,1762970075569,2,65529,0,0,0,0,0,0
1252,1762970075635,3,65528,65535,0,0,0,0,0
1253,1762970075702,3,65528,0,0,0,0,0,0
1254,1762970075820,4,65528,1,0,0,0,0,0
1255,1762970075853,3,65528,65535,0,0,0,0,0
1256,1762970075969,2,65527,65535,0,0,0,0,0
1257,1762970076036,4,65529,65534,0,0,0,0,0
1258,1762970076103,3,65529,0,0,0,0,0,0
1259,1762970076185,2,65528,65535,0,0,0,0,0
1260,1762970076235,4,65529,0,0,0,0,0,0
1261,1762970076269,4,65528,0,0,0,0,0,0
1262,1762970076336,2,65529,65535,0,0,0,0,0
1263,1762970076403,2,65528,65535,0,0,0,0,0
1264,1762970076452,4,65530,0,0,0,0,0,0
1265,1762970076503,3,65528,1,0,0,0,0,0
1266,1762970076569,4,65528,65535,0,0,0,0,0
1267,1762970076636,2,65528,0,0,0,0,0,0
1268,1762970076685,4,65528,0,0,0,0,0,0
1269,1762970076736,2,65529,2,0,0,0,0,0
1270,1762970076785,3,65529,65535,0,0,0,0,0
1271,1762970076868,3,65528,1,0,0,0,0,0
1272,1762970076918,3,65530,0,0,0,0,0,0
1273,1762970076968,3,65527,65535,0,0,0,0,0
1274,1762970077018,3,65528,65535,0,0,0,0,0
1275,1762970077101,3,65529,0,0,0,0,0,0
1276,1762970077134,2,65530,0,0,0,0,0,0
1277,1762970077234,3,65528,1,0,0,0,0,0
1278,1762970077318,3,65529,0,0,0,0,0,0
1279,1762970077352,2,65530,65535,0,0,0,0,0
1280,1762970077418,4,65529,0,0,0,0,0,0
1281,1762970077469,4,65528,65535,0,0,0,0,0
1282,1762970077551,1,65530,0,0,0,0,0,0
1283,1762970077567,2,65529,0,0,0,0,0,0
1284,1762970077634,5,65527,0,0,0,0,0,0
1285,1762970077684,2,65531,65535,0,0,0,0,0
1286,1762970077767,3,65528,255,0,0,0,0,0
1287,1762970077817,1,65529,1,0,0,0,0,0
1288,1762970077968,2,65529,1,0,0,0,0,0
1289,1762970078017,3,65529,0,0,0,0,0,0
1290,1762970078050,4,65528,0,0,0,0,0,0
1291,1762970078101,3,65529,0,0,0,0,0,0
1292,1762970078136,3,65528,0,0,0,0,0,0
1293,1762970078250,2,65528,2,0,0,0,0,0
1294,1762970078317,4,65529,65534,0,0,0,0,0
1295,1762970078352,1,65530,65534,0,0,0,0,0
1296,1762970078434,4,65531,0,3.24,0,0,0,0
1297,1762970078483,65535,65528,65535,0,0,0,0,0
1298,1762970078551,6,65529,0,0,0,0,0,0
1299,1762970078600,3,65530,65534,164,0,0,0,0
1300,1762970078651,6,65530,1,0,0,0,0,0
1301,1762970078717,3,65529,0,1641,0,0,0,0
1302,1762970078767,1,65529,0,0,0,0,0,0
1303,1762970078917,4,65528,65535,0,0,0,0,0
1304,1762970078999,2,65527,0,0,0,0,0,0
1305,1762970079083,2,65527,0,0,0,0,0,0
1306,1762970079134,2,65528,0,0,0,0,0,0
1307,1762970079216,3,65529,0,0,0,0,0,0
1308,1762970079333,5,65527,0,0,0,0,0,0
1309,1762970079366,3,65530,65535,0,0,0,0,0
1310,1762970079433,4,65528,0,0,0,0,0,0
1311,1762970079451,5,65530,0,0,0,0,0,0
1312,1762970079533,3,65529,0,0,0,0,0,0
1313,1762970079566,2,65528,65280,0,0,0,0,0
1314,1762970079634,3,65531,0,0,0,0,0,0
1315,1762970079666,3,65528,0,0,0,0,0,0
1316,1762970079750,2,65528,1,33130,0,0,0,0
1317,1762970079833,3,65527,0,0,0,0,0,0
1318,1762970079916,4,65529,0,0,0,0,0,0
1319,1762970079949,3,65529,0,0,0,0,0,0
1320,1762970080033,3,65530,0,0,0,0,0,0
1321,1762970080083,1,65529,0,0,0,0,0,0
1322,1762970080116,3,65529,0,0,0,0,0,0
1323,1762970080182,3,65530,0,0,0,0,0,0
1324,1762970080249,4,65528,0,137,0,0,0,0
1325,1762970080302,3,65529,65535,0,0,0,0,0
1326,1762970080349,4,65530,0,0,0,0,0,0
1327,1762970080432,3,65528,0,0,0,0,0,0
1328,1762970080499,1,65527,65535,0,0,0,0,0
1329,1762970080582,4,65529,0,0,0,0,0,0
1330,1762970080682,3,65528,65535,0,0,0,0,0
1331,1762970080732,65529,65527,65534,0,0,0,0,0
1332,1762970080798,65535,65527,255,0,0,0,0,0
1333,1762970080948,5,65527,0,0,0,0,0,0
1334,1762970081031,0,65528,0,1351,0,0,0,0
1335,1762970081082,3,65529,0,3.29,0,0,0,0
1336,1762970081132,5,65528,65535,0,0,0,0,0
1337,1762970081183,4,65529,1,0,0,0,0,0
1338,1762970081249,4,65530,0,0,0,0,0,0
1339,1762970081299,6,65532,3,1,0,0,0,0
1340,1762970081349,15,65531,2,1320,0,0,0,0
1341,1762970081414,65535,65528,65535,3.31,0,0,0,0
1342,1762970081481,2,65527,0,707,0,0,0,0
1343,1762970081531,2,65530,0,3.25,0,0,0,0
1344,1762970081631,5,65529,1,0,0,0,0,0
1345,1762970081714,4,65529,1,0,0,0,0,0
1346,1762970081749,1,65530,65535,1,0,0,0,0
1347,1762970081898,0,65529,65535,849,0,0,0,0
1348,1762970081980,3,65528,0,0,0,0,0,0
1349,1762970082015,2,65529,0,3.31,0,0,0,0
1350,1762970082047,3,65530,0,0,0,0,0,0
1351,1762970082081,4,65528,1,0,0,0,0,0
1352,1762970082164,2,65528,0,808,0,0,0,0
1353,1762970082198,2,65531,0,1,0,0,0,0
1354,1762970082264,3,65528,65535,0,0,0,0,0
1355,1762970082297,2,65530,65535,0,0,0,0,0
1356,1762970082364,3,65530,65535,660,0,0,0,0
1357,1762970082415,3,65530,255,3.31,0,0,0,0
1358,1762970082513,3,65530,65535,0,0,0,0,0
1359,1762970082530,3,65528,1,0,0,0,0,0
1360,1762970082630,1,65529,0,0,0,0,0,0
1361,1762970082713,3,65529,0,0,0,0,0,0
1362,1762970082781,3,65529,65535,0,0,0,0,0
1363,1762970082847,3,65530,0,0,0,0,0,0
1364,1762970082929,4,65527,0,453,0,0,0,0
1365,1762970083013,2,65530,0,0,0,0,0,0
1366,1762970083064,2,65528,65535,0,0,0,0,0
1367,1762970083096,2,65528,1,0,0,0,0,0
1368,1762970083197,3,65529,65535,0,0,0,0,0
1369,1762970083263,3,65530,0,0,0,0,0,0
1370,1762970083313,4,65529,1,0,0,0,0,0
1371,1762970083396,3,65528,65535,0,0,0,0,0
1372,1762970083430,4,65527,65535,24,0,0,0,0
1373,1762970083496,3,65529,1,0,0,0,0,0
1374,1762970083546,3,65529,0,20,0,0,0,0
1375,1762970083596,4,65528,0,0,0,0,0,0
1376,1762970083665,3,65529,1,16,0,0,0,0
1377,1762970083713,3,65528,0,0,0,0,0,0
1378,1762970083779,2,65529,0,0,0,0,0,0
1379,1762970083929,2,65529,0,0,0,0,0,0
1380,1762970083963,3,65529,65535,0,0,0,0,0
1381,1762970083996,3,65527,0,65209,0,0,0,0
1382,1762970084046,3,65529,0,0,0,0,0,0
1383,1762970084097,4,65528,65535,65231,0,0,0,0
1384,1762970084147,3,65528,0,0,0,0,0,0
1385,1762970084363,3,65527,0,0,0,0,0,0
1386,1762970084545,2,65528,0,0,0,0,0,0
1387,1762970084596,4,65529,65535,0,0,0,0,0
1388,1762970084645,2,65529,0,65280,0,0,0,0
1389,1762970084729,3,65529,1,0,0,0,0,0
1390,1762970084829,3,65530,0,168,0,0,0,0
1391,1762970084979,2,65528,0,0,0,0,0,0
1392,1762970085096,3,65529,65535,0,0,0,0,0
1393,1762970085146,4,65530,0,0,0,0,0,0
1394,1762970085315,4,65529,65535,65299,0,0,0,0
1395,1762970085361,2,65528,0,0,0,0,0,0
1396,1762970085429,3,65529,0,0,0,0,0,0
1397,1762970085478,4,65530,0,0,0,0,0,0
1398,1762970085579,4,65528,0,0,0,0,0,0
1399,1762970085678,3,65527,0,0,0,0,0,0
1400,1762970085745,3,65528,0,173,0,0,0,0
1401,1762970085795,3,65529,65535,0,0,0,0,0
1402,1762970085861,2,65529,0,172,0,0,0,0
1403,1762970085962,2,65528,0,0,0,0,0,0
1404,1762970085978,1,65528,65535,0,0,0,0,0
1405,1762970086079,2,65530,0,0,0,0,0,0
1406,1762970086128,3,65529,65535,0,0,0,0,0
1407,1762970086227,3,65529,65535,0,0,0,0,0
1408,1762970086295,3,65529,0,0,0,0,0,0
1409,1762970086345,4,65529,0,0,0,0,0,0
1410,1762970086379,3,65528,0,0,0,0,0,0
1411,1762970086444,3,65530,65535,0,0,0,0,0
1412,1762970086477,3,65529,0,0,0,0,0,0
1413,1762970086677,3,65529,65534,0,0,0,0,0
1414,1762970086729,3,65531,0,0,0,0,0,0
1415,1762970086811,2,65528,0,0,0,0,0,0
1416,1762970086944,3,65529,65535,0,0,0,0,0
1417,1762970087060,3,65529,65535,170,0,0,0,0
1418,1762970087176,2,65529,65535,0,0,0,0,0
1419,1762970087259,3,65529,65535,1,0,0,0,0
1420,1762970087343,3,65530,0,65321,0,0,0,0
1421,1762970087360,3,65531,65535,0,0,0,0,0
1422,1762970087493,4,65528,65535,3.32,0,0,0,0
1423,1762970087527,2,65530,0,0,0,0,0,0
1424,1762970087643,3,65528,0,0,0,0,0,0
1425,1762970087694,1,65529,0,0,0,0,0,0
1426,1762970087993,2,65529,65535,0,0,0,0,0
1427,1762970089075,3,65530,65280,65338,0,0,0,0
1428,1762970089109,4,65529,0,0,0,0,0,0
1429,1762970089191,4,65529,0,0,0,0,0,0
1430,1762970089243,4,65530,0,0,0,0,0,0
1431,1762970089358,3,65527,0,0,0,0,0,0
1432,1762970089392,3,65530,0,0,0,0,0,0
1433,1762970089476,2,65529,0,0,0,0,0,0
1434,1762970089575,3,65528,0,0,0,0,0,0
1435,1762970089610,2,65528,0,173,0,0,0,0
1436,1762970089658,4,65528,65535,0,0,0,0,0
1437,1762970089743,2,65529,65535,0,0,0,0,0
1438,1762970089807,3,65528,0,0,0,0,0,0
1439,1762970089891,2,65528,65535,0,0,0,0,0
1440,1762970089907,2,65528,65535,0,0,0,0,0
1441,1762970090007,2,65529,65535,0,0,0,0,0
1442,1762970090027,3,65530,65535,0,0,0,0,0
1443,1762970090091,3,65527,65535,0,0,0,0,0
1444,1762970090125,2,65528,65535,0,0,0,0,0
1445,1762970090208,4,65530,1,0,0,0,0,0
1446,1762970090274,3,65530,65535,65324,0,0,0,0
1447,1762970090325,4,65530,0,0,0,0,0,0
1448,1762970090391,3,65528,0,0,0,0,0,0
1449,1762970090441,4,65529,0,0,0,0,0,0
1450,1762970090509,3,65529,0,0,0,0,0,0
1451,1762970090557,4,65528,0,0,0,0,0,0
1452,1762970090658,3,65530,65535,0,0,0,0,0
1453,1762970090724,4,65530,0,0,0,0,0,0
1454,1762970090775,3,65529,0,0,0,0,0,0
1455,1762970090875,5,65528,65535,65330,0,0,0,0
1456,1762970090973,3,65529,65535,0,0,0,0,0
1457,1762970090990,2,65529,2,0,0,0,0,0
1458,1762970091172,4,65529,0,0,0,0,0,0
1459,1762970091222,1,65528,65535,0,0,0,0,0
1460,1762970091306,2,65529,0,0,0,0,0,0
1461,1762970091338,2,65528,0,0,0,0,0,0
1462,1762970091456,2,65529,1,0,0,0,0,0
1463,1762970091522,4,65528,65535,0,0,0,0,0
1464,1762970091605,3,65528,0,0,0,0,0,0
1465,1762970091638,3,65530,65534,0,0,0,0,0
1466,1762970091722,2,65531,0,65323,0,0,0,0
1467,1762970091772,3,65530,65535,0,0,0,0,0
1468,1762970091871,2,65529,0,0,0,0,0,0
1469,1762970091905,3,65529,1,0,0,0,0,0
1470,1762970092072,2,65529,0,0,0,0,0,0
1471,1762970092138,2,65529,0,5,0,0,0,0
1472,1762970092188,3,65530,0,0,0,0,0,0
1473,1762970092254,3,65530,65535,0,0,0,0,0
1474,1762970092305,4,65529,65535,0,0,0,0,0
1475,1762970092371,3,65528,65535,0,0,0,0,0
1476,1762970092405,3,65530,0,0,0,0,0,0
1477,1762970092504,2,65527,65535,0,0,0,0,0
1478,1762970092538,3,65529,0,0,0,0,0,0
1479,1762970092621,3,65529,65535,0,0,0,0,0
1480,1762970092655,3,65529,0,0,0,0,0,0
1481,1762970092738,3,65530,0,0,0,0,0,0
1482,1762970092788,3,65530,0,0,0,0,0,0
1483,1762970092855,6,65529,0,0,0,0,0,0
1484,1762970092954,5,65529,0,0,0,0,0,0
1485,1762970093189,2,65529,0,0,0,0,0,0
1486,1762970093254,1,65529,0,0,0,0,0,0
1487,1762970093304,1,65529,0,0,0,0,0,0
1488,1762970093454,3,65530,0,0,0,0,0,0
1489,1762970093507,2,65529,0,0,0,0,0,0
1490,1762970093553,1,65529,0,0,0,0,0,0
1491,1762970093620,0,65530,0,1,0,0,0,0
1492,1762970093670,4,65529,0,0,0,0,0,0
1493,1762970093738,2,65530,65535,0,0,0,0,0
1494,1762970093803,3,65528,0,0,0,0,0,0
1495,1762970093937,3,65529,65535,0,0,0,0,0
1496,1762970093971,3,65530,0,0,0,0,0,0
1497,1762970094037,1,65529,0,0,0,0,0,0
1498,1762970094088,2,65529,0,0,0,0,0,0
1499,1762970094153,4,65528,65535,0,0,0,0,0
1500,1762970094203,4,65528,65535,0,0,0,0,0
1501,1762970094286,4,65529,0,3.26,0,0,0,0
1502,1762970094336,3,65529,0,0,0,0,0,0
1503,1762970094403,2,65528,0,0,0,0,0,0
1504,1762970094453,3,65530,0,0,0,0,0,0
1505,1762970094503,3,65531,0,1,0,0,0,0
1506,1762970094571,4,65529,1,0,0,0,0,0
1507,1762970094620,4,65528,65534,0,0,0,0,0
1508,1762970094687,2,65530,0,0,0,0,0,0
1509,1762970094753,3,65527,1,33191,0,0,0,0
1510,1762970094820,3,65529,0,0,0,0,0,0
1511,1762970094869,4,65528,65535,0,0,0,0,0
1512,1762970094970,3,65530,65535,0,0,0,0,0
1513,1762970095054,2,65530,1,0,0,0,0,0
1514,1762970095104,2,65529,0,0,0,0,0,0
1515,1762970095154,4,65530,0,0,0,0,0,0
1516,1762970095254,3,65529,0,0,0,0,0,0
1517,1762970095286,2,65530,0,0,0,0,0,0
1518,1762970095370,3,65531,65535,0,0,0,0,0
1519,1762970095419,5,65528,65535,0,0,0,0,0
1520,1762970095470,2,65529,0,0,0,0,0,0
1521,1762970095519,3,65530,1,0,0,0,0,0
1522,1762970095587,3,65529,65534,0,0,0,0,0
1523,1762970095669,3,65527,0,0,0,0,0,0
1524,1762970095703,2,65528,0,0,0,0,0,0
1525,1762970095787,2,65530,0,0,0,0,0,0
1526,1762970095820,4,65528,65535,0,0,0,0,0
1527,1762970095936,2,65530,0,0,0,0,0,0
1528,1762970095986,4,65529,0,0,0,0,0,0
1529,1762970096042,3,65528,0,0,0,0,0,0
1530,1762970096138,2,65529,65535,0,0,0,0,0
1531,1762970096187,3,65529,1,0,0,0,0,0
1532,1762970096252,3,65529,65535,0,0,0,0,0
1533,1762970096303,2,65529,0,0,0,0,0,0
1534,1762970096375,4,65529,65535,0,0,0,0,0
1535,1762970096420,2,65529,0,0,0,0,0,0
1536,1762970096470,3,65527,65535,0,0,0,0,0
1537,1762970096537,3,65528,0,0,0,0,0,0
1538,1762970096587,2,65529,0,0,0,0,0,0
1539,1762970096703,3,65529,0,0,0,0,0,0
1540,1762970096824,2,65528,1,0,0,0,0,0
1541,1762970096862,3,65530,0,0,0,0,0,0
1542,1762970096936,4,65528,0,0,0,0,0,0
1543,1762970096987,4,65528,65535,0,0,0,0,0
1544,1762970097069,3,65529,65535,0,0,0,0,0
1545,1762970097138,3,65529,0,0,0,0,0,0
1546,1762970097171,4,65530,0,0,0,0,0,0
1547,1762970097271,1,65529,0,1,0,0,0,0
1548,1762970097303,2,65529,65535,0,0,0,0,0
1549,1762970097350,3,65529,65535,0,0,0,0,0
1550,1762970097417,3,65529,0,0,0,0,0,0
1551,1762970097485,3,65529,65535,0,0,0,0,0
1552,1762970097568,3,65529,0,0,0,0,0,0
1553,1762970097602,3,65529,0,0,0,0,0,0
1554,1762970097684,2,65528,65535,0,0,0,0,0
1555,1762970097720,2,65529,1,0,0,0,0,0
1556,1762970097801,3,65528,0,0,0,0,0,0
1557,1762970097850,4,65530,65535,0,0,0,0,0
1558,1762970097950,2,65529,1,3.27,0,0,0,0
1559,1762970098018,3,65530,0,0,0,0,0,0
1560,1762970098102,2,65530,65535,0,0,0,0,0
1561,1762970098151,2,65529,2,1,0,0,0,0
1562,1762970098235,1,65528,65535,0,0,0,0,0
1563,1762970098267,2,65528,65535,0,0,0,0,0
1564,1762970098349,3,65530,0,0,0,0,0,0
1565,1762970098467,3,65529,65535,0,0,0,0,0
1566,1762970098533,1,65529,65535,0,0,0,0,0
1567,1762970098567,5,65529,65535,0,0,0,0,0
1568,1762970098666,3,65529,65535,0,0,0,0,0
1569,1762970098699,3,65529,0,0,0,0,0,0
1570,1762970098782,4,65529,65535,0,0,0,0,0
1571,1762970098852,3,65529,0,0,0,0,0,0
1572,1762970098969,1,65528,0,0,0,0,0,0
1573,1762970098984,4,65527,65535,0,0,0,0,0
1574,1762970099018,2,65529,0,0,0,0,0,0
1575,1762970099101,5,65528,65534,0,0,0,0,0
1576,1762970099137,3,65528,0,0,0,0,0,0
1577,1762970099202,3,65530,0,0,0,0,0,0
1578,1762970099251,3,65528,65535,0,0,0,0,0
1579,1762970099333,3,65529,0,0,0,0,0,0
1580,1762970099400,5,65529,65535,0,0,0,0,0
1581,1762970099433,4,65528,65535,0,0,0,0,0
1582,1762970099500,3,65529,0,0,0,0,0,0
1583,1762970099567,3,65529,0,0,0,0,0,0
1584,1762970099617,3,65529,1,0,0,0,0,0
1585,1762970099667,1,65529,0,0,0,0,0,0
1586,1762970099786,2,65529,0,0,0,0,0,0
1587,1762970099817,3,65529,0,0,0,0,0,0
1588,1762970099905,4,65528,0,0,0,0,0,0
1589,1762970099916,2,65528,0,0,0,0,0,0
1590,1762970100068,3,65530,1,0,0,0,0,0
1591,1762970100102,2,65528,65535,0,0,0,0,0
1592,1762970100134,3,65529,0,0,0,0,0,0
1593,1762970100233,2,65530,0,33192,0,0,0,0
1594,1762970100283,4,65528,0,0,0,0,0,0
1595,1762970100317,4,65530,0,0,0,0,0,0
1596,1762970100401,5,65529,0,0,0,0,0,0
1597,1762970100451,4,65529,0,0,0,0,0,0
1598,1762970100518,2,65529,0,0,0,0,0,0
1599,1762970100551,2,65528,0,0,0,0,0,0
1600,1762970100633,5,65528,65535,0,0,0,0,0
1601,1762970100700,1,65528,0,0,0,0,0,0
1602,1762970100767,5,65529,1,0,0,0,0,0
1603,1762970100817,3,65529,0,0,0,0,0,0
1604,1762970100867,2,65528,0,0,0,0,0,0
1605,1762970100932,4,65529,0,0,0,0,0,0
1606,1762970100985,2,65529,65535,0,0,0,0,0
1607,1762970101049,2,65531,0,0,0,0,0,0
1608,1762970101117,3,65529,0,3.32,0,0,0,0
1609,1762970101234,3,65528,65535,0,0,0,0,0
1610,1762970101299,4,65528,65535,0,0,0,0,0
1611,1762970101349,4,65530,1,0,0,0,0,0
1612,1762970101415,4,65528,0,0,0,0,0,0
1613,1762970101482,3,65528,65535,0,0,0,0,0
1614,1762970101531,4,65528,65535,0,0,0,0,0
1615,1762970101632,1,65527,0,0,0,0,0,0
1616,1762970101666,2,65528,65535,0,0,0,0,0
1617,1762970101748,2,65528,65535,0,0,0,0,0
1618,1762970101782,2,65528,65535,0,0,0,0,0
1619,1762970101881,1,65530,0,0,0,0,0,0
1620,1762970101964,3,65531,65535,0,0,0,0,0
1621,1762970102048,4,65529,0,0,0,0,0,0
1622,1762970102247,3,65528,65535,0,0,0,0,0
1623,1762970102280,2,65528,0,0,0,0,0,0
1624,1762970102315,3,65531,0,0,0,0,0,0
1625,1762970102430,3,65529,0,0,0,0,0,0
1626,1762970102564,6,65528,65535,0,0,0,0,0
1627,1762970102630,3,65528,1,0,0,0,0,0
1628,1762970102682,3,65528,65535,0,0,0,0,0
1629,1762970102748,4,65528,0,0,0,0,0,0
1630,1762970102864,3,65529,65534,0,0,0,0,0
1631,1762970102932,2,65529,0,0,0,0,0,0
1632,1762970103032,4,65529,1,0,0,0,0,0
1633,1762970103064,2,65527,65535,0,0,0,0,0
1634,1762970103114,4,65530,0,0,0,0,0,0
1635,1762970103131,4,65528,65535,0,0,0,0,0
1636,1762970103181,2,65527,0,0,0,0,0,0
1637,1762970103232,3,65527,65535,0,0,0,0,0
1638,1762970103297,5,65529,0,0,0,0,0,0
1639,1762970103348,1,65529,0,0,0,0,0,0
1640,1762970103414,3,65530,65535,3.26,0,0,0,0
1641,1762970103531,5,65528,65535,0,0,0,0,0
1642,1762970103664,4,65528,1,0,0,0,0,0
1643,1762970103730,4,65530,65535,0,0,0,0,0
1644,1762970103797,3,65528,65535,0,0,0,0,0
1645,1762970103914,3,65529,0,0,0,0,0,0
1646,1762970103963,3,65529,65534,0,0,0,0,0
1647,1762970104030,3,65529,65535,0,0,0,0,0
1648,1762970104080,3,65529,0,1,0,0,0,0
1649,1762970104129,1,65528,0,0,0,0,0,0
1650,1762970104180,3,65528,0,0,0,0,0,0
1651,1762970104246,2,65529,0,0,0,0,0,0
1652,1762970104313,3,65529,0,0,0,0,0,0
1653,1762970104380,3,65529,65535,0,0,0,0,0
1654,1762970104413,2,65529,0,0,0,0,0,0
1655,1762970104529,2,65529,1,1,0,0,0,0
1656,1762970104612,3,65530,65535,0,0,0,0,0
1657,1762970104646,5,65530,65535,0,0,0,0,0
1658,1762970104712,3,65528,1,0,0,0,0,0
1659,1762970104845,3,65531,0,0,0,0,0,0
1660,1762970104929,3,65529,65535,0,0,0,0,0
1661,1762970104979,3,65528,0,0,0,0,0,0
1662,1762970105030,2,65528,0,0,0,0,0,0
1663,1762970105081,3,65527,65535,0,0,0,0,0
1664,1762970105130,3,65530,0,0,0,0,0,0
1665,1762970105196,3,65528,0,0,0,0,0,0
1666,1762970105279,3,65528,65535,0,0,0,0,0
1667,1762970105328,4,65529,65535,0,0,0,0,0
1668,1762970105379,5,65529,65535,0,0,0,0,0
1669,1762970105446,3,65530,0,1,0,0,0,0
1670,1762970105496,5,65528,0,0,0,0,0,0
1671,1762970105562,3,65529,65535,0,0,0,0,0
1672,1762970105612,2,65528,1,0,0,0,0,0
1673,1762970105711,1,65531,65535,0,0,0,0,0
1674,1762970105735,3,65528,0,0,0,0,0,0
1675,1762970105812,2,65529,0,0,0,0,0,0
1676,1762970105878,2,65530,0,0,0,0,0,0
1677,1762970105996,3,65530,65535,0,0,0,0,0
1678,1762970106061,4,65529,0,0,0,0,0,0
1679,1762970106177,2,65531,0,0,0,0,0,0
1680,1762970106294,4,65530,0,0,0,0,0,0
1681,1762970106377,3,65529,0,0,0,0,0,0
1682,1762970106415,4,65529,65535,0,0,0,0,0
1683,1762970106478,2,65529,1,0,0,0,0,0
1684,1762970106518,3,65529,0,0,0,0,0,0
1685,1762970106677,4,65527,65535,0,0,0,0,0
1686,1762970106728,1,65528,65535,0,0,0,0,0
1687,1762970106861,2,65529,1,0,0,0,0,0
1688,1762970106961,4,65528,0,0,0,0,0,0
1689,1762970107028,2,65530,65534,3.26,0,0,0,0
1690,1762970107145,2,65529,1,0,0,0,0,0
1691,1762970107278,3,65529,65535,0,0,0,0,0
1692,1762970107328,3,65529,65535,0,0,0,0,0
1693,1762970107994,4,65529,0,0,0,0,0,0
1694,1762970108044,2,65528,0,0,0,0,0,0
1695,1762970108176,3,65528,0,0,0,0,0,0
1696,1762970108244,4,65527,0,0,0,0,0,0
1697,1762970108594,3,65529,0,0,0,0,0,0
1698,1762970108710,4,65529,65535,0,0,0,0,0
1699,1762970109242,4,65532,1,0,0,0,0,0
1700,1762970109509,2,65530,0,0,0,0,0,0
1701,1762970109627,2,65528,0,0,0,0,0,0
1702,1762970109928,2,65531,65534,0,0,0,0,0
1703,1762970110308,4,65529,1,0,0,0,0,0
1704,1762970110342,3,65530,65535,0,0,0,0,0
1705,1762970110425,3,65528,65534,0,0,0,0,0
1706,1762970110458,3,65529,65535,1,0,0,0,0
1707,1762970110541,2,65528,0,0,0,0,0,0
1708,1762970110575,3,65529,65535,0,0,0,0,0
1709,1762970110658,3,65528,65535,0,0,0,0,0
1710,1762970110725,3,65530,0,0,0,0,0,0
1711,1762970110774,1,65529,0,0,0,0,0,0
1712,1762970110857,4,65530,65535,0,0,0,0,0
1713,1762970110906,2,65528,65535,0,0,0,0,0
1714,1762970110973,2,65529,0,0,0,0,0,0
1715,1762970111039,2,65528,0,0,0,0,0,0
1716,1762970111106,3,65529,0,0,0,0,0,0
1717,1762970111191,2,65528,65535,0,0,0,0,0
1718,1762970111239,3,65529,0,0,0,0,0,0
1719,1762970111325,3,65527,0,0,0,0,0,0
1720,1762970111357,3,65529,65535,0,0,0,0,0
1721,1762970111439,3,65529,65280,0,0,0,0,0
1722,1762970111473,2,65527,0,0,0,0,0,0
1723,1762970111538,3,65529,65535,0,0,0,0,0
1724,1762970111621,2,65530,65535,0,0,0,0,0
1725,1762970111655,1,65529,65535,0,0,0,0,0
1726,1762970111722,2,65528,65534,0,0,0,0,0
1727,1762970111772,3,65530,0,0,0,0,0,0
1728,1762970111939,3,65528,0,0,0,0,0,0
1729,1762970112073,3,65531,0,0,0,0,0,0
1730,1762970112124,4,65529,0,0,0,0,0,0
1731,1762970112140,2,65528,0,0,0,0,0,0
1732,1762970112206,2,65530,0,0,0,0,0,0
1733,1762970112289,4,65529,0,0,0,0,0,0
1734,1762970112388,3,65529,0,0,0,0,0,0
1735,1762970112488,2,65528,0,0,0,0,0,0
1736,1762970112555,2,65528,0,0,0,0,0,0
1737,1762970112621,3,65530,0,0,0,0,0,0
1738,1762970112657,3,65528,0,0,0,0,0,0
1739,1762970112738,2,65529,65535,0,0,0,0,0
1740,1762970112788,2,65529,65535,0,0,0,0,0
1741,1762970112888,3,65529,65534,0,0,0,0,0
1742,1762970112904,2,65528,0,0,0,0,0,0
1743,1762970113004,4,65529,65535,3.26,0,0,0,0
1744,1762970113071,3,65528,0,0,0,0,0,0
1745,1762970113137,2,65530,65535,0,0,0,0,0
1746,1762970113203,4,65528,65535,0,0,0,0,0
1747,1762970113237,3,65528,65535,0,0,0,0,0
1748,1762970113304,3,65530,65535,0,0,0,0,0
1749,1762970113354,4,65530,0,0,0,0,0,0
1750,1762970113503,4,65528,1,0,0,0,0,0
1751,1762970113554,3,65529,65535,0,0,0,0,0
1752,1762970113587,3,65530,0,0,0,0,0,0
1753,1762970113637,4,65529,65534,0,0,0,0,0
1754,1762970113687,3,65528,65535,0,0,0,0,0
1755,1762970113803,2,65529,65535,0,0,0,0,0
1756,1762970113854,4,65530,0,0,0,0,0,0
1757,1762970113970,3,65527,65535,0,0,0,0,0
1758,1762970114003,2,65530,65534,0,0,0,0,0
1759,1762970114053,6,65530,0,0,0,0,0,0
1760,1762970114087,3,65527,65535,0,0,0,0,0
1761,1762970114154,3,65528,65534,0,0,0,0,0
1762,1762970114186,4,65528,2,0,0,0,0,0
1763,1762970114253,65535,65528,1,0,0,0,0,0
1764,1762970114286,5,65528,65535,0,0,0,0,0
1765,1762970114369,4,65529,65535,0,0,0,0,0
1766,1762970114404,3,65531,0,0,0,0,0,0
1767,1762970114487,3,65527,0,0,0,0,0,0
1768,1762970114519,4,65528,65535,0,0,0,0,0
1769,1762970114586,2,65527,65535,0,0,0,0,0
1770,1762970114636,2,65529,0,0,0,0,0,0
1771,1762970114687,2,65530,0,0,0,0,0,0
1772,1762970114736,6,65527,65535,0,0,0,0,0
1773,1762970114936,4,65531,0,0,0,0,0,0
1774,1762970115053,3,65529,65535,0,0,0,0,0
1775,1762970115086,3,65528,0,0,0,0,0,0
1776,1762970115136,3,65529,65535,0,0,0,0,0
1777,1762970115186,3,65528,0,0,0,0,0,0
1778,1762970115287,3,65530,65535,0,0,0,0,0
1779,1762970115352,4,65528,0,0,0,0,0,0
1780,1762970115402,4,65528,65535,0,0,0,0,0
1781,1762970115435,2,65528,0,0,0,0,0,0
1782,1762970115485,3,65531,254,0,0,0,0,0
1783,1762970115520,3,65530,0,0,0,0,0,0
1784,1762970115635,5,65529,0,0,0,0,0,0
1785,1762970115736,1,65528,65280,0,0,0,0,0
1786,1762970115768,3,65529,1,0,0,0,0,0
1787,1762970115853,3,65530,0,0,0,0,0,0
1788,1762970115937,2,65529,65535,0,0,0,0,0
1789,1762970116069,2,65529,65535,0,0,0,0,0
1790,1762970116152,5,65530,0,3.31,0,0,0,0
1791,1762970116186,2,65528,0,0,0,0,0,0
1792,1762970116252,2,65530,0,0,0,0,0,0
1793,1762970116302,2,65530,0,0,0,0,0,0
1794,1762970116356,2,65529,1,0,0,0,0,0
1795,1762970116402,1,65529,65535,0,0,0,0,0
1796,1762970116469,3,65526,65534,0,0,0,0,0
1797,1762970116503,3,65528,0,0,0,0,0,0
1798,1762970116568,4,65529,65535,0,0,0,0,0
1799,1762970116635,4,65530,65535,0,0,0,0,0
1800,1762970116686,2,65528,0,0,0,0,0,0
1801,1762970116719,2,65530,0,0,0,0,0,0
1802,1762970116802,3,65529,65535,0,0,0,0,0
1803,1762970116902,3,65530,0,1,0,0,0,0
1804,1762970117119,3,65530,65535,0,0,0,0,0
1805,1762970117152,3,65529,65535,0,0,0,0,0
1806,1762970117218,3,65528,0,0,0,0,0,0
1807,1762970117268,3,65529,0,0,0,0,0,0
1808,1762970117372,3,65529,1,0,0,0,0,0
1809,1762970117434,2,65528,0,0,0,0,0,0
1810,1762970117501,3,65527,0,0,0,0,0,0
1811,1762970117569,3,65528,0,0,0,0,0,0
1812,1762970117601,4,65529,1,0,0,0,0,0
1813,1762970117651,4,65528,1,0,0,0,0,0
1814,1762970117701,2,65530,65535,0,0,0,0,0
1815,1762970117767,3,65528,0,0,0,0,0,0
1816,1762970117901,3,65529,0,0,0,0,0,0
1817,1762970117935,2,65529,65535,0,0,0,0,0
1818,1762970117984,3,65529,1,0,0,0,0,0
1819,1762970118034,3,65529,65534,0,0,0,0,0
1820,1762970118101,1,65528,65535,0,0,0,0,0
1821,1762970118151,1,65528,65535,0,0,0,0,0
1822,1762970118201,3,65528,0,0,0,0,0,0
1823,1762970118251,3,65528,65535,0,0,0,0,0
1824,1762970118317,2,65530,65535,0,0,0,0,0
1825,1762970118367,4,65529,65534,0,0,0,0,0
1826,1762970118418,3,65528,65535,0,0,0,0,0
1827,1762970118467,2,65529,0,0,0,0,0,0
1828,1762970118533,4,65527,1,0,0,0,0,0
1829,1762970118584,2,65529,65535,0,0,0,0,0
1830,1762970118651,2,65527,65535,0,0,0,0,0
1831,1762970118700,1,65531,0,0,0,0,0,0
1832,1762970118750,4,65530,65535,0,0,0,0,0
1833,1762970118800,4,65529,65535,0,0,0,0,0
1834,1762970118850,2,65530,0,0,0,0,0,0
1835,1762970118983,4,65529,65535,0,0,0,0,0
1836,1762970119033,2,65528,65535,0,0,0,0,0
1837,1762970119051,5,65528,65535,0,0,0,0,0
1838,1762970119166,4,65529,1,0,0,0,0,0
1839,1762970119249,2,65529,65535,0,0,0,0,0
1840,1762970119318,2,65529,65535,0,0,0,0,0
1841,1762970119416,2,65529,0,0,0,0,0,0
1842,1762970119466,3,65530,65280,0,0,0,0,0
1843,1762970119519,3,65530,65535,0,0,0,0,0
1844,1762970119566,4,65528,0,0,0,0,0,0
1845,1762970119618,2,65530,0,0,0,0,0,0
1846,1762970119682,3,65528,0,0,0,0,0,0
1847,1762970119716,3,65530,65535,0,0,0,0,0
1848,1762970119783,2,65529,0,0,0,0,0,0
1849,1762970119833,3,65529,0,0,0,0,0,0
1850,1762970119899,3,65529,1,0,0,0,0,0
1851,1762970119932,3,65528,1,0,0,0,0,0
1852,1762970120032,5,65529,0,0,0,0,0,0
1853,1762970120102,3,65529,0,0,0,0,0,0
1854,1762970120136,3,65529,0,0,0,0,0,0
1855,1762970120215,3,65528,65534,0,0,0,0,0
1856,1762970120266,4,65527,0,3.26,0,0,0,0
1857,1762970120365,4,65529,0,0,0,0,0,0
1858,1762970120465,3,65529,65535,0,0,0,0,0
1859,1762970120534,4,65530,0,0,0,0,0,0
1860,1762970120565,2,65529,1,0,0,0,0,0
1861,1762970120633,5,65527,0,0,0,0,0,0
1862,1762970120698,3,65529,65535,0,0,0,0,0
1863,1762970120765,4,65528,0,0,0,0,0,0
1864,1762970120816,2,65528,1,0,0,0,0,0
1865,1762970120931,3,65530,65535,0,0,0,0,0
1866,1762970120999,4,65528,65535,0,0,0,0,0
1867,1762970121098,3,65529,1,0,0,0,0,0
1868,1762970121115,2,65528,0,0,0,0,0,0
1869,1762970121216,2,65529,0,0,0,0,0,0
1870,1762970121248,3,65528,0,0,0,0,0,0
1871,1762970121315,5,65529,0,0,0,0,0,0
1872,1762970121347,3,65529,1,0,0,0,0,0
1873,1762970121415,3,65529,0,0,0,0,0,0
1874,1762970121448,6,65530,0,0,0,0,0,0
1875,1762970121530,2,65529,65535,0,0,0,0,0
1876,1762970121567,1,65529,65535,0,0,0,0,0
1877,1762970121664,3,65530,65535,0,0,0,0,0
1878,1762970121698,4,65529,0,0,0,0,0,0
1879,1762970121797,3,65530,1,0,0,0,0,0
1880,1762970121931,3,65528,0,0,0,0,0,0
1881,1762970121965,1,65529,65535,0,0,0,0,0
1882,1762970122014,2,65528,0,0,0,0,0,0
1883,1762970122080,3,65528,65535,0,0,0,0,0
1884,1762970122114,3,65530,65535,0,0,0,0,0
1885,1762970122198,4,65529,1,0,0,0,0,0
1886,1762970122230,3,65529,65535,0,0,0,0,0
1887,1762970122297,3,65528,65535,0,0,0,0,0
1888,1762970122330,3,65529,0,0,0,0,0,0
1889,1762970122414,2,65529,65535,0,0,0,0,0
1890,1762970122447,2,65528,65534,0,0,0,0,0
1891,1762970122514,3,65528,0,0,0,0,0,0
1892,1762970122564,2,65528,0,33193,0,0,0,0
1893,1762970122647,2,65530,0,0,0,0,0,0
1894,1762970122664,4,65527,0,0,0,0,0,0
1895,1762970122746,3,65528,0,0,0,0,0,0
1896,1762970122796,3,65527,0,1,0,0,0,0
1897,1762970122899,2,65528,65535,0,0,0,0,0
1898,1762970122947,4,65528,65535,0,0,0,0,0
1899,1762970122998,4,65530,0,3.31,0,0,0,0
1900,1762970123063,3,65528,1,0,0,0,0,0
1901,1762970123097,4,65528,65535,0,0,0,0,0
1902,1762970123179,1,65530,0,0,0,0,0,0
1903,1762970123213,3,65528,0,1,0,0,0,0
1904,1762970123297,2,65530,0,0,0,0,0,0
1905,1762970123329,4,65529,0,0,0,0,0,0
1906,1762970123396,4,65531,0,0,0,0,0,0
1907,1762970123463,3,65529,1,3.32,0,0,0,0
1908,1762970123529,2,65529,65534,0,0,0,0,0
1909,1762970123579,1,65529,0,0,0,0,0,0
1910,1762970123646,2,65528,0,0,0,0,0,0
1911,1762970123696,4,65529,0,0,0,0,0,0
1912,1762970123762,3,65527,0,0,0,0,0,0
1913,1762970123829,2,65531,0,0,0,0,0,0
1914,1762970123946,4,65531,65534,0,0,0,0,0
1915,1762970124095,3,65530,0,0,0,0,0,0
1916,1762970124195,2,65529,0,0,0,0,0,0
1917,1762970124278,2,65528,1,0,0,0,0,0
1918,1762970124312,2,65528,65535,0,0,0,0,0
1919,1762970124396,4,65528,65535,0,0,0,0,0
1920,1762970124445,3,65530,1,0,0,0,0,0
1921,1762970124545,2,65528,0,0,0,0,0,0
1922,1762970124578,2,65527,0,0,0,0,0,0
1923,1762970124628,5,65529,65535,0,0,0,0,0
1924,1762970124679,3,65530,0,0,0,0,0,0
1925,1762970124745,1,65531,65534,0,0,0,0,0
1926,1762970124795,3,65528,65535,0,0,0,0,0
1927,1762970124894,3,65529,0,0,0,0,0,0
1928,1762970124978,3,65527,65535,0,0,0,0,0
1929,1762970125011,4,65527,65535,0,0,0,0,0
1930,1762970125094,3,65528,0,0,0,0,0,0
1931,1762970125161,2,65529,0,0,0,0,0,0
1932,1762970125195,2,65527,0,0,0,0,0,0
1933,1762970125294,3,65527,65534,0,0,0,0,0
1934,1762970125344,1,65530,2,0,0,0,0,0
1935,1762970125411,5,65531,65535,0,0,0,0,0
1936,1762970125478,3,65528,65534,0,0,0,0,0
1937,1762970125527,3,65531,0,0,0,0,0,0
1938,1762970125644,2,65526,65533,0,0,0,0,0
1939,1762970125744,4,65527,0,0,0,0,0,0
1940,1762970125827,3,65529,0,0,0,0,0,0
1941,1762970125865,5,65528,65535,0,0,0,0,0
1942,1762970125993,4,65528,0,0,0,0,0,0
1943,1762970126060,4,65529,0,0,0,0,0,0
1944,1762970126093,4,65528,0,0,0,0,0,0
1945,1762970126179,2,65529,254,3.31,0,0,0,0
1946,1762970126261,2,65529,0,0,0,0,0,0
1947,1762970126311,3,65529,65535,0,0,0,0,0
1948,1762970126494,4,65530,65535,0,0,0,0,0
1949,1762970126528,3,65529,65535,0,0,0,0,0
1950,1762970126595,5,65529,0,0,0,0,0,0
1951,1762970126661,3,65529,65535,0,0,0,0,0
1952,1762970126728,4,65529,65535,0,0,0,0,0
1953,1762970126793,3,65528,65535,0,0,0,0,0
1954,1762970126844,2,65528,0,0,0,0,0,0
1955,1762970126910,3,65530,0,0,0,0,0,0
1956,1762970126977,5,65530,0,0,0,0,0,0
1957,1762970127061,3,65528,1,3.31,0,0,0,0
1958,1762970127194,3,65527,0,0,0,0,0,0
1959,1762970127260,3,65527,0,0,0,0,0,0
1960,1762970127308,2,65528,1,0,0,0,0,0
1961,1762970127426,3,65529,65535,0,0,0,0,0
1962,1762970127442,3,65528,65535,0,0,0,0,0
1963,1762970127492,3,65529,0,0,0,0,0,0
1964,1762970127576,3,65526,0,0,0,0,0,0
1965,1762970127692,2,65529,0,0,0,0,0,0
1966,1762970127742,4,65528,65535,0,0,0,0,0
1967,1762970127842,4,65530,0,0,0,0,0,0
1968,1762970127875,5,65528,0,0,0,0,0,0
1969,1762970127975,3,65529,0,0,0,0,0,0
1970,1762970127992,4,65530,0,0,0,0,0,0
1971,1762970128159,2,65527,0,0,0,0,0,0
1972,1762970128275,2,65529,0,0,0,0,0,0
1973,1762970128342,4,65529,1,0,0,0,0,0
1974,1762970128376,2,65527,0,0,0,0,0,0
1975,1762970128509,1,65528,0,0,0,0,0,0
1976,1762970128530,3,65529,0,0,0,0,0,0
1977,1762970128626,4,65529,0,0,0,0,0,0
1978,1762970128691,1,65529,65535,1,0,0,0,0
1979,1762970128742,3,65529,1,0,0,0,0,0
1980,1762970128991,2,65529,65535,0,0,0,0,0
1981,1762970129042,1,65528,65535,0,0,0,0,0
1982,1762970129107,5,65528,65535,0,0,0,0,0
1983,1762970129174,2,65529,1,1,0,0,0,0
1984,1762970129241,2,65529,0,0,0,0,0,0
1985,1762970129292,2,65530,0,0,0,0,0,0
1986,1762970129475,5,65530,65535,0,0,0,0,0
1987,1762970129591,3,65529,1,0,0,0,0,0
1988,1762970129991,3,65530,1,0,0,0,0,0
1989,1762970130323,3,65530,0,0,0,0,0,0
1990,1762970130890,3,65528,0,0,0,0,0,0
1991,1762970131042,4,65529,65535,0,0,0,0,0
1992,1762970131157,4,65528,1,0,0,0,0,0
1993,1762970131257,4,65530,65535,0,0,0,0,0
1994,1762970131356,4,65528,0,0,0,0,0,0
1995,1762970131457,3,65528,65535,0,0,0,0,0
1996,1762970131507,2,65530,0,0,0,0,0,0
1997,1762970131557,4,65529,0,0,0,0,0,0
1998,1762970131589,3,65529,65535,0,0,0,0,0
1999,1762970131673,3,65529,1,3.32,0,0,0,0
2000,1762970131856,4,65529,0,0,0,0,0,0
2001,1762970131939,4,65529,65535,0,0,0,0,0
2002,1762970131989,4,65529,65535,0,0,0,0,0
2003,1762970132022,3,65529,65535,0,0,0,0,0
2004,1762970132122,3,65530,0,3.32,0,0,0,0
2005,1762970132172,4,65529,1,0,0,0,0,0
2006,1762970132222,4,65530,65534,0,0,0,0,0
2007,1762970132289,3,65528,0,0,0,0,0,0
2008,1762970132355,4,65530,65535,0,0,0,0,0
2009,1762970132405,1,65529,65535,0,0,0,0,0
2010,1762970132455,4,65530,65535,0,0,0,0,0
2011,1762970132522,2,65531,0,0,0,0,0,0
2012,1762970132589,4,65529,0,33193,0,0,0,0
2013,1762970132705,2,65527,0,0,0,0,0,0
2014,1762970132789,4,65529,0,0,0,0,0,0
2015,1762970132821,2,65528,0,0,0,0,0,0
2016,1762970132888,3,65529,0,0,0,0,0,0
2017,1762970132955,3,65528,65535,114,0,0,0,0
2018,1762970133038,2,65530,0,0,0,0,0,0
2019,1762970133088,1,65529,1,0,0,0,0,0
2020,1762970133122,2,65531,65534,0,0,0,0,0
2021,1762970133205,2,65529,65534,0,0,0,0,0
2022,1762970133238,3,65529,65535,0,0,0,0,0
2023,1762970133304,2,65529,0,0,0,0,0,0
2024,1762970133338,3,65528,65535,0,0,0,0,0
2025,1762970133422,2,65529,0,0,0,0,0,0
2026,1762970133521,4,65530,1,3.32,0,0,0,0
2027,1762970133556,3,65529,0,0,0,0,0,0
2028,1762970133622,3,65528,0,1,0,0,0,0
2029,1762970133656,3,65528,1,0,0,0,0,0
2030,1762970133755,0,65527,65535,0,0,0,0,0
2031,1762970133787,1,65528,65535,0,0,0,0,0
2032,1762970133870,4,65526,0,0,0,0,0,0
2033,1762970133938,1,65528,1,0,0,0,0,0
2034,1762970133987,2,65528,0,0,0,0,0,0
2035,1762970134037,3,65530,0,166,0,0,0,0
2036,1762970134087,4,65529,1,0,0,0,0,0
2037,1762970134156,3,65528,65534,0,0,0,0,0
2038,1762970134221,1,65528,0,0,0,0,0,0
2039,1762970134337,1,65529,0,3.26,0,0,0,0
2040,1762970134470,2,65529,0,0,0,0,0,0
2041,1762970134653,3,65530,0,0,0,0,0,0
2042,1762970134687,4,65528,0,0,0,0,0,0
2043,1762970134753,2,65530,0,0,0,0,0,0
2044,1762970134819,4,65528,65535,0,0,0,0,0
2045,1762970134986,4,65528,1,0,0,0,0,0
2046,1762970135104,4,65530,0,0,0,0,0,0
2047,1762970135187,2,65529,0,0,0,0,0,0
2048,1762970135220,1,65528,1,0,0,0,0,0
2049,1762970135320,3,65529,65534,0,0,0,0,0
2050,1762970135370,2,65528,0,0,0,0,0,0
2051,1762970135452,2,65528,65535,0,0,0,0,0
2052,1762970135554,0,65529,65534,0,0,0,0,0
2053,1762970135619,6,65529,65535,0,0,0,0,0
2054,1762970135686,4,65530,0,0,0,0,0,0
2055,1762970135853,3,65529,1,0,0,0,0,0
2056,1762970135869,3,65530,65535,0,0,0,0,0
2057,1762970135969,2,65528,65534,0,0,0,0,0
2058,1762970135985,4,65527,0,0,0,0,0,0
2059,1762970136069,2,65529,0,280,0,0,0,0
2060,1762970136152,2,65530,65534,597,0,0,0,0
2061,1762970136202,4,65529,0,0,0,0,0,0
2062,1762970136286,4,65528,65534,0,0,0,0,0
2063,1762970136335,4,65528,65535,0,0,0,0,0
2064,1762970136468,2,65528,0,0,0,0,0,0
2065,1762970136536,4,65529,0,0,0,0,0,0
2066,1762970136585,4,65528,65535,280,0,0,0,0
2067,1762970136668,3,65529,65535,33196,0,0,0,0
2068,1762970136768,2,65529,65535,0,0,0,0,0
2069,1762970136835,4,65527,0,0,0,0,0,0
2070,1762970136951,2,65530,0,0,0,0,0,0
2071,1762970136985,2,65528,65535,0,0,0,0,0
2072,1762970137219,3,65529,65535,0,0,0,0,0
2073,1762970137302,3,65529,0,0,0,0,0,0
2074,1762970137418,4,65529,0,0,0,0,0,0
2075,1762970137451,1,65528,65535,0,0,0,0,0
2076,1762970137584,3,65528,65535,0,0,0,0,0
2077,1762970137634,4,65529,0,3.32,0,0,0,0
2078,1762970137768,4,65530,1,0,0,0,0,0
2079,1762970137800,3,65528,1,0,0,0,0,0
2080,1762970137851,2,65528,65535,0,0,0,0,0
2081,1762970137917,1,65530,65535,0,0,0,0,0
2082,1762970137951,3,65529,0,0,0,0,0,0
2083,1762970138084,4,65529,0,0,0,0,0,0
2084,1762970138167,3,65527,0,0,0,0,0,0
2085,1762970138201,3,65528,1,0,0,0,0,0
2086,1762970138267,3,65528,0,0,0,0,0,0
2087,1762970138333,3,65528,0,280,0,0,0,0
2088,1762970138384,3,65530,0,0,0,0,0,0
2089,1762970138519,3,65528,0,0,0,0,0,0
2090,1762970138600,2,65529,0,0,0,0,0,0
2091,1762970138618,4,65530,65535,0,0,0,0,0
2092,1762970138733,3,65528,65535,0,0,0,0,0
2093,1762970138767,4,65528,0,0,0,0,0,0
2094,1762970138833,1,65531,1,0,0,0,0,0
2095,1762970138933,4,65528,65535,280,0,0,0,0
2096,1762970139050,2,65529,0,0,0,0,0,0
2097,1762970139065,5,65529,65535,0,0,0,0,0
2098,1762970139166,2,65531,1,0,0,0,0,0
2099,1762970139266,3,65530,1,0,0,0,0,0
2100,1762970139284,5,65527,65535,0,0,0,0,0
2101,1762970139432,3,65528,1,280,0,0,0,0
2102,1762970139498,3,65528,65534,0,0,0,0,0
2103,1762970139598,5,65527,1,0,0,0,0,0
2104,1762970139681,2,65530,1,0,0,0,0,0
2105,1762970139715,3,65529,65535,0,0,0,0,0
2106,1762970139782,4,65529,65534,0,0,0,0,0
2107,1762970139883,2,65530,2,0,0,0,0,0
2108,1762970139966,5,65528,65534,0,0,0,0,0
2109,1762970140064,3,65529,1,0,0,0,0,0
2110,1762970140098,2,65531,0,0,0,0,0,0
2111,1762970140164,2,65528,65535,0,0,0,0,0
2112,1762970140198,2,65530,65535,280,0,0,0,0
2113,1762970140347,4,65529,0,562,0,0,0,0
2114,1762970140380,3,65528,65535,0,0,0,0,0
2115,1762970140499,3,65530,0,0,0,0,0,0
2116,1762970140583,3,65528,1,0,0,0,0,0
2117,1762970140614,3,65528,65535,0,0,0,0,0
2118,1762970140714,4,65528,0,0,0,0,0,0
2119,1762970140814,3,65529,1,280,0,0,0,0
2120,1762970140880,3,65529,0,0,0,0,0,0
2121,1762970140897,3,65529,65535,597,0,0,0,0
2122,1762970141014,2,65528,65535,0,0,0,0,0
2123,1762970141047,4,65528,1,0,0,0,0,0
2124,1762970141113,3,65527,65535,0,0,0,0,0
2125,1762970141147,2,65528,0,3.31,0,0,0,0
2126,1762970141246,2,65531,0,0,0,0,0,0
2127,1762970141296,3,65529,0,280,0,0,0,0
2128,1762970141363,2,65530,0,0,0,0,0,0
2129,1762970141413,2,65529,1,0,0,0,0,0
2130,1762970141497,4,65528,0,0,0,0,0,0
2131,1762970141563,1,65528,65535,562,0,0,0,0
2132,1762970141630,4,65527,65535,0,0,0,0,0
2133,1762970141764,2,65528,0,0,0,0,0,0
2134,1762970141912,3,65527,65535,0,0,0,0,0
2135,1762970141995,2,65529,65535,280,0,0,0,0
2136,1762970142149,3,65530,1,0,0,0,0,0
2137,1762970142229,3,65529,0,0,0,0,0,0
2138,1762970142280,4,65528,0,0,0,0,0,0
2139,1762970142346,3,65528,0,0,0,0,0,0
2140,1762970142413,4,65529,0,280,0,0,0,0
2141,1762970142464,3,65530,0,0,0,0,0,0
2142,1762970142581,2,65529,0,597,0,0,0,0
2143,1762970142664,3,65527,0,33197,0,0,0,0
2144,1762970142765,2,65529,65535,562,0,0,0,0
2145,1762970142879,4,65529,0,0,0,0,0,0
2146,1762970142946,1,65530,0,0,0,0,0,0
2147,1762970142979,2,65528,0,0,0,0,0,0
2148,1762970143095,3,65530,1,3.28,0,0,0,0
2149,1762970143162,3,65528,0,597,0,0,0,0
2150,1762970143182,2,65529,65535,280,0,0,0,0
2151,1762970143229,3,65528,0,0,0,0,0,0
2152,1762970143295,2,65529,0,0,0,0,0,0
2153,1762970143346,3,65530,65535,0,0,0,0,0
2154,1762970143529,3,65529,1,0,0,0,0,0
2155,1762970143596,4,65530,0,0,0,0,0,0
2156,1762970143629,1,65530,65535,0,0,0,0,0
2157,1762970143745,2,65527,65535,0,0,0,0,0
2158,1762970143778,3,65530,0,0,0,0,0,0
2159,1762970143879,4,65528,0,0,0,0,0,0
2160,1762970143895,3,65528,0,0,0,0,0,0
2161,1762970143999,4,65528,65535,0,0,0,0,0
2162,1762970144077,65535,65526,65535,280,0,0,0,0
2163,1762970144179,3,65529,65534,0,0,0,0,0
2164,1762970144228,4,65530,0,0,0,0,0,0
2165,1762970144312,4,65530,1,0,0,0,0,0
2166,1762970144344,2,65530,65535,0,0,0,0,0
2167,1762970144445,3,65528,65534,0,0,0,0,0
2168,1762970144477,3,65528,1,0,0,0,0,0
2169,1762970144545,5,65529,0,0,0,0,0,0
2170,1762970144611,3,65528,0,0,0,0,0,0
2171,1762970144661,2,65528,65535,0,0,0,0,0
2172,1762970144712,1,65527,0,280,0,0,0,0
2173,1762970147892,1,65528,0,0,0,0,0,0
2174,1762970147942,4,65528,0,0,0,0,0,0
2175,1762970147993,3,65529,65535,0,0,0,0,0
2176,1762970148026,3,65528,65535,0,0,0,0,0
2177,1762970148108,1,65530,0,0,0,0,0,0
2178,1762970148175,6,65526,65535,0,0,0,0,0
2179,1762970148226,3,65531,65534,0,0,0,0,0
2180,1762970148292,4,65532,1,0,0,0,0,0
2181,1762970148326,3,65530,2,0,0,0,0,0
2182,1762970148393,4,65530,0,0,0,0,0,0
2183,1762970148459,4,65529,65535,0,0,0,0,0
2184,1762970148558,3,65529,1,0,0,0,0,0
2185,1762970148592,4,65531,0,0,0,0,0,0
2186,1762970148675,2,65528,65535,0,0,0,0,0
2187,1762970148758,3,65527,65535,3.28,0,0,0,0
2188,1762970148941,2,65530,0,0,0,0,0,0
2189,1762970148992,2,65529,0,0,0,0,0,0
2190,1762970149042,4,65529,0,0,0,0,0,0
2191,1762970149091,1,65528,0,0,0,0,0,0
2192,1762970149109,3,65528,65535,0,0,0,0,0
2193,1762970149192,2,65527,1,3.31,0,0,0,0
2194,1762970149325,1,65527,0,0,0,0,0,0
2195,1762970149441,3,65529,65535,0,0,0,0,0
2196,1762970149508,4,65527,0,0,0,0,0,0
2197,1762970149541,4,65529,0,0,0,0,0,0
2198,1762970149590,4,65529,0,0,0,0,0,0
2199,1762970149675,3,65529,0,0,0,0,0,0
2200,1762970149726,2,65528,65535,0,0,0,0,0
2201,1762970149757,4,65530,0,0,0,0,0,0
2202,1762970149825,4,65528,65535,0,0,0,0,0
2203,1762970149940,3,65529,0,0,0,0,0,0
2204,1762970150025,3,65530,255,0,0,0,0,0
2205,1762970150057,3,65531,1,0,0,0,0,0
2206,1762970150107,3,65528,0,0,0,0,0,0
2207,1762970150145,3,65528,65535,3.28,0,0,0,0
2208,1762970150224,3,65528,1,0,0,0,0,0
2209,1762970150274,3,65530,65535,0,0,0,0,0
2210,1762970150307,5,65528,0,0,0,0,0,0
2211,1762970150391,1,65529,65535,0,0,0,0,0
2212,1762970150445,3,65529,65534,0,0,0,0,0
2213,1762970150490,2,65528,65535,0,0,0,0,0
2214,1762970150524,2,65530,0,0,0,0,0,0
2215,1762970150624,3,65529,0,0,0,0,0,0
2216,1762970150723,3,65529,0,0,0,0,0,0
2217,1762970150758,3,65530,65280,0,0,0,0,0
2218,1762970150859,2,65529,65535,0,0,0,0,0
2219,1762970151023,4,65528,0,0,0,0,0,0
2220,1762970151058,3,65531,65535,0,0,0,0,0
2221,1762970151123,4,65527,0,0,0,0,0,0
2222,1762970151139,2,65528,0,0,0,0,0,0
2223,1762970151207,3,65529,0,0,0,0,0,0
2224,1762970151274,4,65530,0,0,0,0,0,0
2225,1762970151306,65535,65527,65534,0,0,0,0,0
2226,1762970151373,7,65529,0,0,0,0,0,0
2227,1762970151422,2,65530,1,0,0,0,0,0
2228,1762970151506,3,65528,65535,0,0,0,0,0
2229,1762970151539,5,65529,1,0,0,0,0,0
2230,1762970151605,2,65532,1,0,0,0,0,0
2231,1762970151639,3,65532,0,0,0,0,0,0
2232,1762970151855,2,65531,65534,0,0,0,0,0
2233,1762970151875,4,65532,0,0,0,0,0,0
2234,1762970152189,1,65528,65535,0,0,0,0,0
2235,1762970152239,2,65527,65535,0,0,0,0,0
2236,1762970152290,4,65528,0,0,0,0,0,0
2237,1762970152490,3,65530,0,0,0,0,0,0
2238,1762970152522,3,65527,0,0,0,0,0,0
2239,1762970152605,2,65529,1,0,0,0,0,0
2240,1762970152640,3,65529,0,0,0,0,0,0
2241,1762970152721,3,65528,65534,0,0,0,0,0
2242,1762970152754,3,65529,0,0,0,0,0,0
2243,1762970152805,3,65530,65535,0,0,0,0,0
2244,1762970153055,4,65527,1,0,0,0,0,0
2245,1762970153089,1,65530,65535,0,0,0,0,0
2246,1762970153139,4,65528,0,0,0,0,0,0
2247,1762970153171,4,65530,0,0,0,0,0,0
2248,1762970153222,4,65531,65535,0,0,0,0,0
2249,1762970153355,4,65530,2,0,0,0,0,0
2250,1762970153389,3,65535,0,0,0,0,0,0
2251,1762970153471,7,65535,0,0,0,0,0,0
2252,1762970153521,2,65533,1,0,0,0,0,0
2253,1762970153604,2,65531,1,0,0,0,0,0
2254,1762970153705,3,65530,0,0,0,0,0,0
2255,1762970153788,4,65528,0,0,0,0,0,0
2256,1762970153837,4,65527,0,0,0,0,0,0
2257,1762970153887,6,65526,65535,0,0,0,0,0
2258,1762970153955,1,65529,65535,0,0,0,0,0
2259,1762970154038,3,65532,1,0,0,0,0,0
2260,1762970154087,1,65528,65535,0,0,0,0,0
2261,1762970154154,4,65529,0,0,0,0,0,0
2262,1762970154220,1,65531,1,3.32,0,0,0,0
2263,1762970154269,3,65529,0,0,0,0,0,0
2264,1762970154321,5,65532,65534,0,0,0,0,0
2265,1762970154370,1,65529,65535,0,0,0,0,0
2266,1762970154419,6,65530,0,0,0,0,0,0
2267,1762970154504,2,65530,0,0,0,0,0,0
2268,1762970154537,5,65529,65535,0,0,0,0,0
2269,1762970154636,1,65532,65535,0,0,0,0,0
2270,1762970154787,2,65524,65535,0,0,0,0,0
2271,1762970154853,1,65524,0,0,0,0,0,0
2272,1762970154887,65510,65523,65535,0,0,0,0,0
2273,1762970154953,4,65531,65535,0,0,0,0,0
2274,1762970154986,65533,65530,5,0,0,0,0,0
2275,1762970155069,5,65521,65534,0,0,0,0,0
2276,1762970155153,65530,65522,0,0,0,0,0,0
2277,1762970155203,65518,65522,65535,0,0,0,0,0
2278,1762970155254,4,5,0,0,0,0,0,0
2279,1762970155303,3,65522,0,0,0,0,0,0
2280,1762970155368,5,65518,1,0,0,0,0,0
2281,1762970155419,2,65524,65534,0,0,0,0,0
2282,1762970155470,3,3,65535,0,0,0,0,0
2283,1762970155519,6,65535,0,0,0,0,0,0
2284,1762970155619,6,65520,4,3.32,0,0,0,0
2285,1762970155669,6,21,1,0,0,0,0,0
2286,1762970155719,19,65533,1,0,0,0,0,0
2287,1762970155786,254,65529,1,0,0,0,0,0
2288,1762970155836,65535,65524,65534,0,0,0,0,0
2289,1762970156018,0,65530,1,0,0,0,0,0
2290,1762970156052,12,3,65535,0,0,0,0,0
2291,1762970156119,65521,65528,65533,0,0,0,0,0
2292,1762970156152,4,65519,1,0,0,0,0,0
2293,1762970156236,65535,19,4,0,0,0,0,0
2294,1762970156252,65535,4,2,0,0,0,0,0
2295,1762970156302,65535,65520,65534,0,0,0,0,0
2296,1762970156352,65520,65517,65533,0,0,0,0,0
2297,1762970156419,21,28,18,0,0,0,0,0
2298,1762970156453,11,65522,1,0,0,0,0,0
2299,1762970156536,4,65529,65535,0,0,0,0,0
2300,1762970156651,0,65533,0,0,0,0,0,0
2301,1762970156751,3,65530,0,0,0,0,0,0
2302,1762970156800,1,65530,65535,0,0,0,0,0
2303,1762970156919,3,65530,0,0,0,0,0,0
2304,1762970157034,6,65521,65534,0,0,0,0,0
2305,1762970157168,7,65534,0,0,0,0,0,0
2306,1762970157268,2,65533,65535,0,0,0,0,0
2307,1762970157334,3,0,3,0,0,0,0,0
2308,1762970157418,21,15,65529,3.32,0,0,0,0
2309,1762970157451,9,65521,65533,0,0,0,0,0
2310,1762970157518,3,65532,0,0,0,0,0,0
2311,1762970157567,0,1,1,0,0,0,0,0
2312,1762970157634,5,65525,0,0,0,0,0,0
2313,1762970157751,65535,65535,2,0,0,0,0,0
2314,1762970157784,65534,65524,6,0,0,0,0,0
2315,1762970158035,4,65528,65533,0,0,0,0,0
2316,1762970158100,0,65529,3,0,0,0,0,0
2317,1762970158150,2,65531,65531,0,0,0,0,0
2318,1762970158334,65531,65527,65531,0,0,0,0,0
2319,1762970158882,3,5,8,0,0,0,0,0
2320,1762970158932,6,65523,65534,0,0,0,0,0
2321,1762970159034,12,65524,65530,0,0,0,0,0
2322,1762970159150,5,65531,65534,0,0,0,0,0
2323,1762970159533,3,65510,65530,0,0,0,0,0
2324,1762970159583,65528,65527,65534,0,0,0,0,0
2325,1762970159783,3,11,0,0,0,0,0,0
2326,1762970159832,65533,65529,65535,0,0,0,0,0
2327,1762970159932,65530,65531,65535,0,0,0,0,0
2328,1762970160132,4,65507,65535,0,0,0,0,0
2329,1762970160249,8,7,1,0,0,0,0,0
2330,1762970160315,3,65533,2,0,0,0,0,0
2331,1762970160381,4,65525,0,0,0,0,0,0
2332,1762970160433,3,65531,65535,0,0,0,0,0
2333,1762970160548,4,65530,0,0,0,0,0,0
2334,1762970160732,3,65528,65535,0,0,0,0,0
2335,1762970160749,2,65529,0,0,0,0,0,0
2336,1762970160799,3,65527,65535,0,0,0,0,0
2337,1762970160847,3,65528,1,0,0,0,0,0
2338,1762970160966,2,65528,0,0,0,0,0,0
2339,1762970161049,3,65528,0,0,0,0,0,0
2340,1762970161064,3,65527,0,0,0,0,0,0
2341,1762970161138,2,65530,0,0,0,0,0,0
2342,1762970161200,3,65527,0,0,0,0,0,0
2343,1762970161268,2,65530,0,0,0,0,0,0
2344,1762970161307,3,65529,1,0,0,0,0,0
2345,1762970161371,4,65529,1,0,0,0,0,0
2346,1762970161417,1,65528,65534,0,0,0,0,0
2347,1762970161583,3,65529,0,0,0,0,0,0
2348,1762970161599,5,65530,65535,0,0,0,0,0
2349,1762970161666,5,65530,1,0,0,0,0,0
2350,1762970161783,1,65527,1,0,0,0,0,0
2351,1762970161849,0,65530,0,0,0,0,0,0
2352,1762970161949,2,65527,65535,0,0,0,0,0
2353,1762970162098,2,65528,2,0,0,0,0,0
2354,1762970162165,4,10,65533,0,0,0,0,0
2355,1762970162198,5,65525,65535,0,0,0,0,0
2356,1762970162317,5,65525,65534,0,0,0,0,0
2357,1762970162386,3,7,1,0,0,0,0,0
2358,1762970162451,65531,65529,0,33199,0,0,0,0
2359,1762970162550,0,65513,9,0,0,0,0,0
2360,1762970162615,65532,65514,1,0,0,0,0,0
2361,1762970162682,65534,65531,2,0,0,0,0,0
2362,1762970162733,1,8,2,0,0,0,0,0
2363,1762970162814,16,18,65527,0,0,0,0,0
2364,1762970162865,6,65526,65534,3.28,0,0,0,0
2365,1762970162981,9,65533,65534,0,0,0,0,0
2366,1762970163047,3,65528,65535,0,0,0,0,0
2367,1762970163096,4,65528,65534,0,0,0,0,0
2368,1762970163130,3,65528,0,0,0,0,0,0
2369,1762970163147,3,65530,0,0,0,0,0,0
2370,1762970163180,3,65527,65535,0,0,0,0,0
2371,1762970163263,1,65528,65535,0,0,0,0,0
2372,1762970163329,3,65529,0,0,0,0,0,0
2373,1762970163399,3,65529,65535,0,0,0,0,0
2374,1762970163480,2,65526,0,0,0,0,0,0
2375,1762970163613,4,65527,0,0,0,0,0,0
2376,1762970163663,3,65529,0,0,0,0,0,0
2377,1762970163746,4,65529,0,0,0,0,0,0
2378,1762970163879,65533,65527,0,0,0,0,0,0
2379,1762970163948,65534,65528,65535,0,0,0,0,0
2380,1762970163979,65535,65525,1,0,0,0,0,0
2381,1762970164062,2,65527,0,0,0,0,0,0
2382,1762970164097,4,65528,65535,0,0,0,0,0
2383,1762970164164,1,65526,0,0,0,0,0,0
2384,1762970164229,3,65529,0,0,0,0,0,0
2385,1762970164278,1,65527,65535,0,0,0,0,0
2386,1762970164396,3,65530,1,0,0,0,0,0
2387,1762970164513,4,65529,65535,0,0,0,0,0
2388,1762970164546,4,65530,65534,0,0,0,0,0
2389,1762970164629,3,65529,0,0,0,0,0,0
2390,1762970164646,5,65529,0,0,0,0,0,0
2391,1762970164745,3,65529,65535,0,0,0,0,0
2392,1762970164845,2,65529,65534,0,0,0,0,0
2393,1762970164895,3,65529,65534,0,0,0,0,0
2394,1762970164962,3,65528,0,0,0,0,0,0
2395,1762970164995,5,65530,2,0,0,0,0,0
2396,1762970165045,2,65535,3,0,0,0,0,0
2397,1762970165180,3,65529,65535,33199,0,0,0,0
2398,1762970165246,3,65530,2,0,0,0,0,0
2399,1762970165279,1,65528,1,0,0,0,0,0
2400,1762970165361,2,65528,0,0,0,0,0,0
2401,1762970165394,2,65529,65535,0,0,0,0,0
2402,1762970165478,3,65528,0,0,0,0,0,0
2403,1762970165529,4,65529,0,0,0,0,0,0
2404,1762970165610,5,65528,65534,3.26,0,0,0,0
2405,1762970165660,3,65529,0,0,0,0,0,0
2406,1762970165729,2,65530,1,0,0,0,0,0
2407,1762970165843,3,65529,65535,0,0,0,0,0
2408,1762970165981,1,65529,65535,0,0,0,0,0
2409,1762970165981,3,65530,0,0,0,0,0,0
2410,1762970166043,3,65529,65535,0,0,0,0,0
2411,1762970166143,5,65529,0,0,0,0,0,0
2412,1762970166211,3,65527,1,0,0,0,0,0
2413,1762970166260,3,65527,0,0,0,0,0,0
2414,1762970166331,3,65530,0,0,0,0,0,0
2415,1762970166357,4,65529,1,0,0,0,0,0
2416,1762970166441,4,65530,0,0,0,0,0,0
2417,1762970166485,2,65530,0,3.31,0,0,0,0
2418,1762970166610,1,65530,0,0,0,0,0,0
2419,1762970166677,3,65529,65535,0,0,0,0,0
2420,1762970166761,3,65528,0,0,0,0,0,0
2421,1762970166826,2,65528,65535,0,0,0,0,0
2422,1762970166844,2,65528,0,0,0,0,0,0
2423,1762970166927,3,65529,1,0,0,0,0,0
2424,1762970167042,2,65531,65534,0,0,0,0,0
2425,1762970167110,4,65529,0,0,0,0,0,0
2426,1762970167159,5,65530,2,0,0,0,0,0
2427,1762970167260,2,65528,65534,0,0,0,0,0
2428,1762970167342,3,65529,1,0,0,0,0,0
2429,1762970167378,1,65528,0,0,0,0,0,0
2430,1762970167527,1,65529,65533,0,0,0,0,0
2431,1762970167611,4,65529,0,0,0,0,0,0
2432,1762970167694,2,65530,1,0,0,0,0,0
2433,1762970167760,2,65528,65535,0,0,0,0,0
2434,1762970167877,4,65528,65534,0,0,0,0,0
2435,1762970168043,4,65529,0,0,0,0,0,0
2436,1762970168160,2,65528,65535,0,0,0,0,0
2437,1762970168177,3,65528,65535,0,0,0,0,0
2438,1762970168260,2,65526,1,0,0,0,0,0
2439,1762970168361,3,65530,0,0,0,0,0,0
2440,1762970168410,2,65528,0,0,0,0,0,0
2441,1762970168477,4,65529,0,0,0,0,0,0
2442,1762970168593,3,65530,65535,0,0,0,0,0
2443,1762970168644,4,65529,0,0,0,0,0,0
2444,1762970168726,3,65528,0,0,0,0,0,0
2445,1762970168809,3,65529,1,0,0,0,0,0
2446,1762970168909,3,65528,0,0,0,0,0,0
2447,1762970169009,2,65529,65535,0,0,0,0,0
2448,1762970169042,4,65528,65535,0,0,0,0,0
2449,1762970169092,2,65530,1,0,0,0,0,0
2450,1762970169126,3,65530,65535,0,0,0,0,0
2451,1762970169226,2,65529,0,3.31,0,0,0,0
2452,1762970169293,3,65530,0,0,0,0,0,0
2453,1762970169359,3,65528,0,0,0,0,0,0
2454,1762970169409,4,65530,65535,0,0,0,0,0
2455,1762970169461,2,65527,65535,0,0,0,0,0
2456,1762970169609,2,65528,65534,0,0,0,0,0
2457,1762970169725,3,65530,65535,3.26,0,0,0,0
2458,1762970169843,3,65529,1,0,0,0,0,0
2459,1762970169859,3,65530,65535,0,0,0,0,0
2460,1762970169960,4,65529,65535,0,0,0,0,0
2461,1762970170042,4,65529,1,0,0,0,0,0
2462,1762970170091,1,65530,2,0,0,0,0,0
2463,1762970170142,1,65529,65534,0,0,0,0,0
2464,1762970170158,5,65530,0,0,0,0,0,0
2465,1762970170193,2,65529,0,0,0,0,0,0
2466,1762970170241,2,65530,1,0,0,0,0,0
2467,1762970170310,2,65527,0,0,0,0,0,0
2468,1762970170342,4,65529,65535,0,0,0,0,0
2469,1762970170459,3,65530,0,0,0,0,0,0
2470,1762970170574,2,65528,0,0,0,0,0,0
2471,1762970170658,2,65528,65535,0,0,0,0,0
2472,1762970170774,2,65528,1,0,0,0,0,0
2473,1762970170892,3,65529,65535,0,0,0,0,0
2474,1762970171007,5,65529,2,0,0,0,0,0
2475,1762970171124,2,65529,65534,0,0,0,0,0
2476,1762970171190,3,65527,65535,0,0,0,0,0
2477,1762970171241,3,65527,65535,0,0,0,0,0
2478,1762970171307,3,65530,1,0,0,0,0,0
2479,1762970171356,3,65528,0,0,0,0,0,0
2480,1762970171422,3,65529,0,0,0,0,0,0
2481,1762970171490,4,65529,1,0,0,0,0,0
2482,1762970171543,3,65530,0,33200,0,0,0,0
2483,1762970171607,4,65529,1,0,0,0,0,0
2484,1762970171643,4,65530,0,0,0,0,0,0
2485,1762970171724,4,65529,0,0,0,0,0,0
2486,1762970171793,3,65528,0,0,0,0,0,0
2487,1762970171857,3,65527,65534,0,0,0,0,0
2488,1762970171890,2,65528,65535,0,0,0,0,0
2489,1762970171992,2,65530,0,0,0,0,0,0
2490,1762970172058,3,65530,0,0,0,0,0,0
2491,1762970172106,4,65529,1,0,0,0,0,0
2492,1762970172156,4,65528,65535,0,0,0,0,0
2493,1762970172257,4,65530,65535,0,0,0,0,0
2494,1762970172305,3,65529,1,0,0,0,0,0
2495,1762970172358,2,65529,65535,0,0,0,0,0
2496,1762970172422,3,65530,0,3.28,0,0,0,0
2497,1762970172508,3,65529,65535,0,0,0,0,0
2498,1762970172539,3,65529,65535,0,0,0,0,0
2499,1762970172621,2,65528,65535,0,0,0,0,0
2500,1762970172690,4,65530,0,0,0,0,0,0
2501,1762970172756,3,65529,0,0,0,0,0,0
2502,1762970172773,1,65529,0,0,0,0,0,0
2503,1762970172857,4,65530,65535,0,0,0,0,0
2504,1762970172957,3,65528,0,0,0,0,0,0
2505,1762970173006,2,65529,65535,0,0,0,0,0
2506,1762970173040,3,65528,0,0,0,0,0,0
2507,1762970173105,4,65529,0,0,0,0,0,0
2508,1762970173155,2,65528,1,0,0,0,0,0
2509,1762970173187,1,65528,0,0,0,0,0,0
2510,1762970173256,3,65529,0,0,0,0,0,0
2511,1762970173289,3,65530,65535,0,0,0,0,0
2512,1762970173389,3,65529,65535,0,0,0,0,0
2513,1762970173439,3,65530,0,0,0,0,0,0
2514,1762970173506,3,65528,0,0,0,0,0,0
2515,1762970173538,4,65530,0,0,0,0,0,0
2516,1762970173638,2,65529,0,0,0,0,0,0
2517,1762970173656,2,65527,0,0,0,0,0,0
2518,1762970173738,3,65528,1,0,0,0,0,0
2519,1762970173772,2,65529,65535,0,0,0,0,0
2520,1762970173944,3,65529,65535,0,0,0,0,0
2521,1762970173987,1,65530,0,0,0,0,0,0
2522,1762970174108,4,65529,0,0,0,0,0,0
2523,1762970174186,2,65529,65535,0,0,0,0,0
2524,1762970174236,2,65529,0,0,0,0,0,0
2525,1762970174285,3,65529,65535,0,0,0,0,0
2526,1762970174335,3,65528,65535,0,0,0,0,0
2527,1762970174385,2,65528,65535,0,0,0,0,0
2528,1762970174502,3,65527,1,0,0,0,0,0
2529,1762970174585,3,65530,0,0,0,0,0,0
2530,1762970174619,4,65529,65535,0,0,0,0,0
2531,1762970174686,3,65530,0,0,0,0,0,0
2532,1762970174754,2,65528,0,0,0,0,0,0
2533,1762970174836,3,65529,65535,0,0,0,0,0
2534,1762970174869,2,65529,0,0,0,0,0,0
2535,1762970174986,2,65529,0,0,0,0,0,0
2536,1762970175069,2,65528,65535,0,0,0,0,0
2537,1762970175103,1,65530,65534,0,0,0,0,0
2538,1762970175185,3,65529,65535,3.32,0,0,0,0
2539,1762970175235,3,65529,0,0,0,0,0,0
2540,1762970175269,4,65528,65535,0,0,0,0,0
2541,1762970175352,3,65530,65535,0,0,0,0,0
2542,1762970175386,3,65528,65535,0,0,0,0,0
2543,1762970175452,3,65528,0,0,0,0,0,0
2544,1762970175519,3,65529,0,0,0,0,0,0
2545,1762970175585,1,65528,65535,0,0,0,0,0
2546,1762970175636,2,65528,0,3.31,0,0,0,0
2547,1762970175719,3,65529,0,0,0,0,0,0
2548,1762970175752,2,65528,65535,0,0,0,0,0
2549,1762970175852,4,65529,0,0,0,0,0,0
2550,1762970175919,5,65527,1,0,0,0,0,0
2551,1762970176002,2,65528,65535,0,0,0,0,0
2552,1762970176104,4,65527,0,0,0,0,0,0
2553,1762970176219,1,65528,65535,0,0,0,0,0
2554,1762970176268,2,65527,65535,0,0,0,0,0
2555,1762970176385,1,65529,65535,0,0,0,0,0
2556,1762970176486,3,65528,65535,0,0,0,0,0
2557,1762970176619,4,65528,0,0,0,0,0,0
2558,1762970176702,2,65530,65535,0,0,0,0,0
2559,1762970176735,3,65528,2,0,0,0,0,0
2560,1762970176817,3,65528,0,0,0,0,0,0
2561,1762970176851,2,65530,0,0,0,0,0,0
2562,1762970176918,1,65529,1,0,0,0,0,0
2563,1762970176969,3,65530,0,3.32,0,0,0,0
2564,1762970177051,3,65530,65534,0,0,0,0,0
2565,1762970177118,3,65528,65534,0,0,0,0,0
2566,1762970177169,5,65530,1,0,0,0,0,0
2567,1762970177234,4,65528,0,0,0,0,0,0
2568,1762970177267,2,65528,65535,0,0,0,0,0
2569,1762970177334,3,65530,65535,0,0,0,0,0
2570,1762970177368,2,65529,0,0,0,0,0,0
2571,1762970177517,3,65528,65535,0,0,0,0,0
2572,1762970177534,3,65529,65535,0,0,0,0,0
2573,1762970177584,3,65527,0,0,0,0,0,0
2574,1762970177619,2,65529,0,0,0,0,0,0
2575,1762970177750,2,65529,0,0,0,0,0,0
2576,1762970177800,2,65530,0,0,0,0,0,0
2577,1762970177916,4,65529,0,0,0,0,0,0
2578,1762970178050,5,65528,0,0,0,0,0,0
2579,1762970178099,2,65527,0,0,0,0,0,0
2580,1762970186623,4,65528,1,0,0,0,0,0
2581,1762970186656,2,65527,0,0,0,0,0,0
2582,1762970186740,3,65526,0,0,0,0,0,0
2583,1762970187007,4,65529,65535,0,0,0,0,0
2584,1762970187190,3,65529,0,0,0,0,0,0
2585,1762970190655,4,65529,0,0,0,0,0,0
2586,1762970190722,4,65528,0,0,0,0,0,0
2587,1762970190821,4,65527,1,0,0,0,0,0
2588,1762970190956,3,65528,0,0,0,0,0,0
2589,1762970191005,1,65527,65535,0,0,0,0,0
2590,1762970191107,3,65529,0,0,0,0,0,0
2591,1762970191172,2,65530,1,0,0,0,0,0
2592,1762970191206,2,65530,65535,0,0,0,0,0
2593,1762970191272,4,65528,1,0,0,0,0,0
2594,1762970191338,3,65528,0,0,0,0,0,0
2595,1762970191371,4,65528,0,0,0,0,0,0
2596,1762970191454,3,65528,0,0,0,0,0,0
2597,1762970191472,4,65528,65535,0,0,0,0,0
2598,1762970191621,2,65529,65535,0,0,0,0,0
2599,1762970191737,2,65528,0,0,0,0,0,0
2600,1762970191804,4,65529,1,0,0,0,0,0
2601,1762970191871,2,65528,65535,0,0,0,0,0
2602,1762970191972,4,65529,0,0,0,0,0,0
2603,1762970192054,3,65529,0,0,0,0,0,0
2604,1762970192138,3,65528,0,3.32,0,0,0,0
2605,1762970192204,4,65531,65534,0,0,0,0,0
2606,1762970192237,3,65530,65535,0,0,0,0,0
2607,1762970192287,3,65528,1,0,0,0,0,0
2608,1762970192337,4,65528,65535,0,0,0,0,0
2609,1762970192370,3,65529,0,0,0,0,0,0
2610,1762970192437,5,65528,0,0,0,0,0,0
2611,1762970192488,3,65528,0,33201,0,0,0,0
2612,1762970192571,3,65529,0,0,0,0,0,0
2613,1762970192620,3,65528,0,0,0,0,0,0
2614,1762970192670,2,65528,1,0,0,0,0,0
2615,1762970192704,2,65529,0,0,0,0,0,0
2616,1762970192803,7,65528,0,0,0,0,0,0
2617,1762970192839,16,0,0,0,0,0,0,0
2618,1762970192904,1,65529,1,0,0,0,0,0
2619,1762970192970,3,65528,0,0,0,0,0,0
2620,1762970193021,4,65527,65535,0,0,0,0,0
2621,1762970193055,65535,65529,65535,0,0,0,0,0
2622,1762970193119,2,65529,65534,0,0,0,0,0
2623,1762970193153,5,65530,0,0,0,0,0,0
2624,1762970193219,5,65530,0,0,0,0,0,0
2625,1762970193269,3,65528,65535,0,0,0,0,0
2626,1762970193319,0,65533,0,0,0,0,0,0
2627,1762970193386,65532,65525,65534,0,0,0,0,0
2628,1762970193454,1,65528,65535,0,0,0,0,0
2629,1762970193502,2,65530,65535,0,0,0,0,0
2630,1762970193555,1,65527,3,0,0,0,0,0
2631,1762970193586,4,65529,0,0,0,0,0,0
2632,1762970193653,7,65526,1,0,0,0,0,0
2633,1762970193686,1,65529,0,0,0,0,0,0
2634,1762970193755,1,65530,65535,0,0,0,0,0
2635,1762970193787,4,65530,65535,0,0,0,0,0
2636,1762970193985,4,65528,65534,0,0,0,0,0
2637,1762970194019,2,65530,65535,0,0,0,0,0
2638,1762970194302,3,65527,0,0,0,0,0,0
2639,1762970194368,5,65527,65535,0,0,0,0,0
2640,1762970194418,3,65529,65535,0,0,0,0,0
2641,1762970194453,6,65530,65535,0,0,0,0,0
2642,1762970194535,4,65528,0,0,0,0,0,0
2643,1762970194586,3,65529,65535,0,0,0,0,0
2644,1762970194636,2,65528,65535,0,0,0,0,0
2645,1762970194686,2,65529,65534,0,0,0,0,0
2646,1762970194918,4,65529,65535,0,0,0,0,0
2647,1762970195035,2,65528,0,0,0,0,0,0
2648,1762970195102,2,65529,65535,0,0,0,0,0
2649,1762970195169,2,65529,1,0,0,0,0,0
2650,1762970195218,3,65529,0,33201,0,0,0,0
2651,1762970195335,2,65528,65535,0,0,0,0,0
2652,1762970195385,3,65529,0,0,0,0,0,0
2653,1762970195435,3,65529,0,0,0,0,0,0
2654,1762970195502,2,65528,0,0,0,0,0,0
2655,1762970195568,4,65528,65535,0,0,0,0,0
2656,1762970195617,4,65528,65535,0,0,0,0,0
2657,1762970195684,3,65529,1,3.32,0,0,0,0
2658,1762970195768,4,65528,65535,0,0,0,0,0
2659,1762970195819,2,65529,0,0,0,0,0,0
2660,1762970195867,4,65529,0,0,0,0,0,0
2661,1762970196018,3,65529,65535,0,0,0,0,0
2662,1762970196084,4,65528,65535,0,0,0,0,0
2663,1762970196200,2,65528,0,0,0,0,0,0
2664,1762970196267,3,65528,65535,0,0,0,0,0
2665,1762970196300,1,65526,0,0,0,0,0,0
2666,1762970196418,0,65530,0,0,0,0,0,0
2667,1762970196484,4,65529,0,0,0,0,0,0
2668,1762970196518,3,65528,0,0,0,0,0,0
2669,1762970196634,3,65528,0,0,0,0,0,0
2670,1762970196683,3,65530,0,0,0,0,0,0
2671,1762970196733,3,65531,0,0,0,0,0,0
2672,1762970196800,2,65529,65535,0,0,0,0,0
2673,1762970196851,3,65530,0,0,0,0,0,0
2674,1762970196934,2,65529,65535,0,0,0,0,0
2675,1762970196967,2,65528,0,0,0,0,0,0
2676,1762970197050,2,65529,0,0,0,0,0,0
2677,1762970197150,5,65528,1,0,0,0,0,0
2678,1762970197183,4,65530,0,0,0,0,0,0
2679,1762970197250,3,65528,65534,0,0,0,0,0
2680,1762970197517,3,65530,0,0,0,0,0,0
2681,1762970197615,1,65530,1,0,0,0,0,0
2682,1762970197682,4,65530,65535,0,0,0,0,0
2683,1762970197732,2,65529,65535,0,0,0,0,0
2684,1762970197783,3,65527,65535,0,0,0,0,0
2685,1762970197833,3,65530,0,0,0,0,0,0
2686,1762970198069,2,65529,0,0,0,0,0,0
2687,1762970198149,2,65529,0,0,0,0,0,0
2688,1762970198215,2,65528,1,0,0,0,0,0
2689,1762970198265,2,65529,0,0,0,0,0,0
2690,1762970198298,4,65527,0,0,0,0,0,0
2691,1762970198382,2,65529,0,0,0,0,0,0
2692,1762970198432,2,65529,0,0,0,0,0,0
2693,1762970198532,3,65528,65535,0,0,0,0,0
2694,1762970198598,5,65528,0,0,0,0,0,0
2695,1762970198633,3,65528,0,0,0,0,0,0
2696,1762970198699,1,65528,0,0,0,0,0,0
2697,1762970198749,2,65529,0,0,0,0,0,0
2698,1762970198798,3,65530,65535,0,0,0,0,0
2699,1762970198948,4,65529,1,0,0,0,0,0
2700,1762970198965,2,65530,0,0,0,0,0,0
2701,1762970199100,3,65529,65535,0,0,0,0,0
2702,1762970199181,3,65529,0,0,0,0,0,0
2703,1762970199381,2,65530,65535,0,0,0,0,0
2704,1762970199449,4,65528,0,0,0,0,0,0
2705,1762970199498,4,65529,65535,0,0,0,0,0
2706,1762970199548,3,65529,65535,0,0,0,0,0
2707,1762970199597,1,65529,0,0,0,0,0,0
2708,1762970199647,2,65527,1,0,0,0,0,0
2709,1762970199764,3,65530,0,0,0,0,0,0
2710,1762970199964,2,65528,0,0,0,0,0,0
2711,1762970200015,2,65530,65535,0,0,0,0,0
2712,1762970200065,3,65529,0,0,0,0,0,0
2713,1762970200114,3,65529,65535,0,0,0,0,0
2714,1762970200265,3,65529,65535,0,0,0,0,0
2715,1762970200331,3,65530,0,0,0,0,0,0
2716,1762970200729,3,65528,0,0,0,0,0,0
2717,1762970200847,4,65529,1,0,0,0,0,0
2718,1762970200996,3,65529,0,0,0,0,0,0
2719,1762970201080,4,65530,65535,0,0,0,0,0
2720,1762970201096,2,65530,0,0,0,0,0,0
2721,1762970201131,2,65529,0,3.31,0,0,0,0
2722,1762970201197,3,65529,65535,0,0,0,0,0
2723,1762970202845,2,65527,65535,0,0,0,0,0
2724,1762970202912,5,65530,0,0,0,0,0,0
2725,1762970202979,2,65530,65535,0,0,0,0,0
2726,1762970203078,3,65527,65535,0,0,0,0,0
2727,1762970203145,5,65529,0,0,0,0,0,0
2728,1762970203162,3,65526,2,0,0,0,0,0
2729,1762970203211,3,65529,65535,0,0,0,0,0
2730,1762970203328,4,65529,0,0,0,0,0,0
2731,1762970203395,3,65529,0,0,0,0,0,0
2732,1762970203429,3,65530,65535,0,0,0,0,0
2733,1762970203511,4,65529,0,0,0,0,0,0
2734,1762970203545,2,65530,0,0,0,0,0,0
2735,1762970203627,2,65531,65535,0,0,0,0,0
2736,1762970203644,2,65529,65535,0,0,0,0,0
2737,1762970203794,4,65526,1,0,0,0,0,0
2738,1762970203911,2,65528,65535,0,0,0,0,0
2739,1762970203977,3,65528,0,0,0,0,0,0
2740,1762970204044,2,65531,65535,0,0,0,0,0
2741,1762970204096,4,65530,65535,0,0,0,0,0
2742,1762970204128,4,65530,65535,0,0,0,0,0
2743,1762970204211,2,65527,0,0,0,0,0,0
2744,1762970204261,4,65528,1,0,0,0,0,0
2745,1762970204294,2,65529,0,0,0,0,0,0
2746,1762970204362,1,65530,0,0,0,0,0,0
2747,1762970204410,3,65530,0,0,0,0,0,0
2748,1762970204460,2,65530,0,0,0,0,0,0
2749,1762970204527,4,65529,65535,0,0,0,0,0
2750,1762970204577,3,65529,0,0,0,0,0,0
2751,1762970204660,4,65529,0,3.32,0,0,0,0
2752,1762970204743,5,65528,1,0,0,0,0,0
2753,1762970204843,3,65531,0,0,0,0,0,0
2754,1762970204910,5,65528,0,0,0,0,0,0
2755,1762970205010,3,65528,65535,0,0,0,0,0
2756,1762970205077,4,65529,65535,0,0,0,0,0
2757,1762970205177,5,65527,65535,0,0,0,0,0
2758,1762970205243,3,65529,65534,0,0,0,0,0
2759,1762970205293,4,65530,65534,0,0,0,0,0
2760,1762970205376,3,65530,1,0,0,0,0,0
2761,1762970205410,1,65530,1,0,0,0,0,0
2762,1762970205443,4,65528,65535,0,0,0,0,0
2763,1762970205577,3,65528,1,0,0,0,0,0
2764,1762970205678,4,65529,65535,0,0,0,0,0
2765,1762970205726,3,65530,65535,0,0,0,0,0
2766,1762970205792,4,65528,0,0,0,0,0,0
2767,1762970205859,4,65529,0,0,0,0,0,0
2768,1762970205894,3,65528,0,0,0,0,0,0
2769,1762970205959,4,65529,65535,0,0,0,0,0
2770,1762970206076,0,65528,0,0,0,0,0,0
2771,1762970206143,3,65529,0,0,0,0,0,0
2772,1762970206176,3,65529,0,0,0,0,0,0
2773,1762970206226,4,65529,0,0,0,0,0,0
2774,1762970206292,3,65528,65280,0,0,0,0,0
2775,1762970206342,4,65530,65535,0,0,0,0,0
2776,1762970206391,2,65529,65535,0,0,0,0,0
2777,1762970206458,3,65528,0,0,0,0,0,0
2778,1762970206509,3,65528,65535,0,0,0,0,0
2779,1762970206575,3,65528,0,0,0,0,0,0
2780,1762970206709,3,65529,0,0,0,0,0,0
2781,1762970206742,3,65530,0,0,0,0,0,0
2782,1762970206791,3,65530,0,0,0,0,0,0
2783,1762970206908,2,65529,1,0,0,0,0,0
2784,1762970207142,1,65528,0,0,0,0,0,0
2785,1762970207159,4,65528,65535,0,0,0,0,0
2786,1762970207175,4,65530,65535,0,0,0,0,0
2787,1762970207224,3,65529,0,0,0,0,0,0
2788,1762970207274,2,65528,65535,0,0,0,0,0
2789,1762970207325,3,65529,65535,0,0,0,0,0
2790,1762970207458,3,65529,0,0,0,0,0,0
2791,1762970207508,2,65529,1,0,0,0,0,0
2792,1762970207574,3,65530,0,0,0,0,0,0
2793,1762970207608,2,65529,65535,0,0,0,0,0
2794,1762970207674,3,65529,0,0,0,0,0,0
2795,1762970207724,4,65530,1,0,0,0,0,0
2796,1762970207776,3,65531,1,0,0,0,0,0
2797,1762970207842,2,65528,65535,3.32,0,0,0,0
2798,1762970207958,3,65529,65535,0,0,0,0,0
2799,1762970208108,3,65529,0,0,0,0,0,0
2800,1762970208158,2,65529,0,0,0,0,0,0
2801,1762970208258,2,65530,0,0,0,0,0,0
2802,1762970208324,4,65530,0,0,0,0,0,0
2803,1762970208374,2,65529,65535,0,0,0,0,0
2804,1762970208424,4,65528,0,0,0,0,0,0
2805,1762970208475,3,65530,1,0,0,0,0,0
2806,1762970208541,3,65530,65535,0,0,0,0,0
2807,1762970208591,3,65529,65535,0,0,0,0,0
2808,1762970208657,3,65528,0,0,0,0,0,0
2809,1762970208709,2,65529,0,0,0,0,0,0
2810,1762970208774,2,65529,0,0,0,0,0,0
2811,1762970208807,3,65529,65534,0,0,0,0,0
2812,1762970208857,2,65529,65535,0,0,0,0,0
2813,1762970208925,3,65528,0,0,0,0,0,0
2814,1762970208991,3,65528,0,0,0,0,0,0
2815,1762970209140,4,65529,1,0,0,0,0,0
2816,1762970209307,3,65529,65535,0,0,0,0,0
2817,1762970209357,4,65529,0,0,0,0,0,0
2818,1762970209457,2,65529,65535,0,0,0,0,0
2819,1762970209526,3,65529,65535,0,0,0,0,0
2820,1762970209640,2,65529,0,3.28,0,0,0,0
2821,1762970209690,2,65528,0,0,0,0,0,0
2822,1762970209758,2,65528,65535,0,0,0,0,0
2823,1762970209806,3,65528,0,0,0,0,0,0
2824,1762970209924,3,65529,0,0,0,0,0,0
2825,1762970209990,3,65529,65535,0,0,0,0,0
2826,1762970210106,3,65528,0,3.32,0,0,0,0
2827,1762970210207,4,65529,0,0,0,0,0,0
2828,1762970210240,3,65529,0,0,0,0,0,0
2829,1762970210306,3,65529,0,0,0,0,0,0
2830,1762970210356,4,65529,0,0,0,0,0,0
2831,1762970210474,4,65527,1,0,0,0,0,0
2832,1762970210523,3,65529,0,0,0,0,0,0
2833,1762970210590,3,65528,0,0,0,0,0,0
2834,1762970210657,2,65529,0,0,0,0,0,0
2835,1762970210689,3,65530,65535,0,0,0,0,0
2836,1762970210757,4,65529,1,0,0,0,0,0
2837,1762970210807,4,65529,0,0,0,0,0,0
2838,1762970210873,2,65529,65535,0,0,0,0,0
2839,1762970210908,3,65529,1,0,0,0,0,0
2840,1762970210974,4,65528,0,0,0,0,0,0
2841,1762970211023,4,65529,0,0,0,0,0,0
2842,1762970211106,3,65530,65535,0,0,0,0,0
2843,1762970211140,3,65529,0,0,0,0,0,0
2844,1762970211255,2,65529,0,0,0,0,0,0
2845,1762970211305,1,65529,65535,0,0,0,0,0
2846,1762970211337,4,65529,65535,0,0,0,0,0
2847,1762970211404,4,65529,0,0,0,0,0,0
2848,1762970211456,3,65528,0,3.31,0,0,0,0
2849,1762970211571,2,65529,65535,0,0,0,0,0
2850,1762970211672,4,65529,1,0,0,0,0,0
2851,1762970211739,3,65529,65535,0,0,0,0,0
2852,1762970211790,4,65529,65535,0,0,0,0,0
2853,1762970211839,3,65528,1,0,0,0,0,0
2854,1762970211890,3,65531,1,0,0,0,0,0
2855,1762970211973,3,65530,65535,0,0,0,0,0
2856,1762970212040,3,65531,65534,0,0,0,0,0
2857,1762970212105,3,65529,1,0,0,0,0,0
2858,1762970212222,2,65530,65534,0,0,0,0,0
2859,1762970212271,2,65528,65535,0,0,0,0,0
2860,1762970212321,2,65527,2,0,0,0,0,0
2861,1762970212405,3,65528,0,0,0,0,0,0
2862,1762970212438,1,65529,65534,0,0,0,0,0
2863,1762970212488,5,65528,65535,0,0,0,0,0
2864,1762970212620,3,65529,0,0,0,0,0,0
2865,1762970212755,3,65530,0,0,0,0,0,0
2866,1762970212788,3,65528,1,0,0,0,0,0
2867,1762970212870,3,65530,0,0,0,0,0,0
2868,1762970212956,3,65528,65535,0,0,0,0,0
2869,1762970213022,4,65528,2,0,0,0,0,0
2870,1762970213170,2,65530,65534,0,0,0,0,0
2871,1762970213220,3,65529,0,0,0,0,0,0
2872,1762970213321,2,65529,65535,0,0,0,0,0
2873,1762970213370,2,65530,255,0,0,0,0,0
2874,1762970213853,3,65529,0,0,0,0,0,0
2875,1762970213921,3,65529,65535,0,0,0,0,0
2876,1762970214020,3,65528,65535,0,0,0,0,0
2877,1762970214155,3,65528,1,0,0,0,0,0
2878,1762970214217,3,65529,0,33202,0,0,0,0
2879,1762970214321,4,65527,1,0,0,0,0,0
2880,1762970214404,3,65527,1,0,0,0,0,0
2881,1762970214437,2,65528,65535,0,0,0,0,0
2882,1762970214520,3,65528,65534,0,0,0,0,0
2883,1762970214637,3,65529,0,0,0,0,0,0
2884,1762970214776,2,65529,0,0,0,0,0,0
2885,1762970214819,3,65529,65535,0,0,0,0,0
2886,1762970214910,3,65530,65534,0,0,0,0,0
2887,1762970215007,2,65530,65535,0,0,0,0,0
2888,1762970215084,2,65529,0,0,0,0,0,0
2889,1762970215235,2,65529,0,0,0,0,0,0
2890,1762970215354,1,65529,0,0,0,0,0,0
2891,1762970215418,2,65528,0,0,0,0,0,0
2892,1762970215468,3,65529,1,0,0,0,0,0
2893,1762970215619,3,65530,0,0,0,0,0,0
2894,1762970215653,3,65529,0,0,0,0,0,0
2895,1762970215770,5,65528,0,0,0,0,0,0
2896,1762970215886,3,65529,65535,0,0,0,0,0
2897,1762970215919,4,65528,0,0,0,0,0,0
2898,1762970216033,4,65529,65535,0,0,0,0,0
2899,1762970216041,4,65530,65535,0,0,0,0,0
2900,1762970216137,2,65530,65535,0,0,0,0,0
2901,1762970216234,3,65529,0,0,0,0,0,0
2902,1762970216251,3,65529,65535,0,0,0,0,0
2903,1762970216336,5,65529,0,0,0,0,0,0
2904,1762970216403,3,65529,0,0,0,0,0,0
2905,1762970216619,3,65530,0,0,0,0,0,0
2906,1762970216653,4,65529,0,0,0,0,0,0
2907,1762970216735,2,65528,0,0,0,0,0,0
2908,1762970216819,3,65530,0,0,0,0,0,0
2909,1762970216853,5,65530,0,0,0,0,0,0
2910,1762970216904,2,65528,0,0,0,0,0,0
2911,1762970216985,2,65529,0,0,0,0,0,0
2912,1762970217086,4,65531,0,0,0,0,0,0
2913,1762970217202,4,65528,1,0,0,0,0,0
2914,1762970217268,3,65528,0,0,0,0,0,0
2915,1762970217318,3,65530,65535,0,0,0,0,0
2916,1762970217441,2,65529,1,0,0,0,0,0
2917,1762970217501,3,65529,0,0,0,0,0,0
2918,1762970217550,3,65529,65535,0,0,0,0,0
2919,1762970217719,3,65530,1,0,0,0,0,0
2920,1762970217900,2,65529,0,33202,0,0,0,0
2921,1762970218170,1,65528,65535,0,0,0,0,0
2922,1762970218206,3,65529,65535,0,0,0,0,0
2923,1762970218269,3,65531,65535,0,0,0,0,0
2924,1762970218336,4,65530,0,0,0,0,0,0
2925,1762970218384,2,65529,0,0,0,0,0,0
2926,1762970218468,3,65530,65535,0,0,0,0,0
2927,1762970218500,3,65529,0,0,0,0,0,0
2928,1762970218701,3,65528,65535,0,0,0,0,0
2929,1762970218750,4,65529,1,3.28,0,0,0,0
2930,1762970218901,3,65529,1,0,0,0,0,0
2931,1762970219000,3,65530,65535,0,0,0,0,0
2932,1762970219136,3,65529,0,0,0,0,0,0
2933,1762970219151,2,65529,0,0,0,0,0,0
2934,1762970219350,2,65529,65535,0,0,0,0,0
2935,1762970219466,3,65530,65535,0,0,0,0,0
2936,1762970219734,3,65529,65535,0,0,0,0,0
2937,1762970221465,1,65528,0,0,0,0,0,0
2938,1762970221849,3,65529,65535,0,0,0,0,0
2939,1762970222051,2,65530,65535,0,0,0,0,0
2940,1762970222365,2,65527,0,0,0,0,0,0
2941,1762970223429,3,65530,65535,33202,0,0,0,0
2942,1762970223462,5,65528,0,0,0,0,0,0
2943,1762970223462,3,65529,0,0,0,0,0,0
2944,1762970223546,3,65529,0,0,0,0,0,0
2945,1762970223581,2,65529,0,0,0,0,0,0
2946,1762970223708,2,65529,0,0,0,0,0,0
2947,1762970223812,4,65529,65535,3.32,0,0,0,0
2948,1762970223846,3,65528,0,0,0,0,0,0
2949,1762970223880,3,65529,65535,0,0,0,0,0
2950,1762970223979,3,65528,0,0,0,0,0,0
2951,1762970224047,3,65530,65535,0,0,0,0,0
2952,1762970224113,2,65531,65535,0,0,0,0,0
2953,1762970224213,3,65530,65280,0,0,0,0,0
2954,1762970224261,2,65529,0,33202,0,0,0,0
2955,1762970224398,2,65530,0,0,0,0,0,0
2956,1762970224429,4,65529,65535,0,0,0,0,0
2957,1762970224513,4,65530,0,0,0,0,0,0
2958,1762970224547,2,65530,65535,0,0,0,0,0
2959,1762970224581,3,65528,1,0,0,0,0,0
2960,1762970224662,2,65528,65535,0,0,0,0,0
2961,1762970224728,2,65529,0,0,0,0,0,0
2962,1762970224762,3,65529,0,0,0,0,0,0
2963,1762970224829,3,65529,65535,0,0,0,0,0
2964,1762970224878,4,65528,0,0,0,0,0,0
2965,1762970225012,3,65529,0,0,0,0,0,0
2966,1762970225129,2,65529,0,0,0,0,0,0
2967,1762970225162,1,65529,0,0,0,0,0,0
2968,1762970225245,3,65528,0,0,0,0,0,0
2969,1762970225362,3,65530,0,0,0,0,0,0
2970,1762970225428,3,65528,1,0,0,0,0,0
2971,1762970225528,2,65529,0,0,0,0,0,0
