index,date,ACCEL_X,ACCEL_Y,ACCEL_Z,1,2,3,4,5
0,1765220698615,-616,8041,-1108,0,0,0,0,0
1,1765220698798,-651,8035,-1014,0,0,0,0,0
2,1765220698915,-665,8038,-1030,0,0,0,0,0
3,1765220699148,-639,8014,-1034,0,0,0,0,0
4,1765220699265,-629,8080,-1072,0,0,0,0,0
5,1765220699448,-638,8026,-1060,0,0,0,0,0
6,1765220699549,-651,8031,-1037,0,0,0,0,0
7,1765220699799,-644,8049,-1103,0,0,0,0,0
8,1765220699915,-661,8020,-1050,0,0,0,0,0
9,1765220700063,-652,8040,-1028,0,0,0,0,0
10,1765220700182,-626,8035,-1058,0,0,0,0,0
11,1765220700365,-629,8044,-1070,0,0,0,0,0
12,1765220700431,-639,8029,-1060,0,0,0,0,0
13,1765220700531,-646,8042,-1040,0,0,0,0,0
14,1765220700715,-637,8016,-1044,0,0,0,0,0
15,1765220700832,-646,8042,-1054,0,0,0,0,0
16,1765220700997,-637,8055,-1076,0,0,0,0,0
17,1765220701116,-628,8109,-1132,0,0,0,0,0
18,1765220701182,-630,7997,-1009,0,0,0,0,0
19,1765220701416,-654,8048,-1024,0,0,0,0,0
20,1765220701516,-652,8093,-1084,0,0,0,0,0
21,1765220701715,-634,7999,-1064,0,0,0,0,0
22,1765220701732,-628,8048,-1054,0,0,0,0,0
23,1765220701832,-648,8042,-1046,0,0,0,0,0
24,1765220702049,-653,8022,-1052,0,0,0,0,0
25,1765220702197,-636,8056,-1062,0,0,0,0,0
26,1765220702332,-620,8031,-1051,0,0,0,0,0
27,1765220702531,-660,8032,-1047,0,0,0,0,0
28,1765220702648,-650,8010,-1058,0,0,0,0,0
29,1765220702882,-632,8079,-1057,0,0,0,0,0
30,1765220702948,-614,8022,-1052,0,0,0,0,0
31,1765220703216,-640,8025,-1059,0,0,0,0,0
32,1765220703299,-632,8054,-1067,0,0,0,0,0
33,1765220703499,-640,8068,-1040,0,0,0,0,0
34,1765220703631,-632,8027,-1061,0,0,0,0,0
35,1765220703815,-648,8020,-1049,0,0,0,0,0
36,1765220703999,-643,8054,-1060,0,0,0,0,0
37,1765220704132,-648,8018,-1044,0,0,0,0,0
38,1765220704332,-626,8050,-1049,0,0,0,0,0
39,1765220704416,-634,8046,-1032,0,0,0,0,0
40,1765220704682,-644,8011,-1031,0,0,0,0,0
41,1765220704764,-652,8021,-1049,0,0,0,0,0
42,1765220704982,-616,8074,-1064,0,0,0,0,0
43,1765220705116,-618,8036,-1048,0,0,0,0,0
44,1765220705299,-672,8038,-1065,0,0,0,0,0
45,1765220705466,-646,8039,-1032,0,0,0,0,0
46,1765220705598,-622,8068,-1084,0,0,0,0,0
47,1765220705815,-636,8013,-1034,0,0,0,0,0
48,1765220705898,-664,8043,-1040,0,0,0,0,0
49,1765220706165,-662,7960,-1206,0,0,0,0,0
50,1765220706232,-645,8098,-1090,0,0,0,0,0
51,1765220706449,-606,7998,-980,0,0,0,0,0
52,1765220706582,-666,8056,-1034,0,0,0,0,0
53,1765220706782,-670,8018,-1100,0,0,0,0,0
54,1765220706965,-630,8059,-989,0,0,0,0,0
55,1765220707082,-608,8028,-1062,0,0,0,0,0
56,1765220707299,-645,8050,-1066,0,0,0,0,0
57,1765220707399,-660,8010,-1048,0,0,0,0,0
58,1765220707631,-623,8050,-1061,0,0,0,0,0
59,1765220707732,-643,8046,-1046,0,0,0,0,0
60,1765220707931,-649,8030,-1034,0,0,0,0,0
61,1765220708065,-632,8031,-1047,0,0,0,0,0
62,1765220708098,-642,8030,-1054,0,0,0,0,0
63,1765220708265,-614,8048,-1044,0,0,0,0,0
64,1765220708432,-648,8042,-1060,0,0,0,0,0
65,1765220708549,-660,8042,-1071,0,0,0,0,0
66,1765220708765,-642,8037,-1066,0,0,0,0,0
67,1765220708865,-649,8041,-1049,0,0,0,0,0
68,1765220709115,-630,8028,-1041,0,0,0,0,0
69,1765220709181,-635,8040,-1052,0,0,0,0,0
70,1765220709398,-641,8034,-1056,0,0,0,0,0
71,1765220709547,-661,7986,-1044,0,0,0,0,0
72,1765220709732,-635,8055,-1070,0,0,0,0,0
73,1765220709915,-625,8037,-1040,0,0,0,0,0
74,1765220710031,-640,8014,-1057,0,0,0,0,0
75,1765220710231,-640,8022,-1065,0,0,0,0,0
76,1765220710349,-638,8075,-1082,0,0,0,0,0
77,1765220710581,-628,8013,-1044,0,0,0,0,0
78,1765220710648,-656,8004,-1021,0,0,0,0,0
79,1765220710898,-654,8081,-1068,0,0,0,0,0
80,1765220710998,-620,7994,-1015,0,0,0,0,0
81,1765220711197,-642,8052,-1082,0,0,0,0,0
82,1765220711333,-646,8030,-1062,0,0,0,0,0
83,1765220711498,-622,8052,-1049,0,0,0,0,0
84,1765220711715,-636,8078,-1077,0,0,0,0,0
85,1765220711815,-644,7996,-1043,0,0,0,0,0
86,1765220712065,-632,8017,-1032,0,0,0,0,0
87,1765220712131,-653,8059,-1038,0,0,0,0,0
88,1765220712382,-637,8058,-1057,0,0,0,0,0
89,1765220712532,-619,8038,-1000,0,0,0,0,0
90,1765220712681,-642,8012,-1086,0,0,0,0,0
91,1765220712864,-658,8053,-1058,0,0,0,0,0
92,1765220712998,-623,8061,-1052,0,0,0,0,0
93,1765220713215,-654,8011,-1097,0,0,0,0,0
94,1765220713299,-625,8055,-1010,0,0,0,0,0
95,1765220713531,-642,7980,-1059,0,0,0,0,0
96,1765220713615,-622,8022,-1064,0,0,0,0,0
97,1765220713849,-646,8082,-992,0,0,0,0,0
98,1765220713981,-658,8120,-1139,0,0,0,0,0
99,1765220714149,-623,7897,-1101,0,0,0,0,0
100,1765220714315,-665,8092,-1059,0,0,0,0,0
101,1765220714481,-630,8021,-1044,0,0,0,0,0
102,1765220714715,-572,8082,-1044,0,0,0,0,0
103,1765220714782,-663,8012,-1061,0,0,0,0,0
104,1765220715014,-667,8056,-1034,0,0,0,0,0
105,1765220715148,-689,8115,-1106,0,0,0,0,0
106,1765220715332,-692,7968,-963,0,0,0,0,0
107,1765220715498,-656,7974,-1125,0,0,0,0,0
108,1765220715632,-593,8126,-1031,0,0,0,0,0
109,1765220715881,-619,8041,-1083,0,0,0,0,0
110,1765220715948,-688,7931,-1068,0,0,0,0,0
111,1765220716198,-660,8167,-1036,0,0,0,0,0
112,1765220716298,-583,7982,-1034,0,0,0,0,0
113,1765220716515,-655,8011,-1082,0,0,0,0,0
114,1765220716665,-643,8016,-1016,0,0,0,0,0
115,1765220716815,-642,8070,-1050,0,0,0,0,0
116,1765220717015,-630,8022,-1068,0,0,0,0,0
117,1765220717115,-644,8054,-1074,0,0,0,0,0
118,1765220717364,-650,8031,-1059,0,0,0,0,0
119,1765220717465,-655,8019,-1043,0,0,0,0,0
120,1765220717665,-619,8061,-1052,0,0,0,0,0
121,1765220717815,-632,8011,-1079,0,0,0,0,0
122,1765220717997,-651,8012,-1038,0,0,0,0,0
123,1765220718181,-646,8077,-1063,0,0,0,0,0
124,1765220718298,-615,7976,-1079,0,0,0,0,0
125,1765220718532,-652,8084,-1008,0,0,0,0,0
126,1765220718614,-636,8060,-1033,0,0,0,0,0
127,1765220718849,-633,8034,-1042,0,0,0,0,0
128,1765220718949,-657,8032,-1093,0,0,0,0,0
129,1765220719148,-630,8029,-995,0,0,0,0,0
130,1765220719248,-636,8048,-1061,0,0,0,0,0
131,1765220719530,-646,8004,-1068,0,0,0,0,0
132,1765220719581,-654,8053,-1035,0,0,0,0,0
133,1765220719815,-628,8024,-1022,0,0,0,0,0
134,1765220719981,-628,8066,-1095,0,0,0,0,0
135,1765220720231,-634,7992,-1068,0,0,0,0,0
136,1765220720441,-641,8061,-1006,0,0,0,0,0
137,1765220720665,-631,8036,-1076,0,0,0,0,0
138,1765220720749,-622,8023,-1115,0,0,0,0,0
139,1765220720982,-673,8046,-1002,0,0,0,0,0
140,1765220721148,-645,8027,-1022,0,0,0,0,0
141,1765220721432,-628,8038,-1098,0,0,0,0,0
142,1765220721515,-628,8026,-1052,0,0,0,0,0
143,1765220721765,-609,8038,-1080,0,0,0,0,0
144,1765220721915,-650,8022,-1050,0,0,0,0,0
145,1765220722232,-643,8060,-1043,0,0,0,0,0
146,1765220722382,-627,8060,-1048,0,0,0,0,0
147,1765220722581,-638,8003,-1006,0,0,0,0,0
148,1765220722682,-665,8145,-1103,0,0,0,0,0
149,1765220723132,-666,8086,-1061,0,0,0,0,0
150,1765220723300,-640,8006,-1033,0,0,0,0,0
151,1765220723433,-632,8068,-1057,0,0,0,0,0
152,1765220723532,-628,8066,-1053,0,0,0,0,0
153,1765220723616,-641,8026,-1068,0,0,0,0,0
154,1765220723898,-658,8041,-1043,0,0,0,0,0
155,1765220724116,-615,8045,-1045,0,0,0,0,0
156,1765220724266,-632,8083,-1052,0,0,0,0,0
157,1765220724350,-682,7973,-1093,0,0,0,0,0
158,1765220724565,-634,8056,-1000,0,0,0,0,0
159,1765220724998,-646,8046,-1058,0,0,0,0,0
160,1765220725082,-666,8034,-1071,0,0,0,0,0
161,1765220725315,-642,8050,-1038,0,0,0,0,0
162,1765220725466,-628,8040,-1055,0,0,0,0,0
163,1765220725565,-639,8024,-1036,0,0,0,0,0
164,1765220725816,-635,8039,-1069,0,0,0,0,0
165,1765220725984,-541,8007,-1077,0,0,0,0,0
166,1765220726164,-791,8079,-1008,0,0,0,0,0
167,1765220726264,-1285,8217,-820,0,0,0,0,0
168,1765220726498,-599,8089,-927,0,0,0,0,0
169,1765220726582,-577,8080,-1029,0,0,0,0,0
170,1765220726766,-658,8040,-1060,0,0,0,0,0
171,1765220726865,-625,8005,-1057,0,0,0,0,0
172,1765220727065,-607,8007,-1015,0,0,0,0,0
173,1765220727165,-670,8091,-1025,0,0,0,0,0
174,1765220727465,-651,8021,-1060,0,0,0,0,0
175,1765220727565,-634,8053,-1069,0,0,0,0,0
176,1765220727832,-643,8040,-1042,0,0,0,0,0
177,1765220727948,-686,7990,-1059,0,0,0,0,0
178,1765220728083,-684,8052,-1063,0,0,0,0,0
179,1765220728232,-613,8080,-1017,0,0,0,0,0
180,1765220728382,-556,8005,-1073,0,0,0,0,0
181,1765220728665,-616,7998,-1014,0,0,0,0,0
182,1765220728848,-734,7986,-1148,0,0,0,0,0
183,1765220729015,-611,8114,-1029,0,0,0,0,0
184,1765220729182,-667,8002,-1041,0,0,0,0,0
185,1765220729249,-628,8063,-1052,0,0,0,0,0
186,1765220729465,-604,8043,-1036,0,0,0,0,0
187,1765220729697,-666,8036,-1062,0,0,0,0,0
188,1765220729981,-654,8047,-1058,0,0,0,0,0
189,1765220730065,-610,8023,-1038,0,0,0,0,0
190,1765220730264,-646,8034,-1051,0,0,0,0,0
191,1765220730349,-614,8026,-1020,0,0,0,0,0
192,1765220730465,-614,8066,-1068,0,0,0,0,0
193,1765220730732,-659,8014,-1032,0,0,0,0,0
194,1765220730815,-628,8053,-1036,0,0,0,0,0
195,1765220730965,-611,8034,-1050,0,0,0,0,0
196,1765220731114,-617,8070,-1046,0,0,0,0,0
197,1765220731247,-638,8017,-1042,0,0,0,0,0
198,1765220731399,-652,8040,-1046,0,0,0,0,0
199,1765220731747,-675,8033,-1003,0,0,0,0,0
200,1765220731898,-615,8054,-1054,0,0,0,0,0
201,1765220732030,-628,8027,-1074,0,0,0,0,0
202,1765220732198,-638,8037,-1054,0,0,0,0,0
203,1765220732265,-641,8024,-1039,0,0,0,0,0
204,1765220732482,-649,8030,-1045,0,0,0,0,0
205,1765220732682,-631,8024,-1047,0,0,0,0,0
206,1765220732964,-667,8050,-1068,0,0,0,0,0
207,1765220733031,-649,8036,-1063,0,0,0,0,0
208,1765220733315,-628,8030,-1014,0,0,0,0,0
209,1765220733449,-664,8026,-1037,0,0,0,0,0
210,1765220733749,-635,8051,-1076,0,0,0,0,0
211,1765220733948,-635,8048,-998,0,0,0,0,0
212,1765220734115,-626,8046,-1070,0,0,0,0,0
213,1765220734232,-652,8023,-1033,0,0,0,0,0
214,1765220734415,-658,8022,-1034,0,0,0,0,0
215,1765220734715,-645,8032,-1074,0,0,0,0,0
216,1765220734832,-632,8030,-1055,0,0,0,0,0
217,1765220734998,-645,8038,-1023,0,0,0,0,0
218,1765220735149,-628,8035,-1050,0,0,0,0,0
219,1765220735198,-642,8009,-1037,0,0,0,0,0
220,1765220735432,-656,8061,-1053,0,0,0,0,0
221,1765220735882,-627,8051,-1032,0,0,0,0,0
222,1765220735980,-650,8032,-1021,0,0,0,0,0
223,1765220736199,-617,8043,-1046,0,0,0,0,0
224,1765220736380,-645,8029,-1035,0,0,0,0,0
225,1765220736649,-629,8046,-1006,0,0,0,0,0
226,1765220736731,-652,8020,-1061,0,0,0,0,0
227,1765220736831,-647,8036,-1046,0,0,0,0,0
228,1765220736965,-654,8037,-1068,0,0,0,0,0
229,1765220737133,-648,8022,-1054,0,0,0,0,0
230,1765220737414,-632,8056,-1038,0,0,0,0,0
231,1765220737598,-613,8048,-1048,0,0,0,0,0
232,1765220737749,-650,8029,-1045,0,0,0,0,0
233,1765220737881,-660,8033,-1056,0,0,0,0,0
234,1765220738299,-642,8034,-1014,0,0,0,0,0
235,1765220738515,-638,8047,-1042,0,0,0,0,0
236,1765220738633,-629,8017,-1067,0,0,0,0,0
237,1765220738733,-630,8036,-1060,0,0,0,0,0
238,1765220738847,-641,8037,-1045,0,0,0,0,0
239,1765220739049,-629,8023,-1039,0,0,0,0,0
240,1765220739515,-651,8044,-1062,0,0,0,0,0
241,1765220739666,-636,8026,-1044,0,0,0,0,0
242,1765220739813,-636,8046,-1039,0,0,0,0,0
243,1765220739913,-642,8040,-1046,0,0,0,0,0
244,1765220739998,-645,8037,-1056,0,0,0,0,0
245,1765220740282,-642,8040,-1036,0,0,0,0,0
246,1765220740415,-634,8036,-1046,0,0,0,0,0
247,1765220740647,-653,8010,-1048,0,0,0,0,0
248,1765220740732,-645,8071,-1056,0,0,0,0,0
249,1765220741049,-630,8022,-1048,0,0,0,0,0
250,1765220741215,-644,8044,-1038,0,0,0,0,0
251,1765220741448,-663,8035,-1056,0,0,0,0,0
252,1765220741549,-632,8037,-1060,0,0,0,0,0
253,1765220741849,-636,8040,-1051,0,0,0,0,0
254,1765220741998,-630,8028,-1014,0,0,0,0,0
255,1765220742215,-658,8062,-1084,0,0,0,0,0
256,1765220742364,-639,8034,-1048,0,0,0,0,0
257,1765220742582,-636,8045,-1054,0,0,0,0,0
258,1765220742765,-629,8038,-1025,0,0,0,0,0
259,1765220743032,-632,8046,-1051,0,0,0,0,0
260,1765220743132,-636,8021,-1048,0,0,0,0,0
261,1765220743365,-642,8030,-1058,0,0,0,0,0
262,1765220743449,-635,8040,-1044,0,0,0,0,0
263,1765220743682,-647,8048,-1039,0,0,0,0,0
264,1765220743897,-627,8029,-1046,0,0,0,0,0
265,1765220744132,-627,8068,-1038,0,0,0,0,0
266,1765220744298,-642,8008,-1019,0,0,0,0,0
267,1765220744515,-651,8050,-1043,0,0,0,0,0
268,1765220744731,-619,8042,-1041,0,0,0,0,0
269,1765220745014,-642,8026,-1046,0,0,0,0,0
270,1765220745081,-649,8020,-1074,0,0,0,0,0
271,1765220745315,-642,8071,-1014,0,0,0,0,0
272,1765220745481,-652,8097,-1040,0,0,0,0,0
273,1765220745764,-640,7989,-1085,0,0,0,0,0
274,1765220745848,-635,8052,-1051,0,0,0,0,0
275,1765220746081,-652,8025,-998,0,0,0,0,0
276,1765220746231,-633,8042,-1098,0,0,0,0,0
277,1765220746549,-638,8036,-999,0,0,0,0,0
278,1765220746698,-628,8047,-1061,0,0,0,0,0
279,1765220746867,-594,8092,-1005,0,0,0,0,0
280,1765220746997,-660,7981,-1070,0,0,0,0,0
281,1765220747199,-686,8060,-1071,0,0,0,0,0
282,1765220747464,-632,8031,-972,0,0,0,0,0
283,1765220747649,-675,8078,-1038,0,0,0,0,0
284,1765220747782,-603,7976,-1082,0,0,0,0,0
285,1765220747899,-596,8073,-1048,0,0,0,0,0
286,1765220747997,-628,8032,-1043,0,0,0,0,0
287,1765220748198,-664,8047,-1055,0,0,0,0,0
288,1765220748482,-656,8098,-1028,0,0,0,0,0
289,1765220748665,-636,7928,-959,0,0,0,0,0
290,1765220748831,-697,8150,-1084,0,0,0,0,0
291,1765220748949,-670,7922,-1186,0,0,0,0,0
292,1765220749049,-712,8046,-1113,0,0,0,0,0
293,1765220749150,-723,7988,-1132,0,0,0,0,0
294,1765220749398,-521,8042,-975,0,0,0,0,0
295,1765220749531,-607,8096,-1019,0,0,0,0,0
296,1765220749731,-610,8095,-1076,0,0,0,0,0
297,1765220749848,-683,7997,-1030,0,0,0,0,0
298,1765220750148,-611,8075,-1033,0,0,0,0,0
299,1765220750316,-618,7971,-1031,0,0,0,0,0
300,1765220750549,-618,8089,-1026,0,0,0,0,0
301,1765220750665,-672,8048,-1083,0,0,0,0,0
302,1765220750916,-639,8082,-1100,0,0,0,0,0
303,1765220751082,-615,7952,-1005,0,0,0,0,0
304,1765220751315,-652,8141,-1049,0,0,0,0,0
305,1765220751449,-643,8017,-1079,0,0,0,0,0
306,1765220751714,-629,8021,-1063,0,0,0,0,0
307,1765220751915,-652,8063,-1004,0,0,0,0,0
308,1765220752065,-656,7997,-1081,0,0,0,0,0
309,1765220752182,-633,8049,-1024,0,0,0,0,0
310,1765220752231,-614,8075,-997,0,0,0,0,0
311,1765220752481,-647,8000,-1136,0,0,0,0,0
312,1765220752615,-644,8009,-1089,0,0,0,0,0
313,1765220752833,-648,8013,-987,0,0,0,0,0
314,1765220752981,-606,8082,-1086,0,0,0,0,0
315,1765220753257,-660,8001,-1066,0,0,0,0,0
316,1765220753366,-654,8032,-1027,0,0,0,0,0
317,1765220753515,-614,8041,-1065,0,0,0,0,0
318,1765220753748,-634,8039,-1037,0,0,0,0,0
319,1765220754032,-652,8048,-1053,0,0,0,0,0
320,1765220754164,-610,8028,-1017,0,0,0,0,0
321,1765220754382,-646,8027,-1078,0,0,0,0,0
322,1765220754549,-667,8010,-1065,0,0,0,0,0
323,1765220754765,-656,8056,-1026,0,0,0,0,0
324,1765220754898,-588,8036,-1028,0,0,0,0,0
325,1765220755114,-665,8046,-1104,0,0,0,0,0
326,1765220755282,-599,8074,-1018,0,0,0,0,0
327,1765220755500,-701,8061,-1076,0,0,0,0,0
328,1765220755648,-624,7957,-1027,0,0,0,0,0
329,1765220755748,-647,8035,-1024,0,0,0,0,0
330,1765220755831,-652,8018,-1067,0,0,0,0,0
331,1765220756065,-622,8053,-1006,0,0,0,0,0
332,1765220756166,-634,8038,-1044,0,0,0,0,0
333,1765220756415,-630,8022,-1034,0,0,0,0,0
334,1765220756599,-693,8047,-1040,0,0,0,0,0
335,1765220756831,-639,8140,-1028,0,0,0,0,0
336,1765220756931,-506,7948,-1039,0,0,0,0,0
337,1765220756998,-565,8038,-1054,0,0,0,0,0
338,1765220757215,-668,8031,-1031,0,0,0,0,0
339,1765220757432,-684,8067,-1046,0,0,0,0,0
340,1765220757715,-670,8045,-1051,0,0,0,0,0
341,1765220757765,-616,8020,-1050,0,0,0,0,0
342,1765220758014,-626,8060,-1045,0,0,0,0,0
343,1765220758382,-639,8061,-1082,0,0,0,0,0
344,1765220758498,-587,7983,-1002,0,0,0,0,0
345,1765220758714,-680,8076,-1056,0,0,0,0,0
346,1765220758781,-666,8007,-1092,0,0,0,0,0
347,1765220758863,-637,8065,-1046,0,0,0,0,0
348,1765220758930,-610,8020,-1055,0,0,0,0,0
349,1765220759248,-676,8056,-1044,0,0,0,0,0
350,1765220759397,-673,8102,-1117,0,0,0,0,0
351,1765220759646,-593,7925,-1012,0,0,0,0,0
352,1765220759713,-632,8055,-1005,0,0,0,0,0
353,1765220759997,-677,8059,-1101,0,0,0,0,0
354,1765220760132,-649,8040,-1064,0,0,0,0,0
355,1765220760348,-622,8039,-1027,0,0,0,0,0
356,1765220760448,-642,8012,-1048,0,0,0,0,0
357,1765220760832,-633,8036,-1055,0,0,0,0,0
358,1765220761081,-627,8018,-1057,0,0,0,0,0
359,1765220761232,-633,8031,-1068,0,0,0,0,0
360,1765220761365,-662,7978,-1027,0,0,0,0,0
361,1765220761532,-633,8068,-1032,0,0,0,0,0
362,1765220761648,-606,8021,-1053,0,0,0,0,0
363,1765220761946,-622,8062,-1046,0,0,0,0,0
364,1765220762148,-628,8046,-1048,0,0,0,0,0
365,1765220762315,-642,8021,-1050,0,0,0,0,0
366,1765220762415,-638,8014,-1004,0,0,0,0,0
367,1765220762564,-641,8036,-1056,0,0,0,0,0
368,1765220762715,-646,8052,-1080,0,0,0,0,0
369,1765220762931,-630,8047,-1020,0,0,0,0,0
370,1765220763080,-633,8024,-1001,0,0,0,0,0
371,1765220763232,-633,8061,-1074,0,0,0,0,0
372,1765220763366,-660,8047,-1052,0,0,0,0,0
373,1765220763548,-636,8014,-1024,0,0,0,0,0
374,1765220763663,-608,8052,-1055,0,0,0,0,0
375,1765220763814,-624,7998,-1054,0,0,0,0,0
376,1765220764031,-659,8074,-1037,0,0,0,0,0
377,1765220764205,-634,8008,-1066,0,0,0,0,0
378,1765220764298,-742,8112,-1028,0,0,0,0,0
379,1765220764415,-539,8133,-1052,0,0,0,0,0
380,1765220764582,-620,8048,-973,0,0,0,0,0
381,1765220765083,-645,8037,-1066,0,0,0,0,0
382,1765220765232,-626,8023,-1029,0,0,0,0,0
383,1765220765363,-647,8054,-1036,0,0,0,0,0
384,1765220765498,-628,8031,-1024,0,0,0,0,0
385,1765220765565,-660,8049,-1082,0,0,0,0,0
386,1765220765815,-636,8058,-1049,0,0,0,0,0
387,1765220765931,-636,8023,-1032,0,0,0,0,0
388,1765220766065,-657,8091,-1040,0,0,0,0,0
389,1765220766247,-623,8003,-1053,0,0,0,0,0
390,1765220766348,-626,8040,-1041,0,0,0,0,0
391,1765220766548,-622,8057,-1037,0,0,0,0,0
392,1765220766614,-614,8030,-1028,0,0,0,0,0
393,1765220766796,-630,8058,-1074,0,0,0,0,0
394,1765220767081,-644,8054,-1031,0,0,0,0,0
395,1765220767265,-630,8013,-1028,0,0,0,0,0
396,1765220767430,-612,8053,-1056,0,0,0,0,0
397,1765220767564,-632,8030,-1031,0,0,0,0,0
398,1765220767814,-650,8052,-1040,0,0,0,0,0
399,1765220768064,-632,8018,-1057,0,0,0,0,0
400,1765220768198,-634,8037,-1064,0,0,0,0,0
401,1765220768348,-638,8034,-1030,0,0,0,0,0
402,1765220768465,-637,8039,-1042,0,0,0,0,0
403,1765220768549,-617,8025,-1032,0,0,0,0,0
404,1765220768848,-646,8029,-1064,0,0,0,0,0
405,1765220769048,-636,8032,-1058,0,0,0,0,0
406,1765220769265,-629,8037,-1046,0,0,0,0,0
407,1765220769332,-631,8036,-1048,0,0,0,0,0
408,1765220769648,-648,8052,-1048,0,0,0,0,0
409,1765220769799,-632,8026,-1044,0,0,0,0,0
410,1765220770064,-632,8032,-1041,0,0,0,0,0
411,1765220770217,-637,8025,-1044,0,0,0,0,0
412,1765220770348,-624,8039,-1046,0,0,0,0,0
413,1765220770514,-641,8043,-1040,0,0,0,0,0
414,1765220770998,-625,8010,-1082,0,0,0,0,0
415,1765220771148,-616,8077,-971,0,0,0,0,0
416,1765220771298,-626,8040,-993,0,0,0,0,0
417,1765220771365,-644,7978,-1090,0,0,0,0,0
418,1765220771464,-672,8059,-1150,0,0,0,0,0
419,1765220771765,-610,8034,-1024,0,0,0,0,0
420,1765220771865,-613,8054,-984,0,0,0,0,0
421,1765220772115,-660,8048,-1124,0,0,0,0,0
422,1765220772215,-677,7968,-1203,0,0,0,0,0
423,1765220772532,-633,8087,-1019,0,0,0,0,0
424,1765220772698,-630,8033,-1028,0,0,0,0,0
425,1765220772931,-620,8079,-1020,0,0,0,0,0
426,1765220773048,-650,8022,-1062,0,0,0,0,0
427,1765220773298,-633,7971,-990,0,0,0,0,0
428,1765220773398,-681,8055,-1061,0,0,0,0,0
429,1765220773681,-631,8096,-1080,0,0,0,0,0
430,1765220773833,-648,8040,-1052,0,0,0,0,0
431,1765220774031,-638,8030,-1048,0,0,0,0,0
432,1765220774131,-647,8048,-1044,0,0,0,0,0
433,1765220774598,-660,8000,-1084,0,0,0,0,0
434,1765220774798,-614,8052,-1010,0,0,0,0,0
435,1765220774882,-630,8042,-1084,0,0,0,0,0
436,1765220775136,-636,8004,-1047,0,0,0,0,0
437,1765220775364,-649,8071,-1024,0,0,0,0,0
438,1765220775549,-656,8050,-1077,0,0,0,0,0
439,1765220775748,-652,8050,-1062,0,0,0,0,0
440,1765220775865,-628,8031,-1030,0,0,0,0,0
441,1765220776132,-635,8057,-1058,0,0,0,0,0
442,1765220776382,-648,8046,-1071,0,0,0,0,0
443,1765220776532,-639,8042,-1033,0,0,0,0,0
444,1765220776731,-632,8020,-1036,0,0,0,0,0
445,1765220776931,-636,8030,-1034,0,0,0,0,0
446,1765220777081,-636,8032,-1031,0,0,0,0,0
447,1765220777266,-640,8030,-1045,0,0,0,0,0
448,1765220777431,-641,8038,-1074,0,0,0,0,0
449,1765220777665,-621,8022,-1022,0,0,0,0,0
450,1765220777747,-633,8004,-1052,0,0,0,0,0
451,1765220778031,-660,8015,-1004,0,0,0,0,0
452,1765220778182,-640,8081,-1083,0,0,0,0,0
453,1765220778415,-624,7976,-1084,0,0,0,0,0
454,1765220778515,-640,8031,-941,0,0,0,0,0
455,1765220778797,-634,8064,-1008,0,0,0,0,0
456,1765220778966,-622,7995,-1069,0,0,0,0,0
457,1765220779182,-654,8055,-1066,0,0,0,0,0
458,1765220779348,-636,8012,-1046,0,0,0,0,0
459,1765220779582,-625,8071,-978,0,0,0,0,0
460,1765220779847,-640,8030,-1107,0,0,0,0,0
461,1765220780066,-635,8006,-995,0,0,0,0,0
462,1765220780181,-665,8063,-1101,0,0,0,0,0
463,1765220780348,-630,7988,-1072,0,0,0,0,0
464,1765220780782,-639,8017,-1061,0,0,0,0,0
465,1765220780882,-631,8030,-1054,0,0,0,0,0
466,1765220781098,-632,8058,-1036,0,0,0,0,0
467,1765220781232,-682,8046,-1080,0,0,0,0,0
468,1765220781548,-634,8024,-1085,0,0,0,0,0
469,1765220781698,-603,8032,-1034,0,0,0,0,0
470,1765220781948,-631,8023,-1057,0,0,0,0,0
471,1765220782030,-627,8042,-1017,0,0,0,0,0
472,1765220782249,-647,8031,-1056,0,0,0,0,0
473,1765220782413,-628,8047,-1042,0,0,0,0,0
474,1765220782731,-634,8051,-1024,0,0,0,0,0
475,1765220782814,-648,8037,-1069,0,0,0,0,0
476,1765220783097,-654,8058,-1072,0,0,0,0,0
477,1765220783197,-627,8021,-1043,0,0,0,0,0
478,1765220783514,-645,8030,-1046,0,0,0,0,0
479,1765220783664,-628,7980,-1078,0,0,0,0,0
480,1765220783898,-656,8110,-1045,0,0,0,0,0
481,1765220783964,-647,8032,-1052,0,0,0,0,0
482,1765220784214,-664,8076,-1092,0,0,0,0,0
483,1765220784413,-633,7996,-1093,0,0,0,0,0
484,1765220784631,-642,8056,-1005,0,0,0,0,0
485,1765220784714,-655,7980,-989,0,0,0,0,0
486,1765220784815,-624,8015,-1060,0,0,0,0,0
487,1765220784981,-646,8077,-1060,0,0,0,0,0
488,1765220785215,-633,7976,-1020,0,0,0,0,0
489,1765220785465,-643,7996,-1107,0,0,0,0,0
490,1765220785582,-621,8080,-1079,0,0,0,0,0
491,1765220785830,-626,8018,-986,0,0,0,0,0
492,1765220786072,-664,8053,-985,0,0,0,0,0
493,1765220786248,-620,8026,-1070,0,0,0,0,0
494,1765220786348,-658,8041,-1042,0,0,0,0,0
495,1765220786598,-662,8024,-1036,0,0,0,0,0
496,1765220786749,-636,8038,-1045,0,0,0,0,0
497,1765220787014,-640,8041,-1010,0,0,0,0,0
498,1765220787114,-651,8033,-1068,0,0,0,0,0
499,1765220787215,-632,8052,-1045,0,0,0,0,0
500,1765220787331,-606,7982,-1070,0,0,0,0,0
501,1765220787514,-664,8024,-1062,0,0,0,0,0
502,1765220787682,-656,8039,-1024,0,0,0,0,0
503,1765220787897,-626,8062,-1015,0,0,0,0,0
504,1765220788049,-640,8030,-1033,0,0,0,0,0
505,1765220788247,-645,8038,-1064,0,0,0,0,0
506,1765220788414,-630,8024,-1033,0,0,0,0,0
507,1765220788648,-633,8026,-1048,0,0,0,0,0
508,1765220788882,-628,8042,-1036,0,0,0,0,0
509,1765220789013,-616,8044,-1043,0,0,0,0,0
510,1765220789114,-632,8036,-1054,0,0,0,0,0
511,1765220789197,-628,8035,-1044,0,0,0,0,0
512,1765220789432,-632,8037,-1036,0,0,0,0,0
513,1765220789630,-640,8032,-1056,0,0,0,0,0
514,1765220789846,-652,8026,-1060,0,0,0,0,0
515,1765220789929,-638,8005,-1026,0,0,0,0,0
516,1765220790164,-628,8082,-1030,0,0,0,0,0
517,1765220790265,-654,7996,-1112,0,0,0,0,0
518,1765220790315,-648,8055,-1046,0,0,0,0,0
519,1765220790615,-640,8004,-1042,0,0,0,0,0
520,1765220790698,-628,8065,-1049,0,0,0,0,0
521,1765220790931,-640,8049,-1028,0,0,0,0,0
522,1765220791066,-641,8037,-1053,0,0,0,0,0
523,1765220791280,-635,8012,-1052,0,0,0,0,0
524,1765220791430,-650,8059,-1058,0,0,0,0,0
525,1765220791714,-650,8032,-1087,0,0,0,0,0
526,1765220791830,-628,8041,-1054,0,0,0,0,0
527,1765220792047,-633,8036,-1026,0,0,0,0,0
528,1765220792230,-640,8047,-1061,0,0,0,0,0
529,1765220792530,-650,8027,-1039,0,0,0,0,0
530,1765220792596,-642,8030,-1052,0,0,0,0,0
531,1765220792797,-648,8026,-1067,0,0,0,0,0
532,1765220792982,-642,8046,-1033,0,0,0,0,0
533,1765220793097,-621,8066,-1015,0,0,0,0,0
534,1765220793481,-636,8034,-1047,0,0,0,0,0
535,1765220793613,-641,8029,-1032,0,0,0,0,0
536,1765220793780,-635,8057,-1053,0,0,0,0,0
537,1765220794199,-639,8037,-1010,0,0,0,0,0
538,1765220794365,-638,8029,-1046,0,0,0,0,0
539,1765220794531,-646,8040,-1058,0,0,0,0,0
540,1765220794682,-650,8034,-1062,0,0,0,0,0
541,1765220794863,-643,8044,-1043,0,0,0,0,0
542,1765220795013,-647,8051,-1038,0,0,0,0,0
543,1765220795180,-646,8044,-1033,0,0,0,0,0
544,1765220795432,-632,8032,-1061,0,0,0,0,0
545,1765220795530,-633,8042,-1066,0,0,0,0,0
546,1765220795714,-639,8035,-1037,0,0,0,0,0
547,1765220795814,-642,8034,-1044,0,0,0,0,0
548,1765220795980,-639,8027,-1038,0,0,0,0,0
549,1765220796097,-642,8030,-1043,0,0,0,0,0
550,1765220796264,-655,8069,-1033,0,0,0,0,0
551,1765220796381,-626,8038,-1075,0,0,0,0,0
552,1765220796648,-642,8035,-1058,0,0,0,0,0
553,1765220796748,-637,8057,-1096,0,0,0,0,0
554,1765220797006,-662,8010,-1040,0,0,0,0,0
555,1765220797031,-657,8022,-1028,0,0,0,0,0
556,1765220797330,-630,8035,-1043,0,0,0,0,0
557,1765220797397,-633,8031,-1060,0,0,0,0,0
558,1765220797615,-639,8045,-1050,0,0,0,0,0
559,1765220797712,-656,8018,-1020,0,0,0,0,0
560,1765220797981,-657,8042,-1050,0,0,0,0,0
561,1765220798082,-622,8017,-1043,0,0,0,0,0
562,1765220798264,-632,8050,-1063,0,0,0,0,0
563,1765220798382,-634,8011,-1052,0,0,0,0,0
564,1765220798630,-626,8035,-1069,0,0,0,0,0
565,1765220798763,-637,8020,-1030,0,0,0,0,0
566,1765220798914,-646,8053,-1062,0,0,0,0,0
567,1765220799048,-631,8036,-1035,0,0,0,0,0
568,1765220799265,-644,8079,-1028,0,0,0,0,0
569,1765220799431,-635,8016,-1079,0,0,0,0,0
570,1765220799549,-658,8034,-1079,0,0,0,0,0
571,1765220799714,-635,8040,-1033,0,0,0,0,0
572,1765220799913,-621,8106,-1062,0,0,0,0,0
573,1765220800065,-648,7982,-1021,0,0,0,0,0
574,1765220800197,-642,7998,-1048,0,0,0,0,0
575,1765220800365,-677,8218,-1026,0,0,0,0,0
576,1765220800496,-572,7966,-1088,0,0,0,0,0
577,1765220800564,-650,7976,-1078,0,0,0,0,0
578,1765220800747,-615,7990,-940,0,0,0,0,0
579,1765220800846,-642,8172,-1058,0,0,0,0,0
580,1765220801031,-586,7895,-1090,0,0,0,0,0
581,1765220801131,-726,8046,-1030,0,0,0,0,0
582,1765220801214,-672,8021,-1080,0,0,0,0,0
583,1765220801397,-667,8055,-1066,0,0,0,0,0
584,1765220801499,-571,8032,-1024,0,0,0,0,0
585,1765220801697,-658,8072,-1057,0,0,0,0,0
586,1765220801783,-696,7999,-1063,0,0,0,0,0
587,1765220802081,-642,8052,-1060,0,0,0,0,0
588,1765220802130,-652,8030,-1017,0,0,0,0,0
589,1765220802348,-633,8039,-1040,0,0,0,0,0
590,1765220802431,-655,8036,-1075,0,0,0,0,0
591,1765220802698,-667,8050,-1035,0,0,0,0,0
592,1765220802779,-600,8027,-1057,0,0,0,0,0
593,1765220802996,-632,8054,-1105,0,0,0,0,0
594,1765220803081,-664,8009,-1110,0,0,0,0,0
595,1765220803348,-635,8032,-1082,0,0,0,0,0
596,1765220803432,-659,8034,-1045,0,0,0,0,0
597,1765220803664,-641,8040,-1011,0,0,0,0,0
598,1765220803713,-612,8061,-979,0,0,0,0,0
599,1765220804013,-638,8049,-1008,0,0,0,0,0
600,1765220804096,-639,8021,-1046,0,0,0,0,0
601,1765220804298,-648,8076,-1076,0,0,0,0,0
602,1765220804418,-631,7979,-1108,0,0,0,0,0
603,1765220804631,-624,8060,-1003,0,0,0,0,0
604,1765220804765,-652,8027,-1070,0,0,0,0,0
605,1765220804930,-616,8026,-1094,0,0,0,0,0
606,1765220805098,-627,8057,-1031,0,0,0,0,0
607,1765220805215,-646,7998,-1111,0,0,0,0,0
608,1765220805463,-631,8027,-1026,0,0,0,0,0
609,1765220805531,-634,8049,-1023,0,0,0,0,0
610,1765220805781,-650,8037,-1068,0,0,0,0,0
611,1765220805880,-638,8066,-1074,0,0,0,0,0
612,1765220806114,-643,8023,-1040,0,0,0,0,0
613,1765220806196,-633,8019,-1034,0,0,0,0,0
614,1765220806399,-640,8052,-1038,0,0,0,0,0
615,1765220806564,-629,8025,-1061,0,0,0,0,0
616,1765220806714,-640,8033,-998,0,0,0,0,0
617,1765220806930,-646,8042,-1038,0,0,0,0,0
618,1765220807014,-636,8034,-1060,0,0,0,0,0
619,1765220807247,-635,8033,-1074,0,0,0,0,0
620,1765220807348,-628,8069,-1032,0,0,0,0,0
621,1765220807564,-659,7984,-1098,0,0,0,0,0
622,1765220807698,-622,8042,-1049,0,0,0,0,0
623,1765220807949,-636,8068,-958,0,0,0,0,0
624,1765220808065,-643,8031,-1033,0,0,0,0,0
625,1765220808165,-602,8080,-1039,0,0,0,0,0
626,1765220808448,-676,7996,-1084,0,0,0,0,0
627,1765220808812,-631,8041,-1064,0,0,0,0,0
628,1765220808930,-629,8061,-1038,0,0,0,0,0
629,1765220809129,-645,8042,-993,0,0,0,0,0
630,1765220809281,-656,8074,-1044,0,0,0,0,0
631,1765220809513,-648,7998,-1038,0,0,0,0,0
632,1765220809564,-616,8050,-1064,0,0,0,0,0
633,1765220810014,-635,8028,-1048,0,0,0,0,0
634,1765220810248,-630,8038,-1037,0,0,0,0,0
635,1765220810398,-634,8029,-1057,0,0,0,0,0
636,1765220810596,-641,8047,-1053,0,0,0,0,0
637,1765220810679,-638,8027,-1042,0,0,0,0,0
638,1765220810963,-640,8034,-1049,0,0,0,0,0
639,1765220811097,-636,8041,-1046,0,0,0,0,0
640,1765220811280,-636,8026,-1067,0,0,0,0,0
641,1765220811382,-649,8030,-1030,0,0,0,0,0
642,1765220811697,-644,8030,-1030,0,0,0,0,0
643,1765220811831,-584,8042,-1146,0,0,0,0,0
644,1765220812013,-658,8029,-1049,0,0,0,0,0
645,1765220812114,-638,8030,-1059,0,0,0,0,0
646,1765220812515,-628,8032,-1032,0,0,0,0,0
647,1765220812648,-652,8038,-1025,0,0,0,0,0
648,1765220812798,-649,8052,-1061,0,0,0,0,0
649,1765220813148,-627,8040,-1050,0,0,0,0,0
650,1765220813264,-639,8034,-1030,0,0,0,0,0
651,1765220813447,-636,8038,-1058,0,0,0,0,0
652,1765220813815,-626,8043,-1052,0,0,0,0,0
653,1765220813896,-642,8031,-1043,0,0,0,0,0
654,1765220814114,-646,8046,-1066,0,0,0,0,0
655,1765220814231,-630,8036,-1053,0,0,0,0,0
656,1765220814364,-646,8035,-1020,0,0,0,0,0
657,1765220814515,-635,8039,-1057,0,0,0,0,0
658,1765220814764,-630,8037,-1076,0,0,0,0,0
659,1765220814847,-625,8040,-1044,0,0,0,0,0
660,1765220815014,-646,8030,-1062,0,0,0,0,0
661,1765220815214,-628,8050,-1070,0,0,0,0,0
662,1765220815381,-624,8037,-1029,0,0,0,0,0
663,1765220815514,-653,8035,-1030,0,0,0,0,0
664,1765220815647,-647,8038,-1037,0,0,0,0,0
665,1765220815847,-653,8055,-1042,0,0,0,0,0
666,1765220816031,-631,8034,-1062,0,0,0,0,0
667,1765220816181,-655,8053,-1060,0,0,0,0,0
668,1765220816248,-633,8058,-1067,0,0,0,0,0
669,1765220816314,-640,8019,-1074,0,0,0,0,0
670,1765220816564,-653,8044,-1024,0,0,0,0,0
671,1765220816847,-626,8052,-1036,0,0,0,0,0
672,1765220816997,-661,8051,-1047,0,0,0,0,0
673,1765220817081,-622,8010,-1060,0,0,0,0,0
674,1765220817297,-622,8054,-1062,0,0,0,0,0
675,1765220817498,-657,8025,-1038,0,0,0,0,0
676,1765220817698,-634,8016,-1072,0,0,0,0,0
677,1765220817766,-659,7842,-1195,0,0,0,0,0
678,1765220817997,-544,8071,-974,0,0,0,0,0
679,1765220818130,-636,8001,-1112,0,0,0,0,0
680,1765220818414,-626,8072,-1061,0,0,0,0,0
681,1765220818515,-654,8046,-998,0,0,0,0,0
682,1765220818732,-650,8028,-1075,0,0,0,0,0
683,1765220818765,-656,8033,-1044,0,0,0,0,0
684,1765220818883,-636,8046,-1027,0,0,0,0,0
685,1765220819114,-616,8040,-1044,0,0,0,0,0
686,1765220819248,-639,8041,-1044,0,0,0,0,0
687,1765220819448,-645,8036,-1078,0,0,0,0,0
688,1765220819564,-620,8034,-1025,0,0,0,0,0
689,1765220819781,-640,8065,-1040,0,0,0,0,0
690,1765220820248,-627,8031,-1054,0,0,0,0,0
691,1765220820314,-681,8067,-1055,0,0,0,0,0
692,1765220820548,-642,7984,-1029,0,0,0,0,0
693,1765220820680,-638,8050,-1033,0,0,0,0,0
694,1765220820915,-627,8043,-1056,0,0,0,0,0
695,1765220821013,-643,8038,-1042,0,0,0,0,0
696,1765220821247,-628,8043,-1043,0,0,0,0,0
697,1765220821398,-663,8040,-1050,0,0,0,0,0
698,1765220821532,-604,8035,-1005,0,0,0,0,0
699,1765220821748,-628,8028,-1068,0,0,0,0,0
700,1765220821981,-658,8038,-1034,0,0,0,0,0
701,1765220822131,-628,8024,-1052,0,0,0,0,0
702,1765220822314,-633,8053,-1044,0,0,0,0,0
703,1765220822464,-644,8030,-1047,0,0,0,0,0
704,1765220822664,-639,8024,-1076,0,0,0,0,0
705,1765220822831,-642,8012,-1048,0,0,0,0,0
706,1765220822997,-637,8049,-1045,0,0,0,0,0
707,1765220823198,-611,8016,-1060,0,0,0,0,0
708,1765220823448,-601,8049,-1055,0,0,0,0,0
709,1765220823581,-662,8020,-1028,0,0,0,0,0
710,1765220823931,-623,7988,-1036,0,0,0,0,0
711,1765220824031,-658,8069,-1044,0,0,0,0,0
712,1765220824264,-622,8046,-1048,0,0,0,0,0
713,1765220824398,-650,8054,-1062,0,0,0,0,0
714,1765220824581,-641,8012,-1080,0,0,0,0,0
715,1765220824681,-685,8046,-1081,0,0,0,0,0
716,1765220824981,-611,8027,-1032,0,0,0,0,0
717,1765220825131,-643,8045,-1064,0,0,0,0,0
718,1765220825364,-634,8008,-1014,0,0,0,0,0
719,1765220825464,-640,8076,-1042,0,0,0,0,0
720,1765220825698,-640,8035,-1060,0,0,0,0,0
721,1765220825846,-637,8038,-1028,0,0,0,0,0
722,1765220826098,-654,8035,-1057,0,0,0,0,0
723,1765220826164,-657,8028,-1061,0,0,0,0,0
724,1765220826364,-657,8001,-1032,0,0,0,0,0
725,1765220826514,-620,8036,-1052,0,0,0,0,0
726,1765220826831,-634,8050,-1052,0,0,0,0,0
727,1765220826948,-634,8002,-1036,0,0,0,0,0
728,1765220827081,-632,8050,-1041,0,0,0,0,0
729,1765220827247,-644,8015,-1045,0,0,0,0,0
730,1765220827464,-658,8042,-1051,0,0,0,0,0
731,1765220827681,-642,8030,-1071,0,0,0,0,0
732,1765220827881,-624,8070,-1060,0,0,0,0,0
733,1765220827981,-616,7962,-1056,0,0,0,0,0
734,1765220828331,-642,8065,-1083,0,0,0,0,0
735,1765220828564,-631,8013,-1047,0,0,0,0,0
736,1765220828714,-648,8022,-1028,0,0,0,0,0
737,1765220828848,-626,8004,-1049,0,0,0,0,0
738,1765220829031,-663,8061,-1060,0,0,0,0,0
739,1765220829181,-659,8022,-1063,0,0,0,0,0
740,1765220829548,-648,8045,-1064,0,0,0,0,0
741,1765220829631,-644,8035,-1063,0,0,0,0,0
742,1765220829845,-649,8041,-1044,0,0,0,0,0
743,1765220830298,-592,8040,-1060,0,0,0,0,0
744,1765220830447,-693,7983,-1076,0,0,0,0,0
745,1765220830597,-611,8147,-1058,0,0,0,0,0
746,1765220830714,-635,8052,-1055,0,0,0,0,0
747,1765220830831,-636,8029,-1052,0,0,0,0,0
748,1765220831031,-642,8036,-1036,0,0,0,0,0
749,1765220831197,-640,8050,-1048,0,0,0,0,0
750,1765220831448,-618,8047,-1048,0,0,0,0,0
751,1765220831563,-651,8037,-1030,0,0,0,0,0
752,1765220831813,-643,8043,-1049,0,0,0,0,0
753,1765220831847,-638,8024,-1026,0,0,0,0,0
754,1765220832047,-633,8047,-1069,0,0,0,0,0
755,1765220832231,-643,8023,-1064,0,0,0,0,0
756,1765220832348,-646,8032,-1029,0,0,0,0,0
757,1765220832614,-647,8023,-1065,0,0,0,0,0
758,1765220832697,-634,8050,-1034,0,0,0,0,0
759,1765220832965,-615,8031,-1034,0,0,0,0,0
760,1765220833030,-653,8036,-1039,0,0,0,0,0
761,1765220833047,-617,8064,-1076,0,0,0,0,0
762,1765220833164,-684,7993,-1071,0,0,0,0,0
763,1765220833347,-638,8063,-1048,0,0,0,0,0
764,1765220833447,-580,8054,-1021,0,0,0,0,0
765,1765220833931,-695,8000,-1009,0,0,0,0,0
766,1765220834114,-664,8026,-1094,0,0,0,0,0
767,1765220834215,-628,8014,-1058,0,0,0,0,0
768,1765220834348,-642,8044,-1017,0,0,0,0,0
769,1765220834448,-630,8040,-1070,0,0,0,0,0
770,1765220834681,-645,8036,-1051,0,0,0,0,0
771,1765220834798,-642,8047,-1039,0,0,0,0,0
772,1765220835081,-579,7977,-1166,0,0,0,0,0
773,1765220835148,-558,8009,-930,0,0,0,0,0
774,1765220835380,-535,8058,-962,0,0,0,0,0
775,1765220835564,-632,8012,-1067,0,0,0,0,0
776,1765220835848,-686,8042,-1000,0,0,0,0,0
777,1765220835931,-615,8024,-1062,0,0,0,0,0
778,1765220836164,-621,8044,-1051,0,0,0,0,0
779,1765220836329,-625,8023,-1058,0,0,0,0,0
780,1765220836480,-630,8042,-1043,0,0,0,0,0
781,1765220836631,-614,8040,-1056,0,0,0,0,0
782,1765220836731,-606,8042,-1004,0,0,0,0,0
783,1765220836797,-620,8057,-1064,0,0,0,0,0
784,1765220837031,-621,8013,-1073,0,0,0,0,0
785,1765220837096,-641,8040,-1051,0,0,0,0,0
786,1765220837347,-623,8062,-1058,0,0,0,0,0
787,1765220837562,-629,8023,-1080,0,0,0,0,0
788,1765220837764,-642,8024,-1026,0,0,0,0,0
789,1765220837848,-604,8067,-1022,0,0,0,0,0
790,1765220837965,-622,7987,-998,0,0,0,0,0
791,1765220838079,-620,8050,-1037,0,0,0,0,0
792,1765220838249,-643,8067,-1156,0,0,0,0,0
793,1765220838431,-613,7976,-1079,0,0,0,0,0
794,1765220838697,-665,8123,-1101,0,0,0,0,0
795,1765220838864,-628,7936,-1074,0,0,0,0,0
796,1765220838997,-617,8072,-1018,0,0,0,0,0
797,1765220839448,-790,7836,-1154,0,0,0,0,0
798,1765220839580,-697,8177,-800,0,0,0,0,0
799,1765220839730,-449,8170,-931,0,0,0,0,0
800,1765220839764,-688,7966,-1082,0,0,0,0,0
801,1765220839880,-556,8048,-992,0,0,0,0,0
802,1765220840146,-600,8062,-1030,0,0,0,0,0
803,1765220840264,-716,7982,-1104,0,0,0,0,0
804,1765220840464,-665,8030,-1028,0,0,0,0,0
805,1765220840580,-624,8016,-1078,0,0,0,0,0
806,1765220840881,-613,8067,-1057,0,0,0,0,0
807,1765220841030,-634,8030,-1093,0,0,0,0,0
808,1765220841281,-634,7996,-1115,0,0,0,0,0
809,1765220841348,-624,8066,-1032,0,0,0,0,0
810,1765220841564,-611,8025,-975,0,0,0,0,0
811,1765220841730,-635,8037,-1069,0,0,0,0,0
812,1765220841981,-619,8049,-1034,0,0,0,0,0
813,1765220842048,-641,8037,-1011,0,0,0,0,0
814,1765220842281,-615,8033,-1022,0,0,0,0,0
815,1765220842430,-641,8038,-1053,0,0,0,0,0
816,1765220842731,-632,8023,-1073,0,0,0,0,0
817,1765220842831,-622,8055,-1036,0,0,0,0,0
818,1765220843047,-599,8078,-1084,0,0,0,0,0
819,1765220843164,-644,7997,-1102,0,0,0,0,0
820,1765220843413,-650,8058,-1025,0,0,0,0,0
821,1765220843498,-597,8057,-1031,0,0,0,0,0
822,1765220843564,-632,8047,-1054,0,0,0,0,0
823,1765220843698,-614,8069,-1100,0,0,0,0,0
824,1765220843864,-627,8020,-1029,0,0,0,0,0
825,1765220844047,-642,8044,-1037,0,0,0,0,0
826,1765220844247,-619,8053,-1041,0,0,0,0,0
827,1765220844514,-632,8032,-1007,0,0,0,0,0
828,1765220844614,-670,8035,-1055,0,0,0,0,0
829,1765220844814,-627,8057,-1037,0,0,0,0,0
830,1765220844996,-619,8034,-1042,0,0,0,0,0
831,1765220845215,-624,8048,-1058,0,0,0,0,0
832,1765220845332,-642,8020,-1046,0,0,0,0,0
833,1765220845398,-624,8086,-1030,0,0,0,0,0
834,1765220845481,-618,8037,-1034,0,0,0,0,0
835,1765220845697,-597,8051,-1057,0,0,0,0,0
836,1765220845964,-665,8040,-1078,0,0,0,0,0
837,1765220846147,-589,7966,-1078,0,0,0,0,0
838,1765220846248,-594,8067,-1106,0,0,0,0,0
839,1765220846447,-692,7982,-1050,0,0,0,0,0
840,1765220846580,-635,7972,-1034,0,0,0,0,0
841,1765220846797,-654,8018,-1040,0,0,0,0,0
842,1765220846898,-601,8084,-1090,0,0,0,0,0
843,1765220847130,-608,7994,-986,0,0,0,0,0
844,1765220847247,-670,8074,-1059,0,0,0,0,0
845,1765220847281,-658,8006,-1060,0,0,0,0,0
846,1765220847448,-612,8054,-1038,0,0,0,0,0
847,1765220847680,-608,8054,-1044,0,0,0,0,0
848,1765220847914,-658,8051,-1058,0,0,0,0,0
849,1765220848030,-606,8033,-1004,0,0,0,0,0
850,1765220848247,-612,8065,-1042,0,0,0,0,0
851,1765220848330,-638,8030,-1080,0,0,0,0,0
852,1765220848564,-618,8043,-1036,0,0,0,0,0
853,1765220848731,-628,8042,-1036,0,0,0,0,0
854,1765220848914,-641,8030,-1067,0,0,0,0,0
855,1765220849031,-636,8033,-1052,0,0,0,0,0
856,1765220849464,-640,8048,-1049,0,0,0,0,0
857,1765220849648,-628,8028,-1048,0,0,0,0,0
858,1765220849847,-619,8032,-1043,0,0,0,0,0
859,1765220849931,-660,8032,-1075,0,0,0,0,0
860,1765220850181,-625,8024,-1050,0,0,0,0,0
861,1765220850347,-646,8070,-1038,0,0,0,0,0
862,1765220850562,-632,8013,-1078,0,0,0,0,0
863,1765220850646,-632,8052,-1067,0,0,0,0,0
864,1765220850864,-645,8044,-1046,0,0,0,0,0
865,1765220851047,-639,8043,-1068,0,0,0,0,0
866,1765220851330,-626,8050,-1039,0,0,0,0,0
867,1765220851447,-634,8022,-1031,0,0,0,0,0
868,1765220851703,-654,8050,-1032,0,0,0,0,0
869,1765220851764,-597,8037,-1032,0,0,0,0,0
870,1765220852047,-645,8018,-1067,0,0,0,0,0
871,1765220852114,-664,8056,-1056,0,0,0,0,0
872,1765220852364,-636,8004,-1088,0,0,0,0,0
873,1765220852480,-610,8017,-1052,0,0,0,0,0
874,1765220852781,-628,8043,-1053,0,0,0,0,0
875,1765220852914,-629,8043,-1029,0,0,0,0,0
876,1765220853146,-650,8042,-1071,0,0,0,0,0
877,1765220853214,-620,7998,-1065,0,0,0,0,0
878,1765220853498,-623,8077,-1034,0,0,0,0,0
879,1765220853645,-669,8058,-1084,0,0,0,0,0
880,1765220853864,-622,8000,-1058,0,0,0,0,0
881,1765220853946,-668,8048,-1008,0,0,0,0,0
882,1765220854164,-624,8026,-1044,0,0,0,0,0
883,1765220854347,-652,8054,-1065,0,0,0,0,0
884,1765220854631,-634,8032,-1030,0,0,0,0,0
885,1765220854797,-625,8046,-1041,0,0,0,0,0
886,1765220855014,-629,8015,-1066,0,0,0,0,0
887,1765220855081,-638,8030,-1046,0,0,0,0,0
888,1765220855348,-615,8035,-1040,0,0,0,0,0
889,1765220855481,-612,8033,-1035,0,0,0,0,0
890,1765220855680,-642,8034,-1040,0,0,0,0,0
891,1765220855779,-617,8012,-1074,0,0,0,0,0
892,1765220856248,-612,8053,-1072,0,0,0,0,0
893,1765220856446,-642,8043,-1054,0,0,0,0,0
894,1765220856531,-630,8042,-1050,0,0,0,0,0
895,1765220856731,-616,8046,-1058,0,0,0,0,0
896,1765220856947,-624,8048,-1050,0,0,0,0,0
897,1765220857147,-646,8028,-1020,0,0,0,0,0
898,1765220857331,-633,8024,-1037,0,0,0,0,0
899,1765220857448,-623,8043,-1027,0,0,0,0,0
900,1765220857631,-641,8040,-1084,0,0,0,0,0
901,1765220858064,-628,8056,-1041,0,0,0,0,0
902,1765220858214,-622,8039,-1050,0,0,0,0,0
903,1765220858364,-640,8021,-1078,0,0,0,0,0
904,1765220858514,-620,8091,-1063,0,0,0,0,0
905,1765220858797,-622,8004,-1043,0,0,0,0,0
906,1765220858864,-643,8040,-1056,0,0,0,0,0
907,1765220859097,-626,8045,-1052,0,0,0,0,0
908,1765220859231,-613,8028,-1060,0,0,0,0,0
909,1765220859414,-644,8044,-1075,0,0,0,0,0
910,1765220859614,-615,8035,-1022,0,0,0,0,0
911,1765220859846,-623,8049,-1029,0,0,0,0,0
912,1765220859982,-623,8080,-1090,0,0,0,0,0
913,1765220860197,-622,7994,-1066,0,0,0,0,0
914,1765220860314,-637,8083,-1029,0,0,0,0,0
915,1765220860364,-628,8028,-1074,0,0,0,0,0
916,1765220860514,-622,8058,-1046,0,0,0,0,0
917,1765220860680,-628,8017,-1039,0,0,0,0,0
918,1765220860847,-640,8036,-1032,0,0,0,0,0
919,1765220861014,-664,8024,-1080,0,0,0,0,0
920,1765220861114,-660,8014,-1019,0,0,0,0,0
921,1765220861414,-600,8085,-1020,0,0,0,0,0
922,1765220861546,-612,7975,-1023,0,0,0,0,0
923,1765220861697,-602,7988,-1024,0,0,0,0,0
924,1765220861830,-610,8048,-1029,0,0,0,0,0
925,1765220862047,-638,8049,-1078,0,0,0,0,0
926,1765220862147,-640,7991,-1070,0,0,0,0,0
927,1765220862214,-632,8037,-1038,0,0,0,0,0
928,1765220862298,-632,8030,-1058,0,0,0,0,0
929,1765220862514,-624,8050,-1044,0,0,0,0,0
930,1765220862641,-627,8040,-1050,0,0,0,0,0
931,1765220863030,-625,8037,-1080,0,0,0,0,0
932,1765220863246,-614,8054,-1055,0,0,0,0,0
933,1765220863347,-646,8057,-1021,0,0,0,0,0
934,1765220863497,-652,8040,-1075,0,0,0,0,0
935,1765220863681,-619,8022,-1032,0,0,0,0,0
936,1765220863881,-620,8043,-1036,0,0,0,0,0
937,1765220864013,-626,8055,-1066,0,0,0,0,0
938,1765220864147,-626,8096,-1061,0,0,0,0,0
939,1765220864348,-612,8018,-1036,0,0,0,0,0
940,1765220864447,-646,8010,-1046,0,0,0,0,0
941,1765220864864,-631,8077,-1037,0,0,0,0,0
942,1765220864930,-651,8046,-1033,0,0,0,0,0
943,1765220865164,-613,8005,-1063,0,0,0,0,0
944,1765220865214,-572,8050,-1058,0,0,0,0,0
945,1765220865330,-560,8012,-1074,0,0,0,0,0
946,1765220865480,-645,8017,-1117,0,0,0,0,0
947,1765220865647,-697,8038,-1028,0,0,0,0,0
948,1765220865814,-603,8064,-943,0,0,0,0,0
949,1765220866047,-599,8025,-1133,0,0,0,0,0
950,1765220866164,-601,8052,-1025,0,0,0,0,0
951,1765220866413,-662,8036,-938,0,0,0,0,0
952,1765220866647,-647,7992,-1080,0,0,0,0,0
953,1765220866847,-630,8070,-1060,0,0,0,0,0
954,1765220866929,-599,8024,-1032,0,0,0,0,0
955,1765220867230,-629,8056,-1038,0,0,0,0,0
956,1765220867331,-622,8022,-1021,0,0,0,0,0
957,1765220867581,-628,8058,-1055,0,0,0,0,0
958,1765220867647,-624,8033,-1074,0,0,0,0,0
959,1765220867764,-630,8034,-1041,0,0,0,0,0
960,1765220867930,-616,8026,-1058,0,0,0,0,0
961,1765220868064,-638,8065,-1063,0,0,0,0,0
962,1765220868548,-635,8050,-1083,0,0,0,0,0
963,1765220868731,-615,8020,-1069,0,0,0,0,0
964,1765220868847,-633,8042,-1032,0,0,0,0,0
965,1765220868946,-641,8018,-1060,0,0,0,0,0
966,1765220869047,-628,8051,-1092,0,0,0,0,0
967,1765220869230,-649,8033,-1064,0,0,0,0,0
968,1765220869397,-640,8036,-1032,0,0,0,0,0
969,1765220869647,-630,8092,-1061,0,0,0,0,0
970,1765220869764,-614,8007,-1014,0,0,0,0,0
971,1765220869930,-646,7991,-1001,0,0,0,0,0
972,1765220870163,-636,8012,-1043,0,0,0,0,0
973,1765220870431,-646,8036,-1054,0,0,0,0,0
974,1765220870530,-627,8045,-1059,0,0,0,0,0
975,1765220870712,-616,8030,-1057,0,0,0,0,0
976,1765220870780,-646,8034,-1015,0,0,0,0,0
977,1765220870947,-646,8032,-999,0,0,0,0,0
978,1765220871063,-628,8038,-1278,0,0,0,0,0
979,1765220871247,-621,8041,-1116,0,0,0,0,0
980,1765220871364,-627,8071,-1068,0,0,0,0,0
981,1765220871446,-605,8022,-1046,0,0,0,0,0
982,1765220871647,-639,8047,-1031,0,0,0,0,0
983,1765220871714,-625,8048,-1030,0,0,0,0,0
984,1765220872180,-630,8038,-1025,0,0,0,0,0
985,1765220872414,-637,8024,-1036,0,0,0,0,0
986,1765220872497,-633,8048,-1063,0,0,0,0,0
987,1765220872597,-640,8028,-1063,0,0,0,0,0
988,1765220872764,-648,8050,-1063,0,0,0,0,0
989,1765220872930,-608,8021,-1065,0,0,0,0,0
990,1765220873130,-640,8039,-1060,0,0,0,0,0
991,1765220873297,-638,8013,-1077,0,0,0,0,0
992,1765220873347,-634,8030,-1071,0,0,0,0,0
993,1765220873595,-616,8060,-1021,0,0,0,0,0
994,1765220874047,-626,8040,-1047,0,0,0,0,0
995,1765220874180,-635,8022,-1040,0,0,0,0,0
996,1765220874347,-628,8042,-1065,0,0,0,0,0
997,1765220874497,-610,8057,-1069,0,0,0,0,0
998,1765220874748,-630,8027,-1040,0,0,0,0,0
999,1765220874847,-640,8054,-1044,0,0,0,0,0
1000,1765220875196,-630,8011,-1054,0,0,0,0,0
1001,1765220875414,-643,8026,-1043,0,0,0,0,0
1002,1765220875663,-608,8035,-1064,0,0,0,0,0
1003,1765220875881,-623,8038,-1048,0,0,0,0,0
1004,1765220875947,-636,8040,-1104,0,0,0,0,0
1005,1765220876181,-643,8017,-1068,0,0,0,0,0
1006,1765220876331,-636,8009,-1051,0,0,0,0,0
1007,1765220876580,-631,8044,-1064,0,0,0,0,0
1008,1765220876664,-625,8024,-1058,0,0,0,0,0
1009,1765220876896,-633,8040,-1044,0,0,0,0,0
1010,1765220877030,-636,8041,-1067,0,0,0,0,0
1011,1765220877347,-620,8052,-1014,0,0,0,0,0
1012,1765220877413,-652,8033,-1040,0,0,0,0,0
1013,1765220877613,-633,8028,-1011,0,0,0,0,0
1014,1765220877797,-648,8054,-1042,0,0,0,0,0
1015,1765220877980,-611,8018,-1070,0,0,0,0,0
1016,1765220878114,-626,8051,-1072,0,0,0,0,0
1017,1765220878263,-622,8028,-1070,0,0,0,0,0
1018,1765220878481,-640,8026,-1054,0,0,0,0,0
1019,1765220878596,-620,8028,-1016,0,0,0,0,0
1020,1765220878831,-625,8054,-1052,0,0,0,0,0
1021,1765220879032,-637,8006,-1065,0,0,0,0,0
1022,1765220879214,-630,8012,-1038,0,0,0,0,0
1023,1765220879413,-608,8053,-1029,0,0,0,0,0
1024,1765220879597,-621,8056,-1017,0,0,0,0,0
1025,1765220879764,-625,8038,-1016,0,0,0,0,0
1026,1765220879914,-646,8022,-1075,0,0,0,0,0
1027,1765220880080,-624,8042,-1020,0,0,0,0,0
1028,1765220880297,-618,8060,-1047,0,0,0,0,0
1029,1765220880464,-643,8010,-1091,0,0,0,0,0
1030,1765220880730,-631,8052,-1055,0,0,0,0,0
1031,1765220880814,-640,8028,-1090,0,0,0,0,0
1032,1765220881046,-641,8034,-1017,0,0,0,0,0
1033,1765220881147,-614,8048,-1028,0,0,0,0,0
1034,1765220881363,-638,8038,-1066,0,0,0,0,0
1035,1765220881513,-611,8044,-1040,0,0,0,0,0
1036,1765220881764,-624,8032,-1040,0,0,0,0,0
1037,1765220881830,-645,8043,-1062,0,0,0,0,0
1038,1765220882047,-644,8050,-1051,0,0,0,0,0
1039,1765220882280,-630,8029,-1080,0,0,0,0,0
1040,1765220882497,-624,8083,-1046,0,0,0,0,0
1041,1765220882630,-635,8045,-1061,0,0,0,0,0
1042,1765220882846,-616,8026,-1034,0,0,0,0,0
1043,1765220882931,-615,8070,-1024,0,0,0,0,0
1044,1765220883197,-634,8025,-1048,0,0,0,0,0
1045,1765220883314,-622,8036,-1068,0,0,0,0,0
1046,1765220883480,-636,8034,-1086,0,0,0,0,0
1047,1765220883597,-639,8030,-1023,0,0,0,0,0
1048,1765220884063,-622,8053,-1046,0,0,0,0,0
1049,1765220884264,-638,8026,-1048,0,0,0,0,0
1050,1765220884364,-638,8032,-1047,0,0,0,0,0
1051,1765220884514,-621,8039,-1044,0,0,0,0,0
1052,1765220884746,-624,8044,-1048,0,0,0,0,0
1053,1765220884897,-643,8034,-1055,0,0,0,0,0
1054,1765220885047,-632,8036,-1050,0,0,0,0,0
1055,1765220885114,-647,8034,-1066,0,0,0,0,0
1056,1765220885180,-634,8024,-1057,0,0,0,0,0
1057,1765220885413,-620,8045,-1042,0,0,0,0,0
1058,1765220885697,-643,8028,-1058,0,0,0,0,0
1059,1765220885864,-622,8025,-1045,0,0,0,0,0
1060,1765220885964,-632,8043,-1038,0,0,0,0,0
1061,1765220886164,-625,8042,-1062,0,0,0,0,0
1062,1765220886580,-630,8037,-1053,0,0,0,0,0
1063,1765220886664,-622,8030,-1061,0,0,0,0,0
1064,1765220886880,-638,8046,-1058,0,0,0,0,0
1065,1765220887013,-644,8037,-1040,0,0,0,0,0
1066,1765220887314,-619,8023,-1052,0,0,0,0,0
1067,1765220887412,-626,8032,-1050,0,0,0,0,0
1068,1765220887614,-613,8039,-1068,0,0,0,0,0
1069,1765220887763,-641,8050,-1038,0,0,0,0,0
1070,1765220887945,-637,8022,-1028,0,0,0,0,0
1071,1765220888080,-622,8067,-1061,0,0,0,0,0
1072,1765220888331,-640,8043,-1024,0,0,0,0,0
1073,1765220888481,-635,8008,-1071,0,0,0,0,0
1074,1765220888680,-614,8045,-1065,0,0,0,0,0
1075,1765220888846,-631,7988,-1073,0,0,0,0,0
1076,1765220889163,-641,8052,-1007,0,0,0,0,0
1077,1765220889247,-642,8028,-1054,0,0,0,0,0
1078,1765220889464,-620,8013,-1101,0,0,0,0,0
1079,1765220889597,-648,8022,-1052,0,0,0,0,0
1080,1765220889847,-630,8032,-1080,0,0,0,0,0
1081,1765220889930,-616,8032,-1045,0,0,0,0,0
1082,1765220890297,-625,8052,-1056,0,0,0,0,0
1083,1765220890447,-614,8049,-971,0,0,0,0,0
1084,1765220890663,-642,8004,-1078,0,0,0,0,0
1085,1765220890747,-638,8046,-1088,0,0,0,0,0
1086,1765220890880,-638,8028,-1104,0,0,0,0,0
1087,1765220891030,-632,8009,-1047,0,0,0,0,0
1088,1765220891230,-628,8059,-1013,0,0,0,0,0
1089,1765220891413,-646,8009,-1059,0,0,0,0,0
1090,1765220891613,-624,8044,-1036,0,0,0,0,0
1091,1765220891764,-605,8042,-1019,0,0,0,0,0
1092,1765220891930,-635,8043,-1099,0,0,0,0,0
1093,1765220892130,-603,8009,-1060,0,0,0,0,0
1094,1765220892380,-670,8057,-1048,0,0,0,0,0
1095,1765220892497,-625,7998,-1034,0,0,0,0,0
1096,1765220892630,-620,8055,-1025,0,0,0,0,0
1097,1765220892880,-602,8036,-1028,0,0,0,0,0
1098,1765220892947,-652,8048,-1103,0,0,0,0,0
1099,1765220893347,-617,8046,-1064,0,0,0,0,0
1100,1765220893547,-628,8026,-1114,0,0,0,0,0
1101,1765220893631,-642,8028,-1075,0,0,0,0,0
1102,1765220894096,-606,8040,-1073,0,0,0,0,0
1103,1765220894330,-620,8032,-1024,0,0,0,0,0
1104,1765220894397,-634,8037,-1059,0,0,0,0,0
1105,1765220894496,-625,8051,-1055,0,0,0,0,0
1106,1765220894614,-644,8039,-1044,0,0,0,0,0
1107,1765220894813,-618,8018,-1043,0,0,0,0,0
1108,1765220894996,-632,8054,-1070,0,0,0,0,0
1109,1765220895196,-592,8044,-1074,0,0,0,0,0
1110,1765220895280,-640,8035,-1038,0,0,0,0,0
1111,1765220895496,-646,8004,-1043,0,0,0,0,0
1112,1765220895897,-604,8049,-1036,0,0,0,0,0
1113,1765220895982,-596,8083,-1048,0,0,0,0,0
1114,1765220896213,-644,7998,-1084,0,0,0,0,0
1115,1765220896264,-662,8037,-1072,0,0,0,0,0
1116,1765220896330,-638,8050,-1042,0,0,0,0,0
1117,1765220896413,-623,8040,-1071,0,0,0,0,0
1118,1765220896647,-636,8036,-1060,0,0,0,0,0
1119,1765220896780,-633,8048,-1050,0,0,0,0,0
1120,1765220897080,-636,8033,-1046,0,0,0,0,0
1121,1765220897248,-626,8040,-1056,0,0,0,0,0
1122,1765220897447,-627,8045,-1058,0,0,0,0,0
1123,1765220897613,-624,8032,-1029,0,0,0,0,0
1124,1765220897813,-637,8042,-1087,0,0,0,0,0
1125,1765220897914,-624,8022,-1041,0,0,0,0,0
1126,1765220898113,-642,8050,-1013,0,0,0,0,0
1127,1765220898246,-611,7991,-1066,0,0,0,0,0
1128,1765220898447,-626,8083,-1077,0,0,0,0,0
1129,1765220898563,-618,8016,-1028,0,0,0,0,0
1130,1765220898780,-649,8037,-1045,0,0,0,0,0
1131,1765220898863,-649,8034,-1063,0,0,0,0,0
1132,1765220898994,-599,8037,-1050,0,0,0,0,0
1133,1765220899296,-627,8039,-1047,0,0,0,0,0
1134,1765220899363,-646,8024,-1075,0,0,0,0,0
1135,1765220899480,-649,8032,-1046,0,0,0,0,0
1136,1765220899647,-614,8052,-1053,0,0,0,0,0
1137,1765220899763,-617,8032,-1056,0,0,0,0,0
1138,1765220899930,-633,8032,-1059,0,0,0,0,0
1139,1765220900197,-622,8038,-1055,0,0,0,0,0
1140,1765220900331,-614,8039,-1064,0,0,0,0,0
1141,1765220900497,-637,8047,-1057,0,0,0,0,0
1142,1765220900614,-646,8048,-1066,0,0,0,0,0
1143,1765220900695,-612,8034,-1064,0,0,0,0,0
1144,1765220900898,-624,8036,-1051,0,0,0,0,0
1145,1765220901129,-641,8051,-1033,0,0,0,0,0
1146,1765220901396,-650,8020,-1060,0,0,0,0,0
1147,1765220901464,-606,8049,-1048,0,0,0,0,0
1148,1765220901696,-605,8067,-1051,0,0,0,0,0
1149,1765220901880,-625,8034,-1042,0,0,0,0,0
1150,1765220902081,-632,8048,-1026,0,0,0,0,0
1151,1765220902213,-619,8020,-1048,0,0,0,0,0
1152,1765220902364,-636,8057,-1059,0,0,0,0,0
1153,1765220902596,-618,8028,-1068,0,0,0,0,0
1154,1765220902680,-637,8029,-1039,0,0,0,0,0
1155,1765220902963,-615,8042,-1046,0,0,0,0,0
1156,1765220903080,-634,8056,-1061,0,0,0,0,0
1157,1765220903196,-635,8011,-1057,0,0,0,0,0
1158,1765220903363,-630,8056,-1066,0,0,0,0,0
1159,1765220903463,-620,8025,-1038,0,0,0,0,0
1160,1765220903697,-614,8001,-1033,0,0,0,0,0
1161,1765220903880,-660,8042,-1029,0,0,0,0,0
1162,1765220904046,-612,8019,-1084,0,0,0,0,0
1163,1765220904162,-594,8046,-1066,0,0,0,0,0
1164,1765220904279,-629,8045,-1055,0,0,0,0,0
1165,1765220904362,-634,8035,-1061,0,0,0,0,0
1166,1765220904562,-621,8028,-1044,0,0,0,0,0
1167,1765220904813,-622,8048,-1058,0,0,0,0,0
1168,1765220905063,-625,8024,-1051,0,0,0,0,0
1169,1765220905147,-632,8060,-1055,0,0,0,0,0
1170,1765220905363,-637,8010,-1070,0,0,0,0,0
1171,1765220905413,-631,8038,-1080,0,0,0,0,0
1172,1765220905529,-629,8035,-1068,0,0,0,0,0
1173,1765220905762,-624,8031,-1039,0,0,0,0,0
1174,1765220905863,-637,8049,-1033,0,0,0,0,0
1175,1765220906080,-631,8032,-1040,0,0,0,0,0
1176,1765220906375,-618,8050,-1030,0,0,0,0,0
1177,1765220906378,-625,8039,-1054,0,0,0,0,0
1178,1765220906813,-636,8016,-1048,0,0,0,0,0
1179,1765220907046,-617,8071,-1056,0,0,0,0,0
1180,1765220907113,-619,8029,-1059,0,0,0,0,0
1181,1765220907380,-646,8046,-1076,0,0,0,0,0
1182,1765220907547,-632,8042,-1063,0,0,0,0,0
1183,1765220907797,-624,8029,-1020,0,0,0,0,0
1184,1765220907930,-642,8071,-1069,0,0,0,0,0
1185,1765220908046,-620,7985,-1049,0,0,0,0,0
1186,1765220908214,-634,8076,-1035,0,0,0,0,0
1187,1765220908664,-610,7992,-1020,0,0,0,0,0
1188,1765220908780,-648,7990,-1002,0,0,0,0,0
1189,1765220908947,-634,8035,-1065,0,0,0,0,0
1190,1765220909363,-585,8100,-1058,0,0,0,0,0
1191,1765220909446,-619,8002,-1054,0,0,0,0,0
1192,1765220909664,-640,8068,-1072,0,0,0,0,0
1193,1765220909797,-598,8017,-1096,0,0,0,0,0
1194,1765220909996,-650,8069,-1025,0,0,0,0,0
1195,1765220910247,-643,8000,-1029,0,0,0,0,0
1196,1765220910464,-600,8033,-1012,0,0,0,0,0
1197,1765220910563,-604,8050,-1028,0,0,0,0,0
1198,1765220910780,-657,7981,-1090,0,0,0,0,0
1199,1765220910930,-633,8047,-1072,0,0,0,0,0
1200,1765220911130,-614,8041,-1059,0,0,0,0,0
1201,1765220911263,-624,8056,-1040,0,0,0,0,0
1202,1765220911480,-628,8020,-1042,0,0,0,0,0
1203,1765220911579,-648,8048,-1067,0,0,0,0,0
1204,1765220911629,-640,8024,-1033,0,0,0,0,0
1205,1765220911896,-615,8046,-1066,0,0,0,0,0
1206,1765220911995,-636,8038,-1061,0,0,0,0,0
1207,1765220912363,-626,8044,-1050,0,0,0,0,0
1208,1765220912497,-631,8044,-1046,0,0,0,0,0
1209,1765220912696,-633,8021,-1045,0,0,0,0,0
1210,1765220913063,-621,8032,-1068,0,0,0,0,0
1211,1765220913180,-618,8042,-1028,0,0,0,0,0
1212,1765220913447,-628,8038,-1057,0,0,0,0,0
1213,1765220913830,-641,8052,-1060,0,0,0,0,0
1214,1765220914012,-639,8036,-1063,0,0,0,0,0
1215,1765220914213,-620,8041,-1066,0,0,0,0,0
1216,1765220914347,-628,8040,-1056,0,0,0,0,0
1217,1765220914530,-634,8028,-1056,0,0,0,0,0
1218,1765220914680,-624,8056,-1042,0,0,0,0,0
1219,1765220914914,-626,8105,-1034,0,0,0,0,0
1220,1765220914981,-625,7970,-1032,0,0,0,0,0
1221,1765220915280,-634,8069,-1056,0,0,0,0,0
1222,1765220915413,-606,8002,-1038,0,0,0,0,0
1223,1765220915612,-628,8080,-1036,0,0,0,0,0
1224,1765220915713,-650,8040,-1062,0,0,0,0,0
1225,1765220916147,-654,8035,-1026,0,0,0,0,0
1226,1765220916297,-628,8003,-1019,0,0,0,0,0
1227,1765220916430,-622,8078,-1085,0,0,0,0,0
1228,1765220916829,-654,8031,-1060,0,0,0,0,0
1229,1765220917096,-618,8050,-1056,0,0,0,0,0
1230,1765220917342,-627,8071,-1114,0,0,0,0,0
1231,1765220917395,-641,7951,-1084,0,0,0,0,0
1232,1765220917579,-646,8140,-988,0,0,0,0,0
1233,1765220917763,-615,8004,-944,0,0,0,0,0
1234,1765220917963,-638,8030,-1024,0,0,0,0,0
1235,1765220918013,-641,8074,-980,0,0,0,0,0
1236,1765220918263,-607,7993,-1038,0,0,0,0,0
1237,1765220918446,-644,8003,-1130,0,0,0,0,0
1238,1765220918713,-622,7984,-1005,0,0,0,0,0
1239,1765220918780,-584,8077,-1049,0,0,0,0,0
1240,1765220919013,-644,8016,-1087,0,0,0,0,0
1241,1765220919130,-614,8043,-1060,0,0,0,0,0
1242,1765220919328,-639,7970,-1074,0,0,0,0,0
1243,1765220919480,-626,8101,-1071,0,0,0,0,0
1244,1765220919846,-608,8113,-962,0,0,0,0,0
1245,1765220920013,-632,8001,-1100,0,0,0,0,0
1246,1765220920263,-624,8040,-963,0,0,0,0,0
1247,1765220920464,-619,8042,-1032,0,0,0,0,0
1248,1765220920596,-637,8023,-1035,0,0,0,0,0
1249,1765220920797,-648,8058,-1080,0,0,0,0,0
1250,1765220920896,-630,8034,-1052,0,0,0,0,0
1251,1765220920963,-639,8028,-1036,0,0,0,0,0
1252,1765220921097,-638,8027,-1057,0,0,0,0,0
1253,1765220921297,-624,8041,-1065,0,0,0,0,0
1254,1765220921480,-620,8046,-1046,0,0,0,0,0
1255,1765220921697,-610,8030,-998,0,0,0,0,0
1256,1765220921780,-612,8015,-949,0,0,0,0,0
1257,1765220922046,-656,8023,-1130,0,0,0,0,0
1258,1765220922413,-636,8054,-1014,0,0,0,0,0
1259,1765220922496,-632,8044,-1010,0,0,0,0,0
1260,1765220922713,-625,8029,-1055,0,0,0,0,0
1261,1765220922880,-628,8038,-994,0,0,0,0,0
1262,1765220923096,-622,8038,-1044,0,0,0,0,0
1263,1765220923163,-630,8039,-1077,0,0,0,0,0
1264,1765220923413,-646,8036,-1035,0,0,0,0,0
1265,1765220923546,-612,8045,-1155,0,0,0,0,0
1266,1765220923863,-632,8026,-865,0,0,0,0,0
1267,1765220923929,-652,8062,-913,0,0,0,0,0
1268,1765220924113,-646,8104,-1080,0,0,0,0,0
1269,1765220924279,-635,7977,-989,0,0,0,0,0
1270,1765220924530,-622,8048,-999,0,0,0,0,0
1271,1765220924596,-616,8068,-1088,0,0,0,0,0
1272,1765220924780,-651,8070,-1030,0,0,0,0,0
1273,1765220924980,-628,8002,-1022,0,0,0,0,0
1274,1765220925113,-614,8068,-1087,0,0,0,0,0
1275,1765220925547,-634,8056,-1058,0,0,0,0,0
1276,1765220925712,-638,8022,-1102,0,0,0,0,0
1277,1765220925896,-640,8044,-1066,0,0,0,0,0
1278,1765220926097,-631,8031,-1067,0,0,0,0,0
1279,1765220926197,-631,8020,-1070,0,0,0,0,0
1280,1765220926430,-634,8047,-1028,0,0,0,0,0
1281,1765220926563,-642,8024,-1055,0,0,0,0,0
1282,1765220926763,-636,8076,-1049,0,0,0,0,0
1283,1765220926979,-588,8002,-1079,0,0,0,0,0
1284,1765220927163,-662,8050,-1069,0,0,0,0,0
1285,1765220927296,-632,8021,-1053,0,0,0,0,0
1286,1765220927513,-639,8036,-1074,0,0,0,0,0
1287,1765220927596,-623,8046,-1052,0,0,0,0,0
1288,1765220927996,-641,8022,-1055,0,0,0,0,0
1289,1765220928146,-652,8039,-1050,0,0,0,0,0
1290,1765220928313,-635,8039,-1026,0,0,0,0,0
1291,1765220928762,-635,8060,-1042,0,0,0,0,0
1292,1765220928913,-634,8039,-1016,0,0,0,0,0
1293,1765220929046,-629,8020,-1087,0,0,0,0,0
1294,1765220929146,-631,8015,-1063,0,0,0,0,0
1295,1765220929213,-637,8067,-1005,0,0,0,0,0
1296,1765220929430,-620,8014,-1044,0,0,0,0,0
1297,1765220929613,-628,8029,-1081,0,0,0,0,0
1298,1765220929830,-604,8098,-1061,0,0,0,0,0
1299,1765220929896,-608,8038,-1048,0,0,0,0,0
1300,1765220930129,-660,8038,-1067,0,0,0,0,0
1301,1765220930479,-630,8017,-1067,0,0,0,0,0
1302,1765220930630,-611,8053,-1082,0,0,0,0,0
1303,1765220930813,-642,8057,-1044,0,0,0,0,0
1304,1765220930913,-653,7970,-1056,0,0,0,0,0
1305,1765220931063,-668,8008,-1068,0,0,0,0,0
1306,1765220931296,-633,8037,-1048,0,0,0,0,0
1307,1765220931396,-615,8058,-1054,0,0,0,0,0
1308,1765220931763,-598,8044,-1038,0,0,0,0,0
1309,1765220931829,-652,8010,-1075,0,0,0,0,0
1310,1765220932129,-637,8067,-1045,0,0,0,0,0
1311,1765220932230,-657,8030,-1069,0,0,0,0,0
1312,1765220932479,-608,8048,-1048,0,0,0,0,0
1313,1765220932563,-632,8027,-1038,0,0,0,0,0
1314,1765220932796,-641,8036,-1036,0,0,0,0,0
1315,1765220932913,-633,8054,-1059,0,0,0,0,0
1316,1765220932979,-636,8034,-1057,0,0,0,0,0
1317,1765220933230,-632,8025,-1029,0,0,0,0,0
1318,1765220933330,-632,8051,-1057,0,0,0,0,0
1319,1765220933429,-632,8054,-1042,0,0,0,0,0
1320,1765220933629,-622,8030,-1030,0,0,0,0,0
1321,1765220933712,-634,8030,-1064,0,0,0,0,0
1322,1765220934129,-622,8014,-1013,0,0,0,0,0
1323,1765220934196,-640,8040,-1063,0,0,0,0,0
1324,1765220934413,-648,8066,-1146,0,0,0,0,0
1325,1765220934496,-684,8135,-1050,0,0,0,0,0
1326,1765220934763,-613,8023,-1058,0,0,0,0,0
1327,1765220934929,-593,8063,-1062,0,0,0,0,0
1328,1765220935096,-639,8019,-1040,0,0,0,0,0
1329,1765220935213,-651,8032,-1039,0,0,0,0,0
1330,1765220935346,-637,8024,-1074,0,0,0,0,0
1331,1765220935447,-627,8027,-1074,0,0,0,0,0
1332,1765220935647,-633,8080,-1039,0,0,0,0,0
1333,1765220935946,-657,8017,-1085,0,0,0,0,0
1334,1765220936129,-616,8044,-1046,0,0,0,0,0
1335,1765220936246,-621,8031,-1020,0,0,0,0,0
1336,1765220936413,-647,8028,-1054,0,0,0,0,0
1337,1765220936513,-642,8025,-1047,0,0,0,0,0
1338,1765220936596,-638,8041,-1034,0,0,0,0,0
1339,1765220936847,-614,8038,-1053,0,0,0,0,0
1340,1765220936913,-628,8030,-1096,0,0,0,0,0
1341,1765220937178,-658,8044,-1002,0,0,0,0,0
1342,1765220937330,-638,8020,-1081,0,0,0,0,0
1343,1765220937629,-615,8055,-1077,0,0,0,0,0
1344,1765220937812,-602,8006,-1094,0,0,0,0,0
1345,1765220937963,-684,8056,-1038,0,0,0,0,0
1346,1765220938097,-620,8014,-1024,0,0,0,0,0
1347,1765220938313,-629,8061,-1031,0,0,0,0,0
1348,1765220938512,-631,8044,-1016,0,0,0,0,0
1349,1765220938629,-633,8014,-1045,0,0,0,0,0
1350,1765220938829,-617,8047,-1096,0,0,0,0,0
1351,1765220938913,-619,8014,-1024,0,0,0,0,0
1352,1765220939011,-624,8038,-1066,0,0,0,0,0
1353,1765220939261,-641,8055,-1052,0,0,0,0,0
1354,1765220939328,-634,8025,-1037,0,0,0,0,0
1355,1765220939446,-642,7999,-1065,0,0,0,0,0
1356,1765220939712,-612,8062,-1107,0,0,0,0,0
1357,1765220939813,-628,8032,-1038,0,0,0,0,0
1358,1765220940012,-653,8065,-975,0,0,0,0,0
1359,1765220940229,-625,8014,-1088,0,0,0,0,0
1360,1765220940330,-635,8036,-1056,0,0,0,0,0
1361,1765220940547,-636,8003,-1014,0,0,0,0,0
1362,1765220940713,-625,7984,-1036,0,0,0,0,0
1363,1765220940929,-610,8054,-1015,0,0,0,0,0
1364,1765220941012,-623,8017,-1083,0,0,0,0,0
1365,1765220941496,-841,7849,-1193,0,0,0,0,0
1366,1765220941695,-722,8108,-1035,0,0,0,0,0
1367,1765220941780,-550,7976,-1052,0,0,0,0,0
1368,1765220941913,-607,8056,-1042,0,0,0,0,0
1369,1765220942130,-618,8015,-1054,0,0,0,0,0
1370,1765220942230,-644,8057,-1058,0,0,0,0,0
1371,1765220942480,-646,8011,-1078,0,0,0,0,0
1372,1765220942613,-610,8023,-1061,0,0,0,0,0
1373,1765220942829,-657,8060,-1065,0,0,0,0,0
1374,1765220942912,-638,7990,-1057,0,0,0,0,0
1375,1765220943363,-621,8049,-1054,0,0,0,0,0
1376,1765220943530,-629,8036,-1044,0,0,0,0,0
1377,1765220943663,-632,8033,-1046,0,0,0,0,0
1378,1765220943729,-638,8039,-1060,0,0,0,0,0
1379,1765220943796,-622,8038,-1009,0,0,0,0,0
1380,1765220944079,-619,8052,-1038,0,0,0,0,0
1381,1765220944196,-647,8018,-1092,0,0,0,0,0
1382,1765220944413,-633,8040,-1025,0,0,0,0,0
1383,1765220944513,-625,8018,-1058,0,0,0,0,0
1384,1765220944746,-635,8042,-1059,0,0,0,0,0
1385,1765220945196,-626,8046,-1048,0,0,0,0,0
1386,1765220945280,-628,8028,-1062,0,0,0,0,0
1387,1765220945495,-632,8039,-1044,0,0,0,0,0
1388,1765220945629,-638,8048,-1051,0,0,0,0,0
1389,1765220945880,-622,8028,-1045,0,0,0,0,0
1390,1765220945946,-631,8038,-1070,0,0,0,0,0
1391,1765220946197,-632,8044,-1040,0,0,0,0,0
1392,1765220946313,-634,8039,-1056,0,0,0,0,0
1393,1765220946613,-639,8036,-1035,0,0,0,0,0
1394,1765220946680,-625,8047,-1066,0,0,0,0,0
1395,1765220947062,-628,8039,-1078,0,0,0,0,0
1396,1765220947197,-640,8025,-1065,0,0,0,0,0
1397,1765220947378,-628,8030,-1037,0,0,0,0,0
1398,1765220947530,-607,8044,-1061,0,0,0,0,0
1399,1765220947763,-657,7986,-1034,0,0,0,0,0
1400,1765220947829,-637,8082,-1034,0,0,0,0,0
1401,1765220948263,-606,8052,-1042,0,0,0,0,0
1402,1765220948496,-648,8013,-1079,0,0,0,0,0
1403,1765220948629,-644,8036,-1063,0,0,0,0,0
1404,1765220948830,-636,8015,-1070,0,0,0,0,0
1405,1765220948929,-623,8063,-1046,0,0,0,0,0
1406,1765220949212,-644,8020,-1020,0,0,0,0,0
1407,1765220949279,-611,8047,-1053,0,0,0,0,0
1408,1765220949513,-638,8040,-1059,0,0,0,0,0
1409,1765220949629,-608,8036,-1002,0,0,0,0,0
1410,1765220949945,-633,8020,-1062,0,0,0,0,0
1411,1765220950173,-667,8045,-1058,0,0,0,0,0
1412,1765220950262,-602,7998,-1042,0,0,0,0,0
1413,1765220950362,-643,8119,-1064,0,0,0,0,0
1414,1765220950598,-630,8002,-1086,0,0,0,0,0
1415,1765220950780,-602,8060,-1011,0,0,0,0,0
1416,1765220950929,-629,8022,-1057,0,0,0,0,0
1417,1765220951062,-642,8050,-1084,0,0,0,0,0
1418,1765220951447,-640,8028,-1060,0,0,0,0,0
1419,1765220951713,-618,8048,-1061,0,0,0,0,0
1420,1765220951813,-631,8034,-1061,0,0,0,0,0
1421,1765220951896,-637,8045,-1051,0,0,0,0,0
1422,1765220952013,-616,8030,-1056,0,0,0,0,0
1423,1765220952196,-638,8044,-1060,0,0,0,0,0
1424,1765220952396,-633,8037,-1062,0,0,0,0,0
1425,1765220952546,-616,8050,-1056,0,0,0,0,0
1426,1765220952646,-628,8038,-1058,0,0,0,0,0
1427,1765220952863,-627,8048,-1058,0,0,0,0,0
1428,1765220952962,-622,8024,-1065,0,0,0,0,0
1429,1765220953379,-636,8020,-1060,0,0,0,0,0
1430,1765220953596,-610,8072,-1046,0,0,0,0,0
1431,1765220953696,-616,8001,-1041,0,0,0,0,0
1432,1765220953913,-643,8050,-1059,0,0,0,0,0
1433,1765220954080,-616,8034,-1050,0,0,0,0,0
1434,1765220954296,-625,8031,-1052,0,0,0,0,0
1435,1765220954362,-626,8033,-1070,0,0,0,0,0
1436,1765220954462,-618,8034,-1056,0,0,0,0,0
1437,1765220954595,-616,8050,-1041,0,0,0,0,0
1438,1765220954830,-600,8020,-1034,0,0,0,0,0
1439,1765220955029,-618,8062,-1060,0,0,0,0,0
1440,1765220955213,-642,8022,-1046,0,0,0,0,0
1441,1765220955395,-598,8069,-1036,0,0,0,0,0
1442,1765220955512,-609,7998,-1054,0,0,0,0,0
1443,1765220955911,-640,8047,-1082,0,0,0,0,0
1444,1765220956063,-598,8052,-1060,0,0,0,0,0
1445,1765220956196,-633,8034,-1036,0,0,0,0,0
1446,1765220956330,-654,8042,-1082,0,0,0,0,0
1447,1765220956646,-603,8055,-1031,0,0,0,0,0
1448,1765220956812,-628,8032,-1034,0,0,0,0,0
1449,1765220956996,-637,8026,-1076,0,0,0,0,0
1450,1765220957063,-637,8045,-1037,0,0,0,0,0
1451,1765220957313,-618,8022,-1039,0,0,0,0,0
1452,1765220957463,-624,8039,-1074,0,0,0,0,0
1453,1765220957661,-628,8048,-1045,0,0,0,0,0
1454,1765220957779,-630,8036,-1022,0,0,0,0,0
1455,1765220958011,-618,8018,-1063,0,0,0,0,0
1456,1765220958431,-632,8051,-1044,0,0,0,0,0
1457,1765220958513,-626,8004,-1057,0,0,0,0,0
1458,1765220958746,-627,8054,-1066,0,0,0,0,0
1459,1765220958879,-619,8047,-1036,0,0,0,0,0
1460,1765220959097,-617,8047,-1026,0,0,0,0,0
1461,1765220959213,-634,8025,-1065,0,0,0,0,0
1462,1765220959577,-631,8007,-1058,0,0,0,0,0
1463,1765220959697,-629,8056,-1050,0,0,0,0,0
1464,1765220959946,-640,8018,-1036,0,0,0,0,0
1465,1765220960131,-637,8002,-1078,0,0,0,0,0
1466,1765220960329,-622,8056,-1082,0,0,0,0,0
1467,1765220960462,-629,8029,-1018,0,0,0,0,0
1468,1765220960679,-630,8025,-1065,0,0,0,0,0
1469,1765220960812,-636,8035,-1072,0,0,0,0,0
1470,1765220961112,-612,8044,-1031,0,0,0,0,0
1471,1765220961127,-635,8013,-1049,0,0,0,0,0
1472,1765220961379,-630,8036,-1046,0,0,0,0,0
1473,1765220961479,-608,8040,-1050,0,0,0,0,0
1474,1765220961795,-640,8012,-1058,0,0,0,0,0
1475,1765220961912,-639,8032,-1048,0,0,0,0,0
1476,1765220962112,-635,8032,-1046,0,0,0,0,0
1477,1765220962212,-619,8056,-1066,0,0,0,0,0
1478,1765220962479,-640,8013,-1027,0,0,0,0,0
1479,1765220962596,-643,8030,-1050,0,0,0,0,0
1480,1765220962729,-628,8027,-1051,0,0,0,0,0
1481,1765220962896,-623,8037,-1042,0,0,0,0,0
1482,1765220963062,-638,8027,-1070,0,0,0,0,0
1483,1765220963280,-630,8036,-1050,0,0,0,0,0
1484,1765220963462,-644,8020,-1047,0,0,0,0,0
1485,1765220963629,-626,8040,-1062,0,0,0,0,0
1486,1765220964012,-557,7967,-1137,0,0,0,0,0
1487,1765220964113,-696,8133,-964,0,0,0,0,0
1488,1765220964329,-579,7892,-1097,0,0,0,0,0
1489,1765220964480,-610,8044,-1050,0,0,0,0,0
1490,1765220964662,-618,8025,-1058,0,0,0,0,0
1491,1765220964778,-686,8027,-1042,0,0,0,0,0
1492,1765220965213,-570,8050,-1190,0,0,0,0,0
1493,1765220965345,-648,8022,-968,0,0,0,0,0
1494,1765220965511,-687,7988,-876,0,0,0,0,0
1495,1765220965644,-694,8033,-936,0,0,0,0,0
1496,1765220965796,-615,8001,-1047,0,0,0,0,0
1497,1765220965979,-590,8062,-1087,0,0,0,0,0
1498,1765220966178,-621,8024,-1152,0,0,0,0,0
1499,1765220966280,-674,8057,-932,0,0,0,0,0
1500,1765220966395,-632,7992,-979,0,0,0,0,0
1501,1765220966595,-592,8058,-1146,0,0,0,0,0
1502,1765220966830,-609,7987,-1094,0,0,0,0,0
1503,1765220966945,-603,8089,-1138,0,0,0,0,0
1504,1765220967128,-668,8020,-1018,0,0,0,0,0
1505,1765220967261,-653,8021,-970,0,0,0,0,0
1506,1765220967429,-589,8060,-1107,0,0,0,0,0
1507,1765220967547,-623,8040,-1087,0,0,0,0,0
1508,1765220967746,-614,8042,-1046,0,0,0,0,0
1509,1765220967879,-632,8023,-1033,0,0,0,0,0
1510,1765220968047,-652,8016,-1015,0,0,0,0,0
1511,1765220968278,-622,8038,-1048,0,0,0,0,0
1512,1765220968361,-635,8044,-1040,0,0,0,0,0
1513,1765220968646,-627,8036,-1065,0,0,0,0,0
1514,1765220968711,-622,8017,-1073,0,0,0,0,0
1515,1765220968812,-634,8030,-1059,0,0,0,0,0
1516,1765220969029,-632,8039,-1029,0,0,0,0,0
1517,1765220969097,-628,8029,-1050,0,0,0,0,0
1518,1765220969377,-630,8049,-1067,0,0,0,0,0
1519,1765220969543,-625,8032,-1060,0,0,0,0,0
1520,1765220969694,-624,8042,-1046,0,0,0,0,0
1521,1765220969828,-643,8025,-1043,0,0,0,0,0
1522,1765220969946,-632,8010,-1038,0,0,0,0,0
1523,1765220970029,-626,8022,-1073,0,0,0,0,0
1524,1765220970246,-617,8066,-1052,0,0,0,0,0
1525,1765220970463,-632,8040,-1030,0,0,0,0,0
1526,1765220970729,-653,8012,-1050,0,0,0,0,0
1527,1765220970812,-664,8018,-1062,0,0,0,0,0
1528,1765220971016,-607,8041,-1034,0,0,0,0,0
1529,1765220971180,-611,8046,-1063,0,0,0,0,0
1530,1765220971380,-621,8019,-1047,0,0,0,0,0
1531,1765220971512,-650,8056,-1035,0,0,0,0,0
1532,1765220971662,-634,8006,-1049,0,0,0,0,0
1533,1765220971897,-641,8035,-1038,0,0,0,0,0
1534,1765220972050,-636,8030,-1048,0,0,0,0,0
1535,1765220972263,-635,8037,-1057,0,0,0,0,0
1536,1765220972429,-608,8086,-1051,0,0,0,0,0
1537,1765220972647,-632,8025,-1028,0,0,0,0,0
1538,1765220972746,-652,8010,-1088,0,0,0,0,0
1539,1765220972995,-662,7982,-1047,0,0,0,0,0
1540,1765220973161,-623,8071,-1050,0,0,0,0,0
1541,1765220973328,-605,8023,-1030,0,0,0,0,0
1542,1765220973446,-622,8014,-1034,0,0,0,0,0
1543,1765220973579,-628,8074,-1035,0,0,0,0,0
1544,1765220973646,-624,8019,-1067,0,0,0,0,0
1545,1765220973861,-634,8042,-1050,0,0,0,0,0
1546,1765220974079,-629,8043,-1048,0,0,0,0,0
1547,1765220974329,-613,8028,-1034,0,0,0,0,0
1548,1765220974412,-624,8041,-1045,0,0,0,0,0
1549,1765220974614,-643,8020,-1057,0,0,0,0,0
1550,1765220974712,-649,8045,-1053,0,0,0,0,0
1551,1765220974812,-642,8014,-1132,0,0,0,0,0
1552,1765220974930,-606,8054,-996,0,0,0,0,0
1553,1765220975146,-634,8046,-1007,0,0,0,0,0
1554,1765220975278,-646,8010,-1112,0,0,0,0,0
1555,1765220975511,-656,8004,-1106,0,0,0,0,0
1556,1765220975612,-628,8032,-1061,0,0,0,0,0
1557,1765220975812,-616,8047,-1019,0,0,0,0,0
1558,1765220976079,-610,8046,-1075,0,0,0,0,0
1559,1765220976312,-634,8034,-1049,0,0,0,0,0
1560,1765220976379,-655,8014,-1030,0,0,0,0,0
1561,1765220976746,-607,8072,-1064,0,0,0,0,0
1562,1765220976963,-640,7990,-992,0,0,0,0,0
1563,1765220977079,-656,8034,-1093,0,0,0,0,0
1564,1765220977228,-616,8042,-1066,0,0,0,0,0
1565,1765220977445,-621,8020,-1014,0,0,0,0,0
1566,1765220977712,-646,8035,-1082,0,0,0,0,0
1567,1765220977895,-615,8043,-1063,0,0,0,0,0
1568,1765220977995,-629,8034,-1016,0,0,0,0,0
1569,1765220978196,-658,8037,-1068,0,0,0,0,0
1570,1765220978329,-628,8019,-1057,0,0,0,0,0
1571,1765220978479,-634,8030,-1044,0,0,0,0,0
1572,1765220978646,-629,8048,-1052,0,0,0,0,0
1573,1765220978880,-643,8038,-1033,0,0,0,0,0
1574,1765220978978,-650,8039,-1060,0,0,0,0,0
1575,1765220979162,-680,8034,-1070,0,0,0,0,0
1576,1765220979379,-600,8053,-1042,0,0,0,0,0
1577,1765220979627,-620,8029,-1045,0,0,0,0,0
1578,1765220979760,-618,8057,-1032,0,0,0,0,0
1579,1765220979961,-634,8013,-1064,0,0,0,0,0
1580,1765220980061,-637,8030,-1054,0,0,0,0,0
1581,1765220980461,-652,8025,-1060,0,0,0,0,0
1582,1765220980628,-631,8040,-1080,0,0,0,0,0
1583,1765220980762,-617,8026,-1040,0,0,0,0,0
1584,1765220981212,-654,8011,-1095,0,0,0,0,0
1585,1765220981361,-630,8058,-1036,0,0,0,0,0
1586,1765220981512,-594,8062,-1027,0,0,0,0,0
1587,1765220981645,-628,8064,-1022,0,0,0,0,0
1588,1765220981894,-667,7988,-1067,0,0,0,0,0
1589,1765220981979,-643,8028,-1058,0,0,0,0,0
1590,1765220982344,-631,8048,-1076,0,0,0,0,0
1591,1765220982546,-636,8038,-1027,0,0,0,0,0
1592,1765220982779,-628,8031,-1089,0,0,0,0,0
1593,1765220982995,-626,8022,-1051,0,0,0,0,0
1594,1765220983096,-623,8049,-1034,0,0,0,0,0
1595,1765220983313,-613,8025,-1054,0,0,0,0,0
1596,1765220983480,-647,8031,-1049,0,0,0,0,0
1597,1765220983663,-636,8023,-1038,0,0,0,0,0
1598,1765220983795,-616,8050,-1054,0,0,0,0,0
1599,1765220983996,-632,8032,-1060,0,0,0,0,0
1600,1765220984178,-629,8057,-1022,0,0,0,0,0
1601,1765220984262,-621,8024,-1016,0,0,0,0,0
1602,1765220984545,-634,8026,-1070,0,0,0,0,0
1603,1765220984912,-609,8040,-1048,0,0,0,0,0
1604,1765220984979,-626,8044,-1047,0,0,0,0,0
1605,1765220985246,-642,8018,-1044,0,0,0,0,0
1606,1765220985379,-656,8018,-1053,0,0,0,0,0
1607,1765220985596,-610,8046,-1029,0,0,0,0,0
1608,1765220985679,-626,8024,-1056,0,0,0,0,0
1609,1765220985929,-654,8016,-1066,0,0,0,0,0
1610,1765220986095,-630,8036,-1036,0,0,0,0,0
1611,1765220986379,-636,8038,-1066,0,0,0,0,0
1612,1765220986445,-624,8032,-1047,0,0,0,0,0
1613,1765220986662,-623,8029,-1056,0,0,0,0,0
1614,1765220986812,-613,8038,-1053,0,0,0,0,0
1615,1765220987030,-627,8053,-1038,0,0,0,0,0
1616,1765220987129,-646,8010,-1057,0,0,0,0,0
1617,1765220987161,-625,8066,-1065,0,0,0,0,0
1618,1765220987261,-657,8020,-1064,0,0,0,0,0
1619,1765220987478,-586,8046,-1029,0,0,0,0,0
1620,1765220987578,-548,8072,-1065,0,0,0,0,0
1621,1765220987979,-640,8054,-1041,0,0,0,0,0
1622,1765220988212,-605,8038,-1037,0,0,0,0,0
1623,1765220988277,-615,8025,-1055,0,0,0,0,0
1624,1765220988479,-644,8033,-1062,0,0,0,0,0
1625,1765220988679,-637,8029,-1032,0,0,0,0,0
1626,1765220988879,-623,8034,-1055,0,0,0,0,0
1627,1765220988979,-633,8023,-1059,0,0,0,0,0
1628,1765220989061,-638,8009,-1047,0,0,0,0,0
1629,1765220989194,-624,8052,-1059,0,0,0,0,0
1630,1765220989430,-633,8012,-1065,0,0,0,0,0
1631,1765220989796,-640,8048,-1139,0,0,0,0,0
1632,1765220989962,-627,8065,-1020,0,0,0,0,0
1633,1765220990094,-633,8030,-1064,0,0,0,0,0
1634,1765220990512,-632,8058,-1100,0,0,0,0,0
1635,1765220990661,-630,7995,-1043,0,0,0,0,0
1636,1765220990812,-632,8044,-1030,0,0,0,0,0
1637,1765220991245,-628,8058,-1070,0,0,0,0,0
1638,1765220991362,-630,8026,-1014,0,0,0,0,0
1639,1765220991546,-620,8038,-1068,0,0,0,0,0
1640,1765220991579,-636,8015,-1056,0,0,0,0,0
1641,1765220991677,-619,8036,-1072,0,0,0,0,0
1642,1765220991912,-622,8042,-1280,0,0,0,0,0
1643,1765220992029,-634,8020,-1076,0,0,0,0,0
1644,1765220992245,-634,8040,-1050,0,0,0,0,0
1645,1765220992378,-629,8036,-1039,0,0,0,0,0
1646,1765220992560,-638,8025,-1046,0,0,0,0,0
1647,1765220992795,-640,8033,-1061,0,0,0,0,0
1648,1765220993011,-628,8048,-1042,0,0,0,0,0
1649,1765220993129,-650,8018,-1059,0,0,0,0,0
1650,1765220993362,-630,8043,-1052,0,0,0,0,0
1651,1765220993512,-618,8028,-1060,0,0,0,0,0
1652,1765220993678,-631,8041,-1047,0,0,0,0,0
1653,1765220993921,-643,8012,-1057,0,0,0,0,0
1654,1765220994012,-632,8037,-1063,0,0,0,0,0
1655,1765220994196,-620,8020,-1057,0,0,0,0,0
1656,1765220994277,-640,8034,-1056,0,0,0,0,0
1657,1765220994562,-618,8025,-1041,0,0,0,0,0
1658,1765220994695,-630,8004,-1076,0,0,0,0,0
1659,1765220994928,-648,8063,-1041,0,0,0,0,0
1660,1765220995029,-610,8029,-1038,0,0,0,0,0
1661,1765220995344,-635,8058,-1078,0,0,0,0,0
1662,1765220995579,-641,8013,-770,0,0,0,0,0
1663,1765220995678,-622,8056,-1071,0,0,0,0,0
1664,1765220995910,-624,8018,-1049,0,0,0,0,0
1665,1765220996061,-546,7966,-1090,0,0,0,0,0
1666,1765220996345,-724,7960,-1022,0,0,0,0,0
1667,1765220996429,-639,8040,-1044,0,0,0,0,0
1668,1765220996794,-612,8029,-1060,0,0,0,0,0
1669,1765220996911,-638,8057,-1028,0,0,0,0,0
1670,1765220997129,-634,8008,-1066,0,0,0,0,0
1671,1765220997263,-626,8026,-1034,0,0,0,0,0
1672,1765220997445,-666,8032,-1066,0,0,0,0,0
1673,1765220997546,-631,8036,-1042,0,0,0,0,0
1674,1765220997995,-616,8060,-1064,0,0,0,0,0
1675,1765220998195,-678,7997,-1052,0,0,0,0,0
1676,1765220998296,-640,8038,-1045,0,0,0,0,0
1677,1765220998646,-624,8020,-1060,0,0,0,0,0
1678,1765220998813,-630,8032,-1043,0,0,0,0,0
1679,1765220998979,-640,8047,-1050,0,0,0,0,0
1680,1765220999096,-634,8022,-1046,0,0,0,0,0
1681,1765220999262,-626,8050,-1067,0,0,0,0,0
1682,1765220999379,-597,8016,-1022,0,0,0,0,0
1683,1765220999828,-663,8030,-1053,0,0,0,0,0
1684,1765220999946,-649,8037,-1051,0,0,0,0,0
1685,1765221000113,-607,8043,-1055,0,0,0,0,0
1686,1765221000246,-622,8038,-1033,0,0,0,0,0
1687,1765221000361,-622,8026,-1056,0,0,0,0,0
1688,1765221000560,-642,8043,-1068,0,0,0,0,0
1689,1765221000728,-642,7994,-1072,0,0,0,0,0
1690,1765221000845,-624,8046,-1014,0,0,0,0,0
1691,1765221000962,-649,8052,-1046,0,0,0,0,0
1692,1765221001162,-550,8054,-984,0,0,0,0,0
1693,1765221001378,-672,7977,-1164,0,0,0,0,0
1694,1765221001696,-652,8016,-1008,0,0,0,0,0
1695,1765221001813,-645,8042,-1012,0,0,0,0,0
1696,1765221001996,-618,8034,-1102,0,0,0,0,0
1697,1765221002147,-619,8012,-1064,0,0,0,0,0
1698,1765221002430,-598,8050,-1006,0,0,0,0,0
1699,1765221002497,-633,8019,-1111,0,0,0,0,0
1700,1765221002712,-686,7971,-982,0,0,0,0,0
1701,1765221002878,-693,8008,-976,0,0,0,0,0
1702,1765221003130,-632,8016,-1036,0,0,0,0,0
1703,1765221003263,-574,8105,-1204,0,0,0,0,0
1704,1765221003346,-684,7976,-998,0,0,0,0,0
1705,1765221003446,-576,8070,-1139,0,0,0,0,0
1706,1765221003646,-590,8011,-1192,0,0,0,0,0
1707,1765221003729,-664,8016,-995,0,0,0,0,0
1708,1765221003963,-648,8041,-972,0,0,0,0,0
1709,1765221003978,-654,8030,-1025,0,0,0,0,0
1710,1765221004145,-598,8044,-1069,0,0,0,0,0
1711,1765221004327,-614,8021,-1065,0,0,0,0,0
1712,1765221004446,-660,8032,-1026,0,0,0,0,0
1713,1765221004646,-660,8013,-1058,0,0,0,0,0
1714,1765221004928,-604,8061,-1055,0,0,0,0,0
1715,1765221005079,-627,7998,-1057,0,0,0,0,0
1716,1765221005328,-641,8027,-1052,0,0,0,0,0
1717,1765221005396,-637,8062,-1055,0,0,0,0,0
1718,1765221005611,-641,8016,-1024,0,0,0,0,0
1719,1765221005711,-624,8024,-1065,0,0,0,0,0
1720,1765221005779,-623,8034,-1056,0,0,0,0,0
1721,1765221005962,-621,7993,-995,0,0,0,0,0
1722,1765221006113,-636,8094,-1109,0,0,0,0,0
1723,1765221006247,-654,8026,-1112,0,0,0,0,0
1724,1765221006511,-636,8044,-1022,0,0,0,0,0
1725,1765221006561,-618,8031,-1017,0,0,0,0,0
1726,1765221006879,-638,8033,-1078,0,0,0,0,0
1727,1765221007045,-627,8039,-1038,0,0,0,0,0
1728,1765221007231,-663,8001,-1086,0,0,0,0,0
1729,1765221007314,-652,8026,-1072,0,0,0,0,0
1730,1765221007515,-605,8045,-1020,0,0,0,0,0
1731,1765221007731,-622,8036,-1034,0,0,0,0,0
1732,1765221007878,-624,8042,-1022,0,0,0,0,0
1733,1765221008062,-635,8030,-1061,0,0,0,0,0
1734,1765221008145,-653,8039,-1081,0,0,0,0,0
1735,1765221008245,-644,8061,-1069,0,0,0,0,0
1736,1765221008412,-644,8000,-1056,0,0,0,0,0
1737,1765221008546,-636,8122,-1033,0,0,0,0,0
1738,1765221008846,-644,8057,-1045,0,0,0,0,0
1739,1765221009011,-650,8078,-1009,0,0,0,0,0
1740,1765221009129,-625,7968,-1058,0,0,0,0,0
1741,1765221009297,-639,8076,-1093,0,0,0,0,0
1742,1765221009479,-625,8018,-1107,0,0,0,0,0
1743,1765221009699,-639,8055,-1002,0,0,0,0,0
1744,1765221009797,-643,8034,-1023,0,0,0,0,0
1745,1765221009979,-633,8033,-1098,0,0,0,0,0
1746,1765221009995,-639,8044,-1074,0,0,0,0,0
1747,1765221010196,-623,8011,-1026,0,0,0,0,0
1748,1765221010297,-620,8041,-1058,0,0,0,0,0
1749,1765221010578,-656,8016,-1062,0,0,0,0,0
1750,1765221010696,-649,7972,-1042,0,0,0,0,0
1751,1765221010912,-652,8076,-1114,0,0,0,0,0
1752,1765221010995,-615,8045,-1045,0,0,0,0,0
1753,1765221011212,-605,8019,-1013,0,0,0,0,0
1754,1765221011362,-622,7999,-1026,0,0,0,0,0
1755,1765221011579,-631,8069,-1075,0,0,0,0,0
1756,1765221011695,-642,8012,-1056,0,0,0,0,0
1757,1765221012062,-614,8007,-1088,0,0,0,0,0
1758,1765221012313,-648,8046,-1032,0,0,0,0,0
1759,1765221012445,-634,8026,-1016,0,0,0,0,0
1760,1765221012512,-628,8028,-1020,0,0,0,0,0
1761,1765221012595,-639,8030,-1064,0,0,0,0,0
1762,1765221012795,-648,8035,-1099,0,0,0,0,0
1763,1765221012929,-627,8058,-1021,0,0,0,0,0
1764,1765221013261,-625,8028,-1054,0,0,0,0,0
1765,1765221013495,-642,8060,-1039,0,0,0,0,0
1766,1765221013561,-628,8018,-1043,0,0,0,0,0
1767,1765221013778,-620,8084,-1038,0,0,0,0,0
1768,1765221013995,-648,8021,-1063,0,0,0,0,0
1769,1765221014545,-614,8057,-1048,0,0,0,0,0
1770,1765221014678,-20131,20360,-24014,0,0,0,0,0
1771,1765221015078,-652,8041,-1038,0,0,0,0,0
1772,1765221015212,-620,8029,-1038,0,0,0,0,0
1773,1765221015379,-610,8052,-1055,0,0,0,0,0
1774,1765221015812,-664,8026,-1040,0,0,0,0,0
1775,1765221016031,-677,8002,-1077,0,0,0,0,0
1776,1765221016095,-586,8036,-1060,0,0,0,0,0
1777,1765221016495,-620,8056,-1056,0,0,0,0,0
1778,1765221016595,-646,8036,-1077,0,0,0,0,0
1779,1765221016795,-627,8055,-1009,0,0,0,0,0
1780,1765221016932,-631,8042,-1022,0,0,0,0,0
1781,1765221017147,-637,8007,-1050,0,0,0,0,0
1782,1765221017379,-630,8048,-1072,0,0,0,0,0
1783,1765221017577,-696,8069,-1070,0,0,0,0,0
1784,1765221017677,-556,8085,-995,0,0,0,0,0
1785,1765221017912,-602,8058,-1087,0,0,0,0,0
1786,1765221018045,-628,8035,-1053,0,0,0,0,0
1787,1765221018245,-656,8010,-1044,0,0,0,0,0
1788,1765221018378,-633,8043,-1054,0,0,0,0,0
1789,1765221018577,-615,8022,-1060,0,0,0,0,0
1790,1765221018677,-633,8034,-1032,0,0,0,0,0
1791,1765221018743,-625,8034,-1092,0,0,0,0,0
1792,1765221018861,-619,8041,-1052,0,0,0,0,0
1793,1765221019128,-626,8028,-1006,0,0,0,0,0
1794,1765221019312,-631,8034,-1063,0,0,0,0,0
1795,1765221019495,-639,8074,-949,0,0,0,0,0
1796,1765221019562,-639,8026,-1021,0,0,0,0,0
1797,1765221019795,-628,8036,-1135,0,0,0,0,0
1798,1765221019911,-624,8059,-1050,0,0,0,0,0
1799,1765221020128,-629,8026,-1004,0,0,0,0,0
1800,1765221020245,-648,8040,-1030,0,0,0,0,0
1801,1765221020495,-612,8013,-1102,0,0,0,0,0
1802,1765221020894,-632,8000,-1047,0,0,0,0,0
1803,1765221020994,-640,8066,-1051,0,0,0,0,0
1804,1765221021212,-616,8027,-1035,0,0,0,0,0
1805,1765221021378,-634,8036,-1058,0,0,0,0,0
1806,1765221021561,-625,8024,-1052,0,0,0,0,0
1807,1765221021695,-636,8036,-1060,0,0,0,0,0
1808,1765221022062,-632,8025,-1060,0,0,0,0,0
1809,1765221022145,-636,8043,-1058,0,0,0,0,0
1810,1765221022428,-633,8024,-1070,0,0,0,0,0
1811,1765221022561,-642,8038,-1043,0,0,0,0,0
1812,1765221022795,-629,8040,-1047,0,0,0,0,0
1813,1765221022862,-632,8037,-1054,0,0,0,0,0
1814,1765221023279,-630,8046,-1049,0,0,0,0,0
1815,1765221023478,-642,8043,-1096,0,0,0,0,0
1816,1765221023561,-634,8022,-1082,0,0,0,0,0
1817,1765221023779,-630,8062,-999,0,0,0,0,0
1818,1765221024011,-604,8017,-1034,0,0,0,0,0
1819,1765221024261,-655,8002,-1098,0,0,0,0,0
1820,1765221024395,-627,8036,-964,0,0,0,0,0
1821,1765221024561,-623,8038,-1028,0,0,0,0,0
1822,1765221024695,-633,8021,-1123,0,0,0,0,0
1823,1765221024945,-642,8044,-1080,0,0,0,0,0
1824,1765221025095,-654,8036,-1002,0,0,0,0,0
1825,1765221025212,-654,8040,-1080,0,0,0,0,0
1826,1765221025378,-620,8021,-1110,0,0,0,0,0
1827,1765221025828,-641,8048,-1087,0,0,0,0,0
1828,1765221025912,-632,8017,-1084,0,0,0,0,0
1829,1765221026128,-631,8051,-1037,0,0,0,0,0
1830,1765221026261,-631,8022,-1050,0,0,0,0,0
1831,1765221026478,-638,8040,-1058,0,0,0,0,0
1832,1765221026611,-634,8036,-1068,0,0,0,0,0
1833,1765221026828,-614,8032,-1050,0,0,0,0,0
1834,1765221027000,-636,8034,-1064,0,0,0,0,0
1835,1765221027145,-632,8030,-1074,0,0,0,0,0
1836,1765221027395,-635,8047,-1029,0,0,0,0,0
1837,1765221027612,-628,8026,-1026,0,0,0,0,0
1838,1765221027712,-635,8025,-1021,0,0,0,0,0
1839,1765221027945,-627,8032,-1088,0,0,0,0,0
1840,1765221028078,-664,8041,-1092,0,0,0,0,0
1841,1765221028196,-630,8095,-1026,0,0,0,0,0
1842,1765221028379,-640,7998,-1054,0,0,0,0,0
1843,1765221028545,-620,8026,-1073,0,0,0,0,0
1844,1765221028678,-629,8049,-1062,0,0,0,0,0
1845,1765221028811,-629,8044,-1028,0,0,0,0,0
1846,1765221029112,-648,7998,-1057,0,0,0,0,0
1847,1765221029278,-628,8032,-1079,0,0,0,0,0
1848,1765221029427,-628,8017,-1052,0,0,0,0,0
1849,1765221029528,-637,8064,-1034,0,0,0,0,0
1850,1765221029743,-635,8014,-1049,0,0,0,0,0
1851,1765221029878,-632,8026,-1049,0,0,0,0,0
1852,1765221030094,-576,8028,-1072,0,0,0,0,0
1853,1765221030228,-670,-8331,-3098,0,0,0,0,0
1854,1765221030428,-578,8002,-1018,0,0,0,0,0
1855,1765221030826,-642,8028,-1061,0,0,0,0,0
1856,1765221031145,-632,8040,-1011,0,0,0,0,0
1857,1765221031329,-629,8029,-1069,0,0,0,0,0
1858,1765221031395,-625,8075,-1009,0,0,0,0,0
1859,1765221031677,-616,7989,-1048,0,0,0,0,0
1860,1765221031777,-647,8007,-1056,0,0,0,0,0
1861,1765221031929,-630,8036,-1040,0,0,0,0,0
1862,1765221032094,-662,8052,-1032,0,0,0,0,0
1863,1765221032412,-595,7968,-1047,0,0,0,0,0
1864,1765221032545,-633,8031,-1028,0,0,0,0,0
1865,1765221032695,-632,8046,-1055,0,0,0,0,0
1866,1765221032845,-658,8027,-1049,0,0,0,0,0
1867,1765221033044,-643,8005,-1089,0,0,0,0,0
1868,1765221033195,-649,8036,-1017,0,0,0,0,0
1869,1765221033328,-612,8015,-1056,0,0,0,0,0
1870,1765221033546,-649,8046,-1081,0,0,0,0,0
1871,1765221033644,-651,8020,-1020,0,0,0,0,0
1872,1765221033961,-625,7997,-1051,0,0,0,0,0
1873,1765221034212,-625,8056,-1058,0,0,0,0,0
1874,1765221034328,-639,8031,-1010,0,0,0,0,0
1875,1765221034445,-652,8036,-1067,0,0,0,0,0
1876,1765221034628,-633,8021,-1069,0,0,0,0,0
1877,1765221034729,-610,8053,-1043,0,0,0,0,0
1878,1765221035110,-618,8057,-1034,0,0,0,0,0
1879,1765221035195,-647,8024,-988,0,0,0,0,0
1880,1765221035428,-649,8040,-1052,0,0,0,0,0
1881,1765221035479,-620,8030,-1118,0,0,0,0,0
1882,1765221035911,-644,8041,-1109,0,0,0,0,0
1883,1765221036095,-611,8024,-1051,0,0,0,0,0
1884,1765221036328,-642,8021,-1082,0,0,0,0,0
1885,1765221036445,-634,8043,-1072,0,0,0,0,0
1886,1765221036629,-610,8025,-1058,0,0,0,0,0
1887,1765221036812,-632,8076,-990,0,0,0,0,0
1888,1765221037045,-641,8042,-1036,0,0,0,0,0
1889,1765221037129,-636,8053,-1035,0,0,0,0,0
1890,1765221037329,-641,8000,-1034,0,0,0,0,0
1891,1765221056812,-649,8082,-762,0,0,0,0,0
1892,1765221056962,-630,8059,-753,0,0,0,0,0
1893,1765221057146,-645,8066,-758,0,0,0,0,0
1894,1765221057262,-660,8092,-737,0,0,0,0,0
1895,1765221057495,-639,8089,-716,0,0,0,0,0
1896,1765221057580,-636,8081,-701,0,0,0,0,0
1897,1765221057828,-642,8058,-696,0,0,0,0,0
1898,1765221058086,-647,8080,-716,0,0,0,0,0
1899,1765221058245,-636,8081,-698,0,0,0,0,0
1900,1765221058545,-656,8074,-696,0,0,0,0,0
1901,1765221058746,-636,8074,-750,0,0,0,0,0
1902,1765221059662,-644,8065,-744,0,0,0,0,0
1903,1765221060078,-638,8076,-706,0,0,0,0,0
1904,1765221060229,-638,8081,-711,0,0,0,0,0
1905,1765221062877,-641,8086,-716,0,0,0,0,0
1906,1765221063027,-650,8068,-710,0,0,0,0,0
1907,1765221063394,-638,8075,-722,0,0,0,0,0
1908,1765221063828,-648,8067,-715,0,0,0,0,0
1909,1765221064146,-634,8082,-724,0,0,0,0,0
1910,1765221064261,-632,8067,-715,0,0,0,0,0
1911,1765221064445,-638,8072,-710,0,0,0,0,0
1912,1765221064546,-640,8070,-701,0,0,0,0,0
1913,1765221064779,-638,8078,-711,0,0,0,0,0
1914,1765221064877,-640,8070,-704,0,0,0,0,0
1915,1765221064933,-633,8090,-725,0,0,0,0,0
1916,1765221065030,-646,8081,-720,0,0,0,0,0
1917,1765221065246,-643,8073,-728,0,0,0,0,0
1918,1765221065344,-639,8075,-726,0,0,0,0,0
1919,1765221065695,-647,8078,-722,0,0,0,0,0
1920,1765221065977,-635,8068,-716,0,0,0,0,0
1921,1765221066044,-638,8075,-708,0,0,0,0,0
1922,1765221066128,-639,8073,-710,0,0,0,0,0
1923,1765221066210,-640,8076,-721,0,0,0,0,0
1924,1765221067178,-659,8075,-712,0,0,0,0,0
1925,1765221067911,-657,8048,-711,0,0,0,0,0
1926,1765221068011,-664,8103,-664,0,0,0,0,0
1927,1765221068078,-650,8055,-696,0,0,0,0,0
1928,1765221068294,-629,8040,-749,0,0,0,0,0
1929,1765221068428,-644,8101,-742,0,0,0,0,0
1930,1765221068730,-608,8047,-684,0,0,0,0,0
1931,1765221068811,-604,8103,-697,0,0,0,0,0
1932,1765221069628,-642,8061,-669,0,0,0,0,0
1933,1765221176593,58,8134,-218,0,0,0,0,0
1934,1765221176710,51,8132,-209,0,0,0,0,0
1935,1765221176876,45,8144,-208,0,0,0,0,0
1936,1765221177060,55,8134,-202,0,0,0,0,0
1937,1765221177377,54,8126,-232,0,0,0,0,0
1938,1765221177492,16,8141,-180,0,0,0,0,0
1939,1765221177710,76,8127,-162,0,0,0,0,0
1940,1765221177793,78,8161,-234,0,0,0,0,0
1941,1765221178160,59,8124,-217,0,0,0,0,0
1942,1765221178310,64,8153,-196,0,0,0,0,0
1943,1765221178458,44,8140,-185,0,0,0,0,0
1944,1765221178593,5,8092,-260,0,0,0,0,0
1945,1765221178876,72,8158,-180,0,0,0,0,0
1946,1765221179077,50,8140,-176,0,0,0,0,0
1947,1765221179277,14,8109,-207,0,0,0,0,0
1948,1765221179342,67,8170,-173,0,0,0,0,0
1949,1765221179559,82,8148,-223,0,0,0,0,0
1950,1765221179743,28,8108,-184,0,0,0,0,0
1951,1765221179943,44,8131,-163,0,0,0,0,0
1952,1765221180041,26,8114,-209,0,0,0,0,0
1953,1765221180277,80,8144,-182,0,0,0,0,0
1954,1765221180460,70,8136,-188,0,0,0,0,0
1955,1765221180643,42,8132,-194,0,0,0,0,0
1956,1765221180776,46,8144,-196,0,0,0,0,0
1957,1765221180977,48,8134,-196,0,0,0,0,0
1958,1765221181143,44,8142,-196,0,0,0,0,0
1959,1765221181226,50,8132,-182,0,0,0,0,0
1960,1765221181476,50,8148,-198,0,0,0,0,0
1961,1765221181593,41,8135,-181,0,0,0,0,0
1962,1765221181726,51,8138,-187,0,0,0,0,0
1963,1765221181893,49,8140,-192,0,0,0,0,0
1964,1765221182060,47,8134,-208,0,0,0,0,0
1965,1765221182260,58,8132,-188,0,0,0,0,0
1966,1765221182426,54,8128,-204,0,0,0,0,0
1967,1765221182643,48,8125,-194,0,0,0,0,0
1968,1765221182743,44,8170,-181,0,0,0,0,0
1969,1765221184943,47,8120,-183,0,0,0,0,0
1970,1765221185060,49,8140,-197,0,0,0,0,0
1971,1765221185244,62,8148,-200,0,0,0,0,0
1972,1765221185360,37,8135,-202,0,0,0,0,0
1973,1765221185426,40,8148,-192,0,0,0,0,0
1974,1765221185643,43,8136,-206,0,0,0,0,0
1975,1765221185876,53,8141,-196,0,0,0,0,0
1976,1765221186160,56,8170,-170,0,0,0,0,0
1977,1765221186226,50,8096,-190,0,0,0,0,0
1978,1765221186442,56,8141,-204,0,0,0,0,0
1979,1765221186543,23,8161,-197,0,0,0,0,0
1980,1765221186826,64,8149,-195,0,0,0,0,0
1981,1765221186909,43,8134,-178,0,0,0,0,0
1982,1765221187110,51,8137,-185,0,0,0,0,0
1983,1765221187210,48,8144,-212,0,0,0,0,0
1984,1765221187327,52,8137,-184,0,0,0,0,0
1985,1765221187443,63,8144,-199,0,0,0,0,0
1986,1765221187676,39,8141,-182,0,0,0,0,0
1987,1765221187960,50,8146,-192,0,0,0,0,0
1988,1765221188094,55,8144,-183,0,0,0,0,0
1989,1765221188277,48,8133,-198,0,0,0,0,0
1990,1765221188427,55,8138,-190,0,0,0,0,0
1991,1765221188510,54,8142,-192,0,0,0,0,0
1992,1765221188626,40,8158,-182,0,0,0,0,0
1993,1765221188826,42,8138,-197,0,0,0,0,0
1994,1765221188911,52,8126,-192,0,0,0,0,0
1995,1765221189210,61,8135,-191,0,0,0,0,0
1996,1765221189394,48,8141,-186,0,0,0,0,0
1997,1765221189594,56,8139,-194,0,0,0,0,0
1998,1765221189676,47,8128,-185,0,0,0,0,0
1999,1765221189776,36,8149,-190,0,0,0,0,0
2000,1765221189977,57,8148,-213,0,0,0,0,0
2001,1765221190059,66,8143,-177,0,0,0,0,0
2002,1765221190327,36,8151,-168,0,0,0,0,0
2003,1765221190494,73,8138,-216,0,0,0,0,0
2004,1765221190676,74,8117,-210,0,0,0,0,0
2005,1765221190793,-3,8116,-124,0,0,0,0,0
2006,1765221190910,-28,8430,-356,0,0,0,0,0
2007,1765221191010,-59,7854,-399,0,0,0,0,0
2008,1765221191276,51,8289,-390,0,0,0,0,0
2009,1765221191459,66,8165,312,0,0,0,0,0
2010,1765221191493,102,8200,-157,0,0,0,0,0
2011,1765221191693,73,8126,-128,0,0,0,0,0
2012,1765221191793,-8,8116,-220,0,0,0,0,0
2013,1765221191977,82,8136,-200,0,0,0,0,0
2014,1765221192143,68,8161,-203,0,0,0,0,0
2015,1765221192360,30,8098,-234,0,0,0,0,0
2016,1765221192476,36,8147,-168,0,0,0,0,0
2017,1765221192660,66,8166,-194,0,0,0,0,0
2018,1765221192876,32,8172,-231,0,0,0,0,0
2019,1765221193143,62,8104,-149,0,0,0,0,0
2020,1765221193260,52,8178,-197,0,0,0,0,0
2021,1765221193326,54,8136,-188,0,0,0,0,0
2022,1765221193393,48,8120,-191,0,0,0,0,0
2023,1765221193626,48,8158,-177,0,0,0,0,0
2024,1765221193742,56,8130,-194,0,0,0,0,0
2025,1765221193959,58,8138,-177,0,0,0,0,0
2026,1765221194090,36,8126,-208,0,0,0,0,0
2027,1765221194329,58,8156,-175,0,0,0,0,0
2028,1765221194408,54,8132,-194,0,0,0,0,0
2029,1765221194593,26,8086,-376,0,0,0,0,0
2030,1765221194826,56,8150,-347,0,0,0,0,0
2031,1765221195059,16,8141,-303,0,0,0,0,0
2032,1765221195192,122,8144,-93,0,0,0,0,0
2033,1765221195360,40,8124,-94,0,0,0,0,0
2034,1765221195491,43,8172,-118,0,0,0,0,0
2035,1765221195743,72,8128,-119,0,0,0,0,0
2036,1765221195893,39,8119,-143,0,0,0,0,0
2037,1765221196026,31,8160,-180,0,0,0,0,0
2038,1765221196193,98,8136,-163,0,0,0,0,0
2039,1765221196626,9,8160,-227,0,0,0,0,0
2040,1765221196761,75,8102,-179,0,0,0,0,0
2041,1765221196925,88,8136,-124,0,0,0,0,0
2042,1765221197059,65,8034,-181,0,0,0,0,0
2043,1765221197342,47,8222,-190,0,0,0,0,0
2044,1765221197392,71,8089,-235,0,0,0,0,0
2045,1765221197627,27,8102,-237,0,0,0,0,0
2046,1765221197759,49,8120,-174,0,0,0,0,0
2047,1765221197959,74,8153,-188,0,0,0,0,0
2048,1765221198194,40,8119,-188,0,0,0,0,0
2049,1765221198410,30,8091,-184,0,0,0,0,0
2050,1765221198526,84,8216,-223,0,0,0,0,0
2051,1765221198783,36,8101,-193,0,0,0,0,0
2052,1765221198859,31,8122,-176,0,0,0,0,0
2053,1765221199060,32,8085,-185,0,0,0,0,0
2054,1765221199226,92,8156,-254,0,0,0,0,0
2055,1765221199410,71,8241,-224,0,0,0,0,0
2056,1765221199510,-2,8050,-197,0,0,0,0,0
2057,1765221199575,12,8134,-210,0,0,0,0,0
2058,1765221199659,50,8267,-213,0,0,0,0,0
2059,1765221199959,77,8121,-172,0,0,0,0,0
2060,1765221200143,62,8096,-138,0,0,0,0,0
2061,1765221200309,90,8170,-213,0,0,0,0,0
2062,1765221200426,49,8176,-178,0,0,0,0,0
2063,1765221200626,34,8103,-204,0,0,0,0,0
2064,1765221200810,103,8161,-165,0,0,0,0,0
2065,1765221201027,48,8153,-212,0,0,0,0,0
2066,1765221201110,40,8113,-175,0,0,0,0,0
2067,1765221201393,56,8162,-165,0,0,0,0,0
2068,1765221201576,25,8004,630,0,0,0,0,0
2069,1765221201760,154,8413,520,0,0,0,0,0
2070,1765221201960,176,8104,678,0,0,0,0,0
2071,1765221202144,138,8198,664,0,0,0,0,0
2072,1765221202343,41,8579,489,0,0,0,0,0
2073,1765221202476,64,7574,584,0,0,0,0,0
2074,1765221202711,368,7509,724,0,0,0,0,0
2075,1765221202859,-151,8632,904,0,0,0,0,0
2076,1765221203158,273,7902,576,0,0,0,0,0
2077,1765221203260,132,8476,1155,0,0,0,0,0
2078,1765221203526,413,8646,1334,0,0,0,0,0
2079,1765221203593,808,7707,1407,0,0,0,0,0
2080,1765221203860,394,8518,980,0,0,0,0,0
2081,1765221203992,266,7966,1181,0,0,0,0,0
2082,1765221204008,570,8287,1106,0,0,0,0,0
2083,1765221204243,-139,8079,1340,0,0,0,0,0
2084,1765221204343,0,7945,1328,0,0,0,0,0
2085,1765221204610,413,7562,728,0,0,0,0,0
2086,1765221204876,589,9263,2014,0,0,0,0,0
2087,1765221204991,273,8620,1179,0,0,0,0,0
2088,1765221205226,53,7358,1700,0,0,0,0,0
2089,1765221205260,-341,6785,1198,0,0,0,0,0
2090,1765221205393,-145,9220,1818,0,0,0,0,0
2091,1765221205643,-176,7976,2160,0,0,0,0,0
2092,1765221205725,311,8031,1833,0,0,0,0,0
2093,1765221205990,-1303,8416,1183,0,0,0,0,0
2094,1765221206092,-526,9108,277,0,0,0,0,0
2095,1765221206394,-2519,6150,1193,0,0,0,0,0
2096,1765221206560,-1606,7942,1576,0,0,0,0,0
2097,1765221206776,-21,7050,800,0,0,0,0,0
2098,1765221206911,-47,8851,1400,0,0,0,0,0
2099,1765221207108,-1163,6310,1293,0,0,0,0,0
2100,1765221207158,706,7000,1316,0,0,0,0,0
2101,1765221207326,-675,8472,1096,0,0,0,0,0
2102,1765221207493,108,11792,1022,0,0,0,0,0
2103,1765221207710,217,6546,1638,0,0,0,0,0
2104,1765221207893,909,10683,2847,0,0,0,0,0
2105,1765221208209,799,6954,1554,0,0,0,0,0
2106,1765221208276,735,9761,2271,0,0,0,0,0
2107,1765221208575,906,8576,1940,0,0,0,0,0
2108,1765221208642,-374,5865,1819,0,0,0,0,0
2109,1765221208908,986,9132,2340,0,0,0,0,0
2110,1765221209291,1184,8056,822,0,0,0,0,0
2111,1765221209391,-51,6990,794,0,0,0,0,0
2112,1765221209730,271,7901,-136,0,0,0,0,0
2113,1765221209741,1213,6708,-333,0,0,0,0,0
2114,1765221209909,1382,11086,1373,0,0,0,0,0
2115,1765221210043,1243,7232,-49,0,0,0,0,0
2116,1765221210309,-1193,10033,528,0,0,0,0,0
2117,1765221210460,-1142,6672,-1032,0,0,0,0,0
2118,1765221210710,-134,8372,562,0,0,0,0,0
2119,1765221210826,809,7308,-10,0,0,0,0,0
2120,1765221211059,-1083,13242,-6320,0,0,0,0,0
2121,1765221211276,-136,5080,-5016,0,0,0,0,0
2122,1765221211443,1298,13028,-9221,0,0,0,0,0
2123,1765221211609,205,8447,-6567,0,0,0,0,0
2124,1765221211843,-2371,7585,-7692,0,0,0,0,0
2125,1765221211925,-2629,7950,-6950,0,0,0,0,0
2126,1765221212176,-2586,7869,-6020,0,0,0,0,0
2127,1765221212210,3063,8278,-4107,0,0,0,0,0
2128,1765221212309,1672,7936,-4552,0,0,0,0,0
2129,1765221212543,-934,7828,-4884,0,0,0,0,0
2130,1765221212626,-1488,7436,-5273,0,0,0,0,0
2131,1765221213058,529,7751,-3046,0,0,0,0,0
2132,1765221213277,526,8097,-2827,0,0,0,0,0
2133,1765221213358,464,7835,-3093,0,0,0,0,0
2134,1765221213442,364,8098,-1963,0,0,0,0,0
2135,1765221213558,386,8123,-1944,0,0,0,0,0
2136,1765221213774,510,7962,-1434,0,0,0,0,0
2137,1765221213926,239,8124,-1790,0,0,0,0,0
2138,1765221214059,672,8032,-1063,0,0,0,0,0
2139,1765221214109,448,8236,-245,0,0,0,0,0
2140,1765221214191,537,8085,124,0,0,0,0,0
2141,1765221214426,428,8202,-246,0,0,0,0,0
2142,1765221214692,470,8048,-212,0,0,0,0,0
2143,1765221214875,486,8125,-175,0,0,0,0,0
2144,1765221214943,428,8151,-191,0,0,0,0,0
2145,1765221215159,458,8105,-150,0,0,0,0,0
2146,1765221215309,474,8116,-175,0,0,0,0,0
2147,1765221215443,475,8132,-184,0,0,0,0,0
2148,1765221215626,444,8118,-166,0,0,0,0,0
2149,1765221215807,445,8098,-184,0,0,0,0,0
2150,1765221215907,462,8146,-164,0,0,0,0,0
2151,1765221216043,460,8121,-151,0,0,0,0,0
2152,1765221216342,450,8136,-184,0,0,0,0,0
2153,1765221216459,456,8117,-162,0,0,0,0,0
2154,1765221216593,460,8126,-196,0,0,0,0,0
2155,1765221216775,457,8143,-166,0,0,0,0,0
2156,1765221216909,447,8095,-174,0,0,0,0,0
2157,1765221217092,471,8157,-150,0,0,0,0,0
2158,1765221217241,472,8114,-165,0,0,0,0,0
2159,1765221217474,450,8123,-182,0,0,0,0,0
2160,1765221217541,459,8144,-163,0,0,0,0,0
2161,1765221217776,465,8098,-171,0,0,0,0,0
2162,1765221217909,456,8136,-157,0,0,0,0,0
2163,1765221218159,456,8136,-158,0,0,0,0,0
2164,1765221218276,466,8114,-182,0,0,0,0,0
2165,1765221218408,460,8142,-183,0,0,0,0,0
2166,1765221218592,456,8159,-198,0,0,0,0,0
2167,1765221218692,466,8082,-134,0,0,0,0,0
2168,1765221218960,467,8130,-160,0,0,0,0,0
2169,1765221219125,458,8114,-164,0,0,0,0,0
2170,1765221219324,445,8124,-176,0,0,0,0,0
2171,1765221219409,455,8138,-180,0,0,0,0,0
2172,1765221219742,457,8148,-166,0,0,0,0,0
2173,1765221219959,451,8094,-169,0,0,0,0,0
2174,1765221220141,469,8122,-177,0,0,0,0,0
2175,1765221220276,453,8110,-158,0,0,0,0,0
2176,1765221220374,453,8096,-160,0,0,0,0,0
2177,1765221220671,482,8140,-177,0,0,0,0,0
2178,1765221220725,442,8133,-196,0,0,0,0,0
2179,1765221220992,460,8103,-163,0,0,0,0,0
2180,1765221221091,450,8148,-153,0,0,0,0,0
2181,1765221221293,466,8116,-167,0,0,0,0,0
2182,1765221221774,453,8111,-183,0,0,0,0,0
2183,1765221221840,465,8128,-186,0,0,0,0,0
2184,1765221222060,451,8139,-177,0,0,0,0,0
2185,1765221222126,447,8133,-206,0,0,0,0,0
2186,1765221222225,458,8101,-180,0,0,0,0,0
2187,1765221222411,477,8150,-109,0,0,0,0,0
2188,1765221222561,447,8138,-177,0,0,0,0,0
2189,1765221222692,450,8108,-172,0,0,0,0,0
2190,1765221222792,462,8146,-147,0,0,0,0,0
2191,1765221222975,441,8183,-197,0,0,0,0,0
2192,1765221223076,495,8092,-174,0,0,0,0,0
2193,1765221223392,434,8162,-209,0,0,0,0,0
2194,1765221223608,496,8127,-152,0,0,0,0,0
2195,1765221223759,435,8097,-189,0,0,0,0,0
2196,1765221223875,428,8144,-171,0,0,0,0,0
2197,1765221223942,438,8087,-174,0,0,0,0,0
2198,1765221224159,472,8143,-178,0,0,0,0,0
2199,1765221224226,458,8127,-152,0,0,0,0,0
2200,1765221224558,471,8128,-158,0,0,0,0,0
2201,1765221224676,439,8123,-179,0,0,0,0,0
2202,1765221224843,461,8116,-158,0,0,0,0,0
2203,1765221224959,457,8125,-163,0,0,0,0,0
2204,1765221225159,446,8141,-149,0,0,0,0,0
2205,1765221225426,453,8129,-192,0,0,0,0,0
2206,1765221225609,479,8080,-166,0,0,0,0,0
2207,1765221225842,455,8128,-178,0,0,0,0,0
2208,1765221225925,471,8120,-180,0,0,0,0,0
2209,1765221226124,458,8133,-169,0,0,0,0,0
2210,1765221226260,452,8126,-174,0,0,0,0,0
2211,1765221226360,494,8134,-158,0,0,0,0,0
2212,1765221226544,424,8115,-206,0,0,0,0,0
2213,1765221226643,428,8118,-166,0,0,0,0,0
2214,1765221226809,476,8120,-154,0,0,0,0,0
2215,1765221227059,472,8133,-176,0,0,0,0,0
2216,1765221227309,436,8125,-170,0,0,0,0,0
2217,1765221227409,480,8128,-165,0,0,0,0,0
2218,1765221227542,474,8138,-161,0,0,0,0,0
2219,1765221227792,448,8126,-181,0,0,0,0,0
2220,1765221227874,456,8118,-175,0,0,0,0,0
2221,1765221228109,470,8151,-150,0,0,0,0,0
2222,1765221228275,458,8122,-172,0,0,0,0,0
2223,1765221228459,458,8124,-164,0,0,0,0,0
2224,1765221228559,458,8135,-172,0,0,0,0,0
2225,1765221229008,462,8115,-174,0,0,0,0,0
2226,1765221229226,454,8135,-182,0,0,0,0,0
2227,1765221229309,455,8116,-193,0,0,0,0,0
2228,1765221229376,464,8112,-134,0,0,0,0,0
2229,1765221229475,462,8132,-212,0,0,0,0,0
2230,1765221229726,458,8143,-183,0,0,0,0,0
2231,1765221229909,464,8121,-129,0,0,0,0,0
2232,1765221230109,444,8126,-138,0,0,0,0,0
2233,1765221230209,449,8122,-188,0,0,0,0,0
2234,1765221230393,470,8116,-184,0,0,0,0,0
2235,1765221230842,478,8174,-160,0,0,0,0,0
2236,1765221230974,473,8156,-214,0,0,0,0,0
2237,1765221231141,447,8043,-94,0,0,0,0,0
2238,1765221231609,416,8211,-101,0,0,0,0,0
2239,1765221231609,517,8091,-191,0,0,0,0,0
2240,1765221231826,461,7990,-170,0,0,0,0,0
2241,1765221231958,453,8142,-138,0,0,0,0,0
2242,1765221232142,487,8066,-188,0,0,0,0,0
2243,1765221232376,445,8134,-158,0,0,0,0,0
2244,1765221232558,463,8103,-149,0,0,0,0,0
2245,1765221232690,471,8128,-171,0,0,0,0,0
2246,1765221232891,459,8141,-167,0,0,0,0,0
2247,1765221233026,439,8110,-190,0,0,0,0,0
2248,1765221233226,465,8121,-154,0,0,0,0,0
2249,1765221233392,463,8140,-152,0,0,0,0,0
2250,1765221233592,414,8112,-220,0,0,0,0,0
2251,1765221233776,463,8117,-182,0,0,0,0,0
2252,1765221234025,469,8122,-162,0,0,0,0,0
2253,1765221234143,445,8122,-168,0,0,0,0,0
2254,1765221234342,463,8105,-190,0,0,0,0,0
2255,1765221234509,460,8140,-166,0,0,0,0,0
2256,1765221234591,461,8126,-164,0,0,0,0,0
2257,1765221234825,457,8109,-179,0,0,0,0,0
2258,1765221234942,454,8138,-170,0,0,0,0,0
2259,1765221235159,455,8124,-168,0,0,0,0,0
2260,1765221235276,461,8112,-196,0,0,0,0,0
2261,1765221235575,472,8129,-147,0,0,0,0,0
2262,1765221235726,454,8119,-173,0,0,0,0,0
2263,1765221235925,445,8101,-159,0,0,0,0,0
2264,1765221236026,462,8138,-189,0,0,0,0,0
2265,1765221236241,453,8138,-162,0,0,0,0,0
2266,1765221236408,455,8119,-179,0,0,0,0,0
2267,1765221236659,463,8124,-198,0,0,0,0,0
2268,1765221236742,469,8128,-132,0,0,0,0,0
2269,1765221237093,469,8104,-167,0,0,0,0,0
2270,1765221237393,459,8130,-167,0,0,0,0,0
2271,1765221237476,445,8138,-162,0,0,0,0,0
2272,1765221237543,445,8132,-163,0,0,0,0,0
2273,1765221237660,468,8114,-184,0,0,0,0,0
2274,1765221237843,452,8132,-174,0,0,0,0,0
2275,1765221237992,460,8133,-151,0,0,0,0,0
2276,1765221238192,455,8122,-171,0,0,0,0,0
2277,1765221238308,457,8110,-180,0,0,0,0,0
2278,1765221238525,460,8138,-166,0,0,0,0,0
2279,1765221238626,452,8124,-178,0,0,0,0,0
2280,1765221238844,437,8151,-133,0,0,0,0,0
2281,1765221239058,470,8115,-180,0,0,0,0,0
2282,1765221239291,462,8140,-175,0,0,0,0,0
2283,1765221239426,447,8136,-140,0,0,0,0,0
2284,1765221239643,475,8113,-162,0,0,0,0,0
2285,1765221239758,452,8096,-227,0,0,0,0,0
2286,1765221239993,414,8165,-163,0,0,0,0,0
2287,1765221240124,472,8130,-165,0,0,0,0,0
2288,1765221240276,466,8144,-178,0,0,0,0,0
2289,1765221240441,448,8100,-181,0,0,0,0,0
2290,1765221240842,479,8144,-136,0,0,0,0,0
2291,1765221240976,444,8114,-184,0,0,0,0,0
2292,1765221241142,452,8103,-190,0,0,0,0,0
2293,1765221241542,455,8144,-161,0,0,0,0,0
2294,1765221241642,456,8116,-191,0,0,0,0,0
2295,1765221241840,470,8135,-166,0,0,0,0,0
2296,1765221241992,460,8153,-156,0,0,0,0,0
2297,1765221242192,458,8134,-189,0,0,0,0,0
2298,1765221242553,467,8096,-168,0,0,0,0,0
2299,1765221242659,456,8138,-170,0,0,0,0,0
2300,1765221242727,474,8122,-158,0,0,0,0,0
2301,1765221242976,456,8136,-183,0,0,0,0,0
2302,1765221243107,465,8127,-158,0,0,0,0,0
2303,1765221243326,458,8138,-177,0,0,0,0,0
2304,1765221243442,454,8130,-173,0,0,0,0,0
2305,1765221243675,455,8125,-163,0,0,0,0,0
2306,1765221243809,462,8129,-180,0,0,0,0,0
2307,1765221243991,456,8125,-171,0,0,0,0,0
2308,1765221244176,456,8134,-158,0,0,0,0,0
2309,1765221244525,464,8120,-174,0,0,0,0,0
2310,1765221244658,445,8130,-168,0,0,0,0,0
2311,1765221244876,462,8124,-162,0,0,0,0,0
2312,1765221245243,460,8114,-184,0,0,0,0,0
2313,1765221245326,458,8124,-156,0,0,0,0,0
2314,1765221245591,463,8131,-180,0,0,0,0,0
2315,1765221245743,452,8120,-162,0,0,0,0,0
2316,1765221245990,458,8135,-203,0,0,0,0,0
2317,1765221246110,482,8087,-229,0,0,0,0,0
2318,1765221246275,456,8146,-120,0,0,0,0,0
2319,1765221246424,462,8140,-182,0,0,0,0,0
2320,1765221246658,462,8086,-259,0,0,0,0,0
2321,1765221246743,459,8152,-164,0,0,0,0,0
2322,1765221246925,457,8115,-187,0,0,0,0,0
2323,1765221247108,477,8128,-167,0,0,0,0,0
2324,1765221247425,458,8119,-162,0,0,0,0,0
2325,1765221247493,462,8094,-173,0,0,0,0,0
2326,1765221247557,453,8121,-220,0,0,0,0,0
2327,1765221247659,484,8134,-135,0,0,0,0,0
2328,1765221247859,444,8129,-166,0,0,0,0,0
2329,1765221247991,446,8100,-201,0,0,0,0,0
2330,1765221248194,471,8121,-185,0,0,0,0,0
2331,1765221248342,467,8126,-166,0,0,0,0,0
2332,1765221248558,446,8134,-160,0,0,0,0,0
2333,1765221248659,450,8116,-168,0,0,0,0,0
2334,1765221248842,466,8122,-179,0,0,0,0,0
2335,1765221249041,465,8115,-164,0,0,0,0,0
2336,1765221249308,454,8134,-172,0,0,0,0,0
2337,1765221249427,464,8135,-164,0,0,0,0,0
2338,1765221249557,454,8115,-182,0,0,0,0,0
2339,1765221249726,466,8130,-172,0,0,0,0,0
2340,1765221249960,461,8125,-164,0,0,0,0,0
2341,1765221250092,453,8125,-194,0,0,0,0,0
2342,1765221250176,449,8133,-145,0,0,0,0,0
2343,1765221250392,479,8123,-171,0,0,0,0,0
2344,1765221250460,448,8130,-188,0,0,0,0,0
2345,1765221250909,446,8143,-170,0,0,0,0,0
2346,1765221251075,462,8112,-178,0,0,0,0,0
2347,1765221251210,462,8118,-174,0,0,0,0,0
2348,1765221251340,452,8126,-179,0,0,0,0,0
2349,1765221251558,449,8118,-165,0,0,0,0,0
2350,1765221251692,469,8128,-172,0,0,0,0,0
2351,1765221252058,463,8120,-176,0,0,0,0,0
2352,1765221252158,461,8114,-160,0,0,0,0,0
2353,1765221252342,458,8140,-160,0,0,0,0,0
2354,1765221252776,449,8118,-196,0,0,0,0,0
2355,1765221252827,473,8126,-161,0,0,0,0,0
2356,1765221253059,460,8131,-183,0,0,0,0,0
2357,1765221253174,461,8140,-168,0,0,0,0,0
2358,1765221253243,465,8110,-167,0,0,0,0,0
2359,1765221253507,464,8147,-188,0,0,0,0,0
2360,1765221253594,463,8113,-160,0,0,0,0,0
2361,1765221253876,459,8110,-174,0,0,0,0,0
2362,1765221253975,458,8142,-167,0,0,0,0,0
2363,1765221254259,456,8118,-184,0,0,0,0,0
2364,1765221254475,410,8148,-268,0,0,0,0,0
2365,1765221254675,494,8157,-210,0,0,0,0,0
2366,1765221254774,489,8115,-226,0,0,0,0,0
2367,1765221255025,456,8073,-22,0,0,0,0,0
2368,1765221255192,334,8119,-179,0,0,0,0,0
2369,1765221255375,512,8144,-73,0,0,0,0,0
2370,1765221255508,543,8120,-124,0,0,0,0,0
2371,1765221255625,529,8228,-153,0,0,0,0,0
2372,1765221255692,375,8127,-145,0,0,0,0,0
2373,1765221255924,442,8071,-128,0,0,0,0,0
2374,1765221256108,448,8120,-204,0,0,0,0,0
2375,1765221256392,463,8235,-455,0,0,0,0,0
2376,1765221256459,483,8114,-465,0,0,0,0,0
2377,1765221256675,429,8170,-503,0,0,0,0,0
2378,1765221256740,414,8072,-372,0,0,0,0,0
2379,1765221256858,381,7988,-375,0,0,0,0,0
2380,1765221257008,556,8222,-214,0,0,0,0,0
2381,1765221257192,441,8032,-148,0,0,0,0,0
2382,1765221257391,356,8076,-205,0,0,0,0,0
2383,1765221257608,396,8164,-271,0,0,0,0,0
2384,1765221257692,490,8131,-288,0,0,0,0,0
2385,1765221257959,456,8248,-81,0,0,0,0,0
2386,1765221258176,462,7949,-88,0,0,0,0,0
2387,1765221258391,334,8035,-66,0,0,0,0,0
2388,1765221258457,476,8267,-18,0,0,0,0,0
2389,1765221258558,360,8218,-186,0,0,0,0,0
2390,1765221258725,466,8150,-111,0,0,0,0,0
2391,1765221258842,412,8067,-92,0,0,0,0,0
2392,1765221259075,422,8080,-116,0,0,0,0,0
2393,1765221259274,564,7960,36,0,0,0,0,0
2394,1765221259392,486,8293,-74,0,0,0,0,0
2395,1765221259557,308,7958,-190,0,0,0,0,0
2396,1765221260042,354,8042,-145,0,0,0,0,0
2397,1765221260123,452,7882,-114,0,0,0,0,0
2398,1765221260325,298,8210,-181,0,0,0,0,0
2399,1765221260375,558,8090,-262,0,0,0,0,0
2400,1765221260492,348,8059,-190,0,0,0,0,0
2401,1765221260642,196,8028,-232,0,0,0,0,0
2402,1765221260842,370,7913,-110,0,0,0,0,0
2403,1765221261008,375,8069,-69,0,0,0,0,0
2404,1765221261225,282,8202,-95,0,0,0,0,0
2405,1765221261292,336,7875,11,0,0,0,0,0
2406,1765221261509,222,8138,66,0,0,0,0,0
2407,1765221261708,173,8281,-234,0,0,0,0,0
2408,1765221262008,402,8002,-172,0,0,0,0,0
2409,1765221262076,197,8400,24,0,0,0,0,0
2410,1765221262210,207,8171,-141,0,0,0,0,0
2411,1765221262442,105,8382,-271,0,0,0,0,0
2412,1765221262508,345,7804,-159,0,0,0,0,0
2413,1765221262774,275,7972,-98,0,0,0,0,0
2414,1765221262909,256,8188,-90,0,0,0,0,0
2415,1765221263043,248,8290,-134,0,0,0,0,0
2416,1765221263208,249,8124,-102,0,0,0,0,0
2417,1765221263526,301,8171,-32,0,0,0,0,0
2418,1765221263741,248,8148,-26,0,0,0,0,0
2419,1765221263941,212,8295,188,0,0,0,0,0
2420,1765221264093,274,7921,180,0,0,0,0,0
2421,1765221264412,115,8409,201,0,0,0,0,0
2422,1765221264423,178,8122,192,0,0,0,0,0
2423,1765221264809,136,8234,180,0,0,0,0,0
2424,1765221264942,270,8053,213,0,0,0,0,0
2425,1765221265108,203,8047,256,0,0,0,0,0
2426,1765221265542,240,8196,236,0,0,0,0,0
2427,1765221265659,253,8152,280,0,0,0,0,0
2428,1765221265826,231,8144,251,0,0,0,0,0
2429,1765221265975,159,8130,-208,0,0,0,0,0
2430,1765221266225,230,8148,-39,0,0,0,0,0
2431,1765221266309,228,8169,-55,0,0,0,0,0
2432,1765221266659,78,8043,-226,0,0,0,0,0
2433,1765221266842,72,7988,67,0,0,0,0,0
2434,1765221267075,229,8398,-243,0,0,0,0,0
2435,1765221267275,196,8152,-84,0,0,0,0,0
2436,1765221267409,183,8156,-55,0,0,0,0,0
2437,1765221267609,244,8115,-59,0,0,0,0,0
2438,1765221267742,236,8222,-72,0,0,0,0,0
2439,1765221267790,216,8094,-70,0,0,0,0,0
2440,1765221267975,210,8180,-80,0,0,0,0,0
2441,1765221268124,222,8118,-84,0,0,0,0,0
2442,1765221268309,228,8130,-99,0,0,0,0,0
2443,1765221268475,218,8143,-98,0,0,0,0,0
2444,1765221268541,178,8128,28,0,0,0,0,0
2445,1765221268859,202,8170,-107,0,0,0,0,0
2446,1765221269008,268,8148,-110,0,0,0,0,0
2447,1765221269176,209,8142,-109,0,0,0,0,0
2448,1765221269275,192,8156,1,0,0,0,0,0
2449,1765221269542,244,8137,-28,0,0,0,0,0
2450,1765221269675,200,8117,-152,0,0,0,0,0
2451,1765221269791,187,8143,-132,0,0,0,0,0
2452,1765221269974,240,8128,-61,0,0,0,0,0
2453,1765221270124,214,8155,-33,0,0,0,0,0
2454,1765221270323,206,8133,-73,0,0,0,0,0
2455,1765221270559,229,8132,-106,0,0,0,0,0
2456,1765221270726,224,8139,-76,0,0,0,0,0
2457,1765221271073,208,8130,-94,0,0,0,0,0
2458,1765221271173,218,8155,-77,0,0,0,0,0
2459,1765221271407,225,8136,-78,0,0,0,0,0
2460,1765221271540,212,8136,-91,0,0,0,0,0
2461,1765221271675,228,8148,-84,0,0,0,0,0
2462,1765221271842,233,8085,-66,0,0,0,0,0
2463,1765221272275,222,8150,-84,0,0,0,0,0
2464,1765221272376,225,8140,-57,0,0,0,0,0
2465,1765221272575,207,8124,-46,0,0,0,0,0
2466,1765221272726,205,8134,-66,0,0,0,0,0
2467,1765221272891,209,8192,-13,0,0,0,0,0
2468,1765221273007,227,8120,-62,0,0,0,0,0
2469,1765221273259,211,8130,-110,0,0,0,0,0
2470,1765221273324,214,8158,-117,0,0,0,0,0
2471,1765221273391,210,8187,-52,0,0,0,0,0
2472,1765221273574,226,8120,-36,0,0,0,0,0
2473,1765221273809,203,8148,-85,0,0,0,0,0
2474,1765221274024,218,8184,-116,0,0,0,0,0
2475,1765221274158,239,8108,-98,0,0,0,0,0
2476,1765221274340,177,8124,-52,0,0,0,0,0
2477,1765221274459,218,8160,-47,0,0,0,0,0
2478,1765221274859,231,8108,-124,0,0,0,0,0
2479,1765221274977,207,8141,-100,0,0,0,0,0
2480,1765221275142,218,8160,28,0,0,0,0,0
2481,1765221275345,226,8141,-100,0,0,0,0,0
2482,1765221275592,212,8126,-105,0,0,0,0,0
2483,1765221275725,211,8142,-84,0,0,0,0,0
2484,1765221275940,226,8141,-74,0,0,0,0,0
2485,1765221276042,214,8126,-92,0,0,0,0,0
2486,1765221276259,218,8140,-96,0,0,0,0,0
2487,1765221276375,219,8150,-65,0,0,0,0,0
2488,1765221276640,219,8128,-93,0,0,0,0,0
2489,1765221276740,220,8131,-83,0,0,0,0,0
2490,1765221276976,219,8150,-73,0,0,0,0,0
2491,1765221277392,216,8138,-88,0,0,0,0,0
2492,1765221277475,220,8140,-84,0,0,0,0,0
2493,1765221277709,208,8136,-80,0,0,0,0,0
2494,1765221277842,220,8136,-83,0,0,0,0,0
2495,1765221278026,225,8122,-62,0,0,0,0,0
2496,1765221278192,212,8145,-70,0,0,0,0,0
2497,1765221278560,215,8130,-76,0,0,0,0,0
2498,1765221278642,218,8152,-68,0,0,0,0,0
2499,1765221278925,227,8146,-83,0,0,0,0,0
2500,1765221279059,218,8146,-64,0,0,0,0,0
2501,1765221279293,210,8117,-81,0,0,0,0,0
2502,1765221279375,208,8160,-84,0,0,0,0,0
2503,1765221279758,245,8140,-122,0,0,0,0,0
2504,1765221279959,225,8115,-71,0,0,0,0,0
2505,1765221280058,196,8150,-51,0,0,0,0,0
2506,1765221280425,227,8120,-72,0,0,0,0,0
2507,1765221280725,221,8124,-93,0,0,0,0,0
2508,1765221280792,236,8143,-120,0,0,0,0,0
2509,1765221280875,216,8136,-82,0,0,0,0,0
2510,1765221280942,222,8127,-18,0,0,0,0,0
2511,1765221281159,210,8098,-114,0,0,0,0,0
2512,1765221281275,199,8135,-145,0,0,0,0,0
2513,1765221281492,227,8164,-42,0,0,0,0,0
2514,1765221281609,206,8153,-72,0,0,0,0,0
2515,1765221281840,218,8134,-68,0,0,0,0,0
2516,1765221281892,226,8132,-92,0,0,0,0,0
2517,1765221282325,207,8157,-82,0,0,0,0,0
2518,1765221282542,220,8130,-75,0,0,0,0,0
2519,1765221282624,214,8131,-90,0,0,0,0,0
2520,1765221282791,217,8139,-82,0,0,0,0,0
2521,1765221283007,224,8127,-76,0,0,0,0,0
2522,1765221283208,212,8146,-79,0,0,0,0,0
2523,1765221283341,219,8130,-89,0,0,0,0,0
2524,1765221283373,219,8134,-88,0,0,0,0,0
2525,1765221283474,222,8136,-86,0,0,0,0,0
2526,1765221283708,212,8140,-76,0,0,0,0,0
2527,1765221283960,218,8138,-74,0,0,0,0,0
2528,1765221284128,218,8137,-81,0,0,0,0,0
2529,1765221284211,210,8140,-90,0,0,0,0,0
2530,1765221284442,224,8124,-80,0,0,0,0,0
2531,1765221284508,216,8144,-78,0,0,0,0,0
2532,1765221284659,211,8141,-90,0,0,0,0,0
2533,1765221284910,221,8120,-83,0,0,0,0,0
2534,1765221284992,212,8141,-87,0,0,0,0,0
2535,1765221285192,222,8128,-77,0,0,0,0,0
2536,1765221285310,224,8148,-72,0,0,0,0,0
2537,1765221285460,218,8134,-41,0,0,0,0,0
2538,1765221285674,215,8138,-64,0,0,0,0,0
2539,1765221286041,222,8150,-80,0,0,0,0,0
2540,1765221286400,213,8124,-70,0,0,0,0,0
2541,1765221286405,214,8142,-68,0,0,0,0,0
2542,1765221286610,217,8127,-76,0,0,0,0,0
2543,1765221286791,218,8141,-90,0,0,0,0,0
2544,1765221286942,219,8127,-73,0,0,0,0,0
2545,1765221287092,206,8148,-78,0,0,0,0,0
2546,1765221287225,208,8151,-70,0,0,0,0,0
2547,1765221287526,216,8125,-79,0,0,0,0,0
2548,1765221287575,218,8141,-86,0,0,0,0,0
2549,1765221287693,218,8133,-78,0,0,0,0,0
2550,1765221287859,213,8136,-76,0,0,0,0,0
2551,1765221287991,218,8134,-79,0,0,0,0,0
2552,1765221288176,228,8130,-84,0,0,0,0,0
2553,1765221288409,217,8133,-66,0,0,0,0,0
2554,1765221288510,220,8144,-74,0,0,0,0,0
2555,1765221288711,216,8135,-78,0,0,0,0,0
2556,1765221288809,207,8127,-74,0,0,0,0,0
2557,1765221289075,212,8139,-83,0,0,0,0,0
2558,1765221289276,212,8136,-86,0,0,0,0,0
2559,1765221289475,211,8124,-82,0,0,0,0,0
2560,1765221289526,210,8134,-91,0,0,0,0,0
2561,1765221289659,210,8136,-78,0,0,0,0,0
2562,1765221289809,212,8140,-74,0,0,0,0,0
2563,1765221289942,218,8142,-82,0,0,0,0,0
2564,1765221290140,218,8134,-78,0,0,0,0,0
2565,1765221290392,216,8141,-81,0,0,0,0,0
2566,1765221290459,210,8135,-87,0,0,0,0,0
2567,1765221290676,218,8143,-80,0,0,0,0,0
2568,1765221290742,214,8137,-71,0,0,0,0,0
2569,1765221290842,206,8140,-90,0,0,0,0,0
2570,1765221291142,210,8132,-99,0,0,0,0,0
2571,1765221291225,222,8127,-88,0,0,0,0,0
2572,1765221291459,206,8155,-58,0,0,0,0,0
2573,1765221291592,213,8141,-96,0,0,0,0,0
2574,1765221291742,222,8113,-107,0,0,0,0,0
2575,1765221291909,220,8169,-87,0,0,0,0,0
2576,1765221292008,220,8134,-70,0,0,0,0,0
2577,1765221292111,214,8131,-92,0,0,0,0,0
2578,1765221292326,220,8115,-104,0,0,0,0,0
2579,1765221292393,206,8170,-74,0,0,0,0,0
2580,1765221292626,216,8133,-112,0,0,0,0,0
2581,1765221292793,212,8143,-94,0,0,0,0,0
2582,1765221293043,200,8124,-76,0,0,0,0,0
2583,1765221293142,222,8143,-66,0,0,0,0,0
2584,1765221293243,238,8146,-85,0,0,0,0,0
2585,1765221293375,228,8132,-68,0,0,0,0,0
2586,1765221293542,200,8150,-78,0,0,0,0,0
2587,1765221293691,216,8112,-62,0,0,0,0,0
2588,1765221293944,217,8131,-110,0,0,0,0,0
2589,1765221294026,225,8120,-92,0,0,0,0,0
2590,1765221294208,211,8144,-44,0,0,0,0,0
2591,1765221294326,208,8137,-33,0,0,0,0,0
2592,1765221294425,220,8124,-97,0,0,0,0,0
2593,1765221294476,205,8133,-104,0,0,0,0,0
2594,1765221294793,224,8130,-73,0,0,0,0,0
2595,1765221294926,211,8124,-65,0,0,0,0,0
2596,1765221294959,212,8130,-99,0,0,0,0,0
2597,1765221295176,212,8136,-94,0,0,0,0,0
2598,1765221295259,225,8150,-70,0,0,0,0,0
2599,1765221295443,215,8141,-74,0,0,0,0,0
2600,1765221295659,210,8186,-103,0,0,0,0,0
2601,1765221295792,196,8126,-120,0,0,0,0,0
2602,1765221295976,227,8114,-92,0,0,0,0,0
2603,1765221296075,218,8178,-35,0,0,0,0,0
2604,1765221296393,188,8136,-102,0,0,0,0,0
2605,1765221296642,240,8134,-75,0,0,0,0,0
2606,1765221296758,198,8162,-84,0,0,0,0,0
2607,1765221296807,226,8140,-77,0,0,0,0,0
2608,1765221296891,205,8152,-82,0,0,0,0,0
2609,1765221297332,226,8122,-71,0,0,0,0,0
2610,1765221297341,224,8145,-94,0,0,0,0,0
2611,1765221297561,221,8147,-82,0,0,0,0,0
2612,1765221297742,207,8141,-74,0,0,0,0,0
2613,1765221297859,215,8135,-80,0,0,0,0,0
2614,1765221298324,202,8140,-82,0,0,0,0,0
2615,1765221298509,227,8136,-78,0,0,0,0,0
2616,1765221298625,210,8130,-76,0,0,0,0,0
2617,1765221298709,213,8137,-86,0,0,0,0,0
2618,1765221298776,224,8133,-84,0,0,0,0,0
2619,1765221299009,217,8148,-76,0,0,0,0,0
2620,1765221299157,216,8137,-74,0,0,0,0,0
2621,1765221299309,221,8137,-76,0,0,0,0,0
2622,1765221299442,217,8133,-76,0,0,0,0,0
2623,1765221299641,222,8136,-88,0,0,0,0,0
2624,1765221299741,219,8138,-87,0,0,0,0,0
2625,1765221300176,226,8131,-86,0,0,0,0,0
2626,1765221300342,210,8145,-71,0,0,0,0,0
2627,1765221300475,218,8144,-82,0,0,0,0,0
2628,1765221300608,221,8130,-89,0,0,0,0,0
2629,1765221300874,210,8143,-76,0,0,0,0,0
2630,1765221300976,215,8142,-74,0,0,0,0,0
2631,1765221301325,220,8137,-82,0,0,0,0,0
2632,1765221301475,221,8131,-85,0,0,0,0,0
2633,1765221301707,221,8146,-72,0,0,0,0,0
2634,1765221301890,226,8132,-96,0,0,0,0,0
2635,1765221302059,222,8138,-86,0,0,0,0,0
2636,1765221302225,204,8137,-83,0,0,0,0,0
2637,1765221302358,224,8129,-76,0,0,0,0,0
2638,1765221302407,218,8135,-87,0,0,0,0,0
2639,1765221302492,211,8136,-72,0,0,0,0,0
2640,1765221302758,229,8134,-94,0,0,0,0,0
2641,1765221302842,208,8143,-70,0,0,0,0,0
2642,1765221303175,222,8144,-78,0,0,0,0,0
2643,1765221303489,209,8132,-94,0,0,0,0,0
2644,1765221303557,209,8144,-79,0,0,0,0,0
2645,1765221303707,211,8143,-81,0,0,0,0,0
2646,1765221303906,224,8126,-80,0,0,0,0,0
2647,1765221304025,214,8142,-78,0,0,0,0,0
2648,1765221304226,225,8134,-75,0,0,0,0,0
2649,1765221304360,221,8134,-86,0,0,0,0,0
2650,1765221304591,213,8145,-70,0,0,0,0,0
2651,1765221304658,214,8137,-88,0,0,0,0,0
2652,1765221305108,221,8124,-80,0,0,0,0,0
2653,1765221305359,214,8141,-77,0,0,0,0,0
2654,1765221305442,217,8136,-78,0,0,0,0,0
2655,1765221305642,214,8135,-78,0,0,0,0,0
2656,1765221305775,219,8142,-76,0,0,0,0,0
2657,1765221306042,220,8129,-95,0,0,0,0,0
2658,1765221306108,209,8137,-75,0,0,0,0,0
2659,1765221306173,222,8134,-86,0,0,0,0,0
2660,1765221306240,216,8146,-75,0,0,0,0,0
2661,1765221306475,213,8129,-81,0,0,0,0,0
2662,1765221306758,210,8127,-88,0,0,0,0,0
2663,1765221306924,224,8137,-86,0,0,0,0,0
2664,1765221306990,211,8142,-84,0,0,0,0,0
2665,1765221307207,214,8135,-73,0,0,0,0,0
2666,1765221307308,221,8147,-82,0,0,0,0,0
2667,1765221307507,224,8128,-90,0,0,0,0,0
2668,1765221307675,218,8126,-78,0,0,0,0,0
2669,1765221307889,211,8152,-76,0,0,0,0,0
2670,1765221307974,217,8134,-79,0,0,0,0,0
2671,1765221308160,221,8134,-95,0,0,0,0,0
2672,1765221308160,220,8127,-90,0,0,0,0,0
2673,1765221308342,219,8145,-93,0,0,0,0,0
2674,1765221308792,213,8134,-75,0,0,0,0,0
2675,1765221308875,225,8136,-97,0,0,0,0,0
2676,1765221309092,225,8129,-84,0,0,0,0,0
2677,1765221309274,204,8146,-75,0,0,0,0,0
2678,1765221309442,214,8156,-72,0,0,0,0,0
2679,1765221309556,223,8134,-80,0,0,0,0,0
2680,1765221309774,214,8115,-81,0,0,0,0,0
2681,1765221309859,216,8148,-75,0,0,0,0,0
2682,1765221309941,211,8138,-84,0,0,0,0,0
2683,1765221310024,220,8140,-77,0,0,0,0,0
2684,1765221310309,218,8146,-86,0,0,0,0,0
2685,1765221310692,220,8126,-68,0,0,0,0,0
2686,1765221310759,212,8134,-84,0,0,0,0,0
2687,1765221310974,230,8141,-84,0,0,0,0,0
2688,1765221311173,216,8152,-78,0,0,0,0,0
2689,1765221311358,214,8146,-80,0,0,0,0,0
2690,1765221311457,219,8137,-73,0,0,0,0,0
2691,1765221311690,206,8110,-116,0,0,0,0,0
2692,1765221311840,210,8131,-45,0,0,0,0,0
2693,1765221312124,233,8046,-132,0,0,0,0,0
2694,1765221312209,239,8158,-116,0,0,0,0,0
2695,1765221312373,229,8207,-90,0,0,0,0,0
2696,1765221312574,230,8022,-80,0,0,0,0,0
2697,1765221312759,176,8207,-119,0,0,0,0,0
2698,1765221312908,235,8125,-56,0,0,0,0,0
2699,1765221312956,236,8155,-79,0,0,0,0,0
2700,1765221313041,206,8147,-68,0,0,0,0,0
2701,1765221313274,222,8130,-94,0,0,0,0,0
2702,1765221313358,223,8118,-90,0,0,0,0,0
2703,1765221313773,231,8143,-60,0,0,0,0,0
2704,1765221314008,195,8146,-118,0,0,0,0,0
2705,1765221314073,232,8123,-68,0,0,0,0,0
2706,1765221314242,216,8129,-90,0,0,0,0,0
2707,1765221314441,215,8146,-87,0,0,0,0,0
2708,1765221314657,217,8122,-77,0,0,0,0,0
2709,1765221314791,223,8133,-94,0,0,0,0,0
2710,1765221314857,206,8140,-80,0,0,0,0,0
2711,1765221314925,226,8132,-86,0,0,0,0,0
2712,1765221315158,214,8133,-72,0,0,0,0,0
2713,1765221315391,210,8136,-97,0,0,0,0,0
2714,1765221315541,211,8144,-74,0,0,0,0,0
2715,1765221315641,223,8133,-74,0,0,0,0,0
2716,1765221315875,216,8140,-88,0,0,0,0,0
2717,1765221315942,208,8137,-80,0,0,0,0,0
2718,1765221316108,208,8140,-76,0,0,0,0,0
2719,1765221316341,213,8136,-98,0,0,0,0,0
2720,1765221316475,217,8131,-65,0,0,0,0,0
2721,1765221316625,212,8142,-70,0,0,0,0,0
2722,1765221316757,216,8132,-59,0,0,0,0,0
2723,1765221317042,220,8137,-87,0,0,0,0,0
2724,1765221317224,221,8144,-82,0,0,0,0,0
2725,1765221317424,212,8130,-81,0,0,0,0,0
2726,1765221317523,216,8130,-76,0,0,0,0,0
2727,1765221317741,218,8123,-81,0,0,0,0,0
2728,1765221317875,225,8141,-64,0,0,0,0,0
2729,1765221318075,222,8134,-78,0,0,0,0,0
2730,1765221318225,221,8123,-80,0,0,0,0,0
2731,1765221318408,210,8130,-82,0,0,0,0,0
2732,1765221318541,227,8146,-78,0,0,0,0,0
2733,1765221318658,211,8140,-75,0,0,0,0,0
2734,1765221319095,218,8129,-86,0,0,0,0,0
2735,1765221319106,215,8140,-91,0,0,0,0,0
2736,1765221319374,221,8136,-86,0,0,0,0,0
