index,date,ACCEL_X,ACCEL_Y,ACCEL_Z,1,2,3,4,5
0,1765227022496,-531,8456,23,0,0,0,0,0
1,1765227022897,-581,7992,-122,0,0,0,0,0
2,1765227022984,-132,8152,441,0,0,0,0,0
3,1765227023213,-698,8233,-167,0,0,0,0,0
4,1765227023281,-330,7815,-162,0,0,0,0,0
5,1765227023330,609,8036,1191,0,0,0,0,0
6,1765227023422,-1034,7482,1255,0,0,0,0,0
7,1765227023697,-1910,8397,-268,0,0,0,0,0
8,1765227023797,-23,8630,2622,0,0,0,0,0
9,1765227024122,-1108,8058,-614,0,0,0,0,0
10,1765227024272,341,8246,418,0,0,0,0,0
11,1765227024498,-647,8284,2939,0,0,0,0,0
12,1765227024622,-1480,8137,1348,0,0,0,0,0
13,1765227024862,282,8630,1613,0,0,0,0,0
14,1765227024964,-895,7872,2380,0,0,0,0,0
15,1765227025146,-1415,7985,778,0,0,0,0,0
16,1765227025298,-977,8456,1812,0,0,0,0,0
17,1765227025506,-1062,7454,252,0,0,0,0,0
18,1765227025629,-842,8398,666,0,0,0,0,0
19,1765227025939,-1812,7681,490,0,0,0,0,0
20,1765227026048,-1783,7891,489,0,0,0,0,0
21,1765227026363,-1133,8975,1066,0,0,0,0,0
22,1765227026489,-760,8279,744,0,0,0,0,0
23,1765227026588,-533,8472,602,0,0,0,0,0
24,1765227026788,1111,7618,-693,0,0,0,0,0
25,1765227026897,1259,7623,-2176,0,0,0,0,0
26,1765227027238,411,8603,-620,0,0,0,0,0
27,1765227027331,36,6994,-446,0,0,0,0,0
28,1765227027530,-388,8523,-747,0,0,0,0,0
29,1765227027631,-934,7738,-584,0,0,0,0,0
30,1765227027713,-29,7904,-383,0,0,0,0,0
31,1765227027922,169,8691,-526,0,0,0,0,0
32,1765227028130,-32,8657,-584,0,0,0,0,0
33,1765227028381,-324,8402,-647,0,0,0,0,0
34,1765227028497,-338,7903,-638,0,0,0,0,0
35,1765227028654,113,8294,-604,0,0,0,0,0
36,1765227028788,-112,8227,-806,0,0,0,0,0
37,1765227028897,-32,8070,-656,0,0,0,0,0
38,1765227029021,-16,8092,-650,0,0,0,0,0
39,1765227029213,-130,8219,-656,0,0,0,0,0
40,1765227029313,-86,8121,-636,0,0,0,0,0
41,1765227029565,-101,8101,-528,0,0,0,0,0
42,1765227029689,-99,8115,-516,0,0,0,0,0
43,1765227029988,-114,8103,-523,0,0,0,0,0
44,1765227030163,-105,8290,18,0,0,0,0,0
45,1765227030338,-74,8041,147,0,0,0,0,0
46,1765227030446,-66,8156,-166,0,0,0,0,0
47,1765227030620,-109,8129,-191,0,0,0,0,0
48,1765227030765,-98,8136,-89,0,0,0,0,0
49,1765227030911,-88,8134,-79,0,0,0,0,0
50,1765227031146,-80,8141,-95,0,0,0,0,0
51,1765227031221,-98,8132,-96,0,0,0,0,0
52,1765227031304,-101,8139,-72,0,0,0,0,0
53,1765227031480,-90,8144,-95,0,0,0,0,0
54,1765227031714,-92,8126,-84,0,0,0,0,0
55,1765227031928,-76,8140,-76,0,0,0,0,0
56,1765227032054,-108,8134,-86,0,0,0,0,0
57,1765227032263,-89,8140,-76,0,0,0,0,0
58,1765227032354,-86,8144,-88,0,0,0,0,0
59,1765227032555,-94,8137,-98,0,0,0,0,0
60,1765227032755,-94,8142,-76,0,0,0,0,0
61,1765227032962,-94,8151,-74,0,0,0,0,0
62,1765227033047,-84,8128,-74,0,0,0,0,0
63,1765227033136,-100,8127,-301,0,0,0,0,0
64,1765227033229,-74,8152,-272,0,0,0,0,0
65,1765227033505,-83,8128,-163,0,0,0,0,0
66,1765227033696,-92,8144,317,0,0,0,0,0
67,1765227033879,-66,8193,33,0,0,0,0,0
68,1765227034005,-85,8119,-192,0,0,0,0,0
69,1765227034229,-109,8112,-231,0,0,0,0,0
70,1765227034613,-88,8116,-162,0,0,0,0,0
71,1765227034737,-79,8152,-110,0,0,0,0,0
72,1765227034953,-99,8132,-26,0,0,0,0,0
73,1765227035087,-88,8140,-125,0,0,0,0,0
74,1765227035354,-84,8135,-56,0,0,0,0,0
75,1765227035495,-92,8134,-64,0,0,0,0,0
76,1765227035688,-94,8134,-64,0,0,0,0,0
77,1765227035796,-87,8134,-81,0,0,0,0,0
78,1765227036071,-82,8139,-98,0,0,0,0,0
79,1765227036154,-83,8140,-110,0,0,0,0,0
80,1765227036370,-74,8141,-47,0,0,0,0,0
81,1765227036504,-58,8150,-86,0,0,0,0,0
82,1765227036813,-110,8122,-142,0,0,0,0,0
83,1765227036961,-98,8144,-104,0,0,0,0,0
84,1765227037136,-84,8128,-100,0,0,0,0,0
85,1765227037262,-92,8138,-65,0,0,0,0,0
86,1765227037479,-83,8141,-80,0,0,0,0,0
87,1765227037638,-85,8104,-115,0,0,0,0,0
88,1765227037862,-100,8168,-23,0,0,0,0,0
89,1765227037987,-74,8149,-81,0,0,0,0,0
90,1765227038179,-86,8135,-74,0,0,0,0,0
91,1765227038371,-88,8145,-83,0,0,0,0,0
92,1765227038662,-91,8133,-102,0,0,0,0,0
93,1765227038836,-84,8141,-92,0,0,0,0,0
94,1765227038896,-84,8143,-102,0,0,0,0,0
95,1765227039130,-81,8138,-74,0,0,0,0,0
96,1765227039263,-92,8132,-75,0,0,0,0,0
97,1765227039454,-99,8133,-72,0,0,0,0,0
98,1765227039596,-88,8144,-84,0,0,0,0,0
99,1765227039836,-81,8134,-97,0,0,0,0,0
100,1765227039939,-92,8145,-93,0,0,0,0,0
101,1765227040105,-81,8145,-86,0,0,0,0,0
102,1765227040329,-90,8131,-110,0,0,0,0,0
103,1765227040570,-90,8135,-56,0,0,0,0,0
104,1765227040711,-86,8148,-84,0,0,0,0,0
105,1765227040895,-88,8122,-87,0,0,0,0,0
106,1765227041005,-90,8147,-78,0,0,0,0,0
107,1765227041259,-81,8156,-88,0,0,0,0,0
108,1765227041437,-90,8127,-72,0,0,0,0,0
109,1765227041571,-87,8152,-83,0,0,0,0,0
110,1765227041724,-72,8138,-57,0,0,0,0,0
111,1765227041861,-85,8140,-82,0,0,0,0,0
112,1765227042178,-86,8144,-84,0,0,0,0,0
113,1765227042296,-82,8135,-84,0,0,0,0,0
114,1765227042496,-71,8132,-7,0,0,0,0,0
115,1765227042604,-86,8169,-35,0,0,0,0,0
116,1765227042879,-89,8130,-128,0,0,0,0,0
117,1765227042941,-90,8116,-154,0,0,0,0,0
118,1765227043168,-88,8110,-92,0,0,0,0,0
119,1765227043310,-71,8148,-109,0,0,0,0,0
120,1765227043531,-64,8136,-85,0,0,0,0,0
121,1765227043725,-87,8153,-100,0,0,0,0,0
122,1765227043979,-90,8132,-96,0,0,0,0,0
123,1765227044079,-74,8142,-86,0,0,0,0,0
124,1765227044312,-81,8136,-92,0,0,0,0,0
125,1765227044455,-92,8137,-87,0,0,0,0,0
126,1765227044654,-83,8137,-92,0,0,0,0,0
127,1765227044778,-86,8133,-92,0,0,0,0,0
128,1765227045134,-92,8118,-91,0,0,0,0,0
129,1765227045443,-73,8148,-68,0,0,0,0,0
130,1765227045518,-83,8129,-88,0,0,0,0,0
131,1765227045585,-88,8137,-80,0,0,0,0,0
132,1765227045727,-82,8154,-64,0,0,0,0,0
133,1765227045886,-76,8119,-103,0,0,0,0,0
134,1765227046068,-79,8151,-92,0,0,0,0,0
135,1765227046252,-88,8137,-82,0,0,0,0,0
136,1765227046385,-85,8132,-93,0,0,0,0,0
137,1765227046586,-69,8142,-94,0,0,0,0,0
138,1765227046727,-75,8146,-88,0,0,0,0,0
139,1765227046943,-86,8140,-94,0,0,0,0,0
140,1765227047160,-82,8141,-79,0,0,0,0,0
141,1765227047336,-87,8132,-83,0,0,0,0,0
142,1765227047494,-79,8143,-97,0,0,0,0,0
143,1765227047718,-81,8142,-91,0,0,0,0,0
144,1765227047794,-82,8134,-89,0,0,0,0,0
145,1765227048035,-88,8141,-93,0,0,0,0,0
146,1765227048169,-86,8138,-82,0,0,0,0,0
147,1765227048343,-87,8140,-88,0,0,0,0,0
148,1765227048461,-89,8136,-92,0,0,0,0,0
149,1765227048902,-80,8144,-78,0,0,0,0,0
150,1765227049045,-84,8134,-100,0,0,0,0,0
151,1765227049195,-79,8142,-89,0,0,0,0,0
152,1765227049354,-71,8149,-72,0,0,0,0,0
153,1765227049579,-78,8136,-103,0,0,0,0,0
154,1765227049744,-91,8128,-89,0,0,0,0,0
155,1765227049927,-76,8150,-96,0,0,0,0,0
156,1765227049955,-68,8152,-101,0,0,0,0,0
157,1765227050061,-85,8105,-113,0,0,0,0,0
158,1765227050278,-98,8160,-40,0,0,0,0,0
159,1765227050505,-60,8148,-81,0,0,0,0,0
160,1765227050695,-76,8142,-109,0,0,0,0,0
161,1765227050802,-92,8130,-113,0,0,0,0,0
162,1765227051036,-91,8132,-106,0,0,0,0,0
163,1765227051111,-68,8142,-48,0,0,0,0,0
164,1765227051187,-109,8120,-120,0,0,0,0,0
165,1765227051303,-64,8148,-80,0,0,0,0,0
166,1765227051511,-68,8136,-69,0,0,0,0,0
167,1765227051677,-96,8132,-107,0,0,0,0,0
168,1765227051877,-94,8148,-86,0,0,0,0,0
169,1765227051936,-78,8136,-106,0,0,0,0,0
170,1765227052253,-83,8130,-86,0,0,0,0,0
171,1765227052429,-67,8146,-68,0,0,0,0,0
172,1765227052636,-79,8142,-77,0,0,0,0,0
173,1765227052711,-80,8146,-76,0,0,0,0,0
174,1765227052936,-88,8136,-102,0,0,0,0,0
175,1765227053068,-88,8131,-94,0,0,0,0,0
176,1765227053320,-70,8145,-88,0,0,0,0,0
177,1765227053409,-89,8131,-90,0,0,0,0,0
178,1765227053636,-85,8136,-80,0,0,0,0,0
179,1765227053769,-118,8135,-102,0,0,0,0,0
180,1765227053994,-68,8140,-84,0,0,0,0,0
181,1765227054135,-78,8165,-86,0,0,0,0,0
182,1765227054425,-82,8130,-84,0,0,0,0,0
183,1765227054551,-87,8139,-78,0,0,0,0,0
184,1765227054825,-82,8144,-103,0,0,0,0,0
185,1765227054892,-83,8116,-91,0,0,0,0,0
186,1765227055026,-110,8144,-116,0,0,0,0,0
187,1765227055252,-77,8171,-66,0,0,0,0,0
188,1765227055344,-55,8110,-103,0,0,0,0,0
189,1765227055711,-80,8164,-101,0,0,0,0,0
190,1765227055927,-86,8129,-74,0,0,0,0,0
191,1765227056060,-81,8131,-100,0,0,0,0,0
192,1765227056203,-87,8131,-100,0,0,0,0,0
193,1765227056412,-102,8139,-104,0,0,0,0,0
194,1765227056537,-82,8142,-68,0,0,0,0,0
195,1765227056853,-79,8130,-80,0,0,0,0,0
196,1765227056944,-79,8141,-72,0,0,0,0,0
197,1765227057151,-92,8130,-94,0,0,0,0,0
198,1765227057228,-113,8344,-226,0,0,0,0,0
199,1765227057361,-109,8142,-90,0,0,0,0,0
200,1765227057659,-132,8133,-127,0,0,0,0,0
201,1765227057736,-56,8184,-84,0,0,0,0,0
202,1765227057943,-100,8121,-81,0,0,0,0,0
203,1765227058001,-148,8191,-122,0,0,0,0,0
204,1765227058144,-16,8136,-112,0,0,0,0,0
205,1765227058293,-72,8085,-113,0,0,0,0,0
206,1765227058468,-138,8162,-37,0,0,0,0,0
207,1765227058545,-92,8145,-69,0,0,0,0,0
208,1765227058675,-104,8172,-89,0,0,0,0,0
209,1765227058878,-65,8091,-141,0,0,0,0,0
210,1765227058969,-83,8133,-95,0,0,0,0,0
211,1765227059260,-80,8151,-93,0,0,0,0,0
212,1765227059477,-94,8123,-100,0,0,0,0,0
213,1765227059668,-79,8156,-82,0,0,0,0,0
214,1765227059744,-94,8090,-116,0,0,0,0,0
215,1765227059852,-91,8197,-68,0,0,0,0,0
216,1765227060043,-64,8122,-88,0,0,0,0,0
217,1765227060133,-88,8064,-104,0,0,0,0,0
218,1765227060384,-62,8091,-92,0,0,0,0,0
219,1765227060583,-95,8160,-102,0,0,0,0,0
220,1765227060733,-86,8162,-69,0,0,0,0,0
221,1765227060876,-82,8114,-94,0,0,0,0,0
222,1765227060985,-77,8117,-84,0,0,0,0,0
223,1765227061060,-94,8150,-89,0,0,0,0,0
224,1765227061351,-92,8140,-100,0,0,0,0,0
225,1765227061494,-72,8141,-88,0,0,0,0,0
226,1765227061776,-83,8142,-66,0,0,0,0,0
227,1765227061826,-70,8148,-72,0,0,0,0,0
228,1765227062061,-86,8137,-114,0,0,0,0,0
229,1765227062251,-84,8137,-101,0,0,0,0,0
230,1765227062493,-95,8143,-124,0,0,0,0,0
231,1765227062592,-66,8125,-75,0,0,0,0,0
232,1765227062827,-71,8125,-93,0,0,0,0,0
233,1765227062984,-65,8151,-66,0,0,0,0,0
234,1765227063217,-94,8135,-96,0,0,0,0,0
235,1765227063345,-80,8140,-89,0,0,0,0,0
236,1765227063453,-96,8184,-116,0,0,0,0,0
237,1765227063519,-32,8098,-88,0,0,0,0,0
238,1765227063716,-77,8137,-79,0,0,0,0,0
239,1765227063804,-112,8158,-84,0,0,0,0,0
240,1765227064058,-96,8075,-78,0,0,0,0,0
241,1765227064277,-59,8122,-112,0,0,0,0,0
242,1765227064416,-99,8188,-62,0,0,0,0,0
243,1765227066020,-84,8136,-86,0,0,0,0,0
244,1765227066020,-80,8123,-85,0,0,0,0,0
245,1765227066021,-97,8138,-116,0,0,0,0,0
246,1765227066021,-104,8158,-118,0,0,0,0,0
247,1765227066021,-52,8087,-72,0,0,0,0,0
248,1765227066021,-76,8152,-74,0,0,0,0,0
249,1765227066021,-91,8114,-89,0,0,0,0,0
250,1765227066105,-80,8141,-86,0,0,0,0,0
251,1765227066230,-88,8177,-88,0,0,0,0,0
252,1765227066607,-59,8141,-83,0,0,0,0,0
253,1765227066723,-97,8112,-108,0,0,0,0,0
254,1765227066979,-77,8162,-75,0,0,0,0,0
255,1765227067041,-74,8172,-98,0,0,0,0,0
256,1765227067115,-80,8121,-84,0,0,0,0,0
257,1765227067349,-94,8139,-73,0,0,0,0,0
258,1765227067449,-82,8142,-84,0,0,0,0,0
259,1765227067700,-97,8122,-104,0,0,0,0,0
260,1765227067832,-69,8144,-79,0,0,0,0,0
261,1765227068064,-73,8159,-90,0,0,0,0,0
262,1765227068148,-86,8130,-86,0,0,0,0,0
263,1765227068382,-79,8131,-85,0,0,0,0,0
264,1765227068584,-87,8142,-85,0,0,0,0,0
265,1765227068808,-74,8132,-91,0,0,0,0,0
266,1765227068949,-85,8128,-72,0,0,0,0,0
267,1765227069149,-91,8138,-89,0,0,0,0,0
268,1765227069248,-89,8136,-90,0,0,0,0,0
269,1765227069649,-72,8141,-87,0,0,0,0,0
270,1765227069774,-87,8128,-95,0,0,0,0,0
271,1765227069949,-90,8143,-92,0,0,0,0,0
272,1765227070382,-69,8142,-99,0,0,0,0,0
273,1765227070498,-93,8145,-90,0,0,0,0,0
274,1765227070682,-83,8126,-94,0,0,0,0,0
275,1765227070741,-86,8142,-87,0,0,0,0,0
276,1765227070832,-88,8145,-85,0,0,0,0,0
277,1765227071065,-75,8130,-76,0,0,0,0,0
278,1765227071206,-86,8156,-98,0,0,0,0,0
279,1765227071415,-111,8154,-111,0,0,0,0,0
280,1765227071559,-56,8083,-18,0,0,0,0,0
281,1765227071741,-112,8211,-164,0,0,0,0,0
282,1765227071973,-79,8086,-60,0,0,0,0,0
283,1765227072140,-84,8138,-111,0,0,0,0,0
284,1765227072299,-76,8142,-69,0,0,0,0,0
285,1765227072489,-81,8155,-70,0,0,0,0,0
286,1765227072663,-107,8129,-192,0,0,0,0,0
287,1765227072740,-56,8136,-111,0,0,0,0,0
288,1765227072998,-111,8100,-144,0,0,0,0,0
289,1765227073098,-73,8204,-142,0,0,0,0,0
290,1765227073298,-88,8144,-105,0,0,0,0,0
291,1765227073440,-80,8137,-101,0,0,0,0,0
292,1765227073664,-80,8136,-112,0,0,0,0,0
293,1765227073801,-67,8126,-82,0,0,0,0,0
294,1765227074005,-88,8148,-92,0,0,0,0,0
295,1765227074181,-74,8134,-75,0,0,0,0,0
296,1765227074331,-70,8149,-86,0,0,0,0,0
297,1765227074557,-82,8140,-94,0,0,0,0,0
298,1765227074673,-70,8150,-86,0,0,0,0,0
299,1765227074898,-71,8139,-85,0,0,0,0,0
300,1765227075013,-71,8144,-86,0,0,0,0,0
301,1765227076365,-54,8105,-23,0,0,0,0,0
302,1765227076573,-82,8172,-140,0,0,0,0,0
303,1765227076656,-66,8138,-136,0,0,0,0,0
304,1765227076864,-82,8131,-78,0,0,0,0,0
305,1765227076938,-72,8168,-56,0,0,0,0,0
306,1765227077180,-80,8138,-169,0,0,0,0,0
307,1765227077291,-70,8122,-152,0,0,0,0,0
308,1765227144998,-106,8145,-126,0,0,0,0,0
309,1765227145132,-60,8140,-84,0,0,0,0,0
310,1765227145290,-38,8122,-105,0,0,0,0,0
311,1765227145466,-57,8128,-104,0,0,0,0,0
312,1765227145591,-74,8158,-104,0,0,0,0,0
313,1765227146259,-72,8138,-69,0,0,0,0,0
314,1765227146284,-75,8136,-98,0,0,0,0,0
315,1765227146334,-53,8152,-108,0,0,0,0,0
316,1765227146350,-76,8125,-100,0,0,0,0,0
317,1765227146570,-77,8141,-98,0,0,0,0,0
318,1765227146728,-73,8128,-94,0,0,0,0,0
319,1765227146870,-60,8154,-88,0,0,0,0,0
320,1765227147319,-50,8151,-87,0,0,0,0,0
321,1765227147503,-66,8128,-76,0,0,0,0,0
322,1765227147702,-85,8130,-90,0,0,0,0,0
323,1765227147794,-72,8149,-93,0,0,0,0,0
324,1765227147994,-42,8163,-90,0,0,0,0,0
325,1765227148178,-72,8145,-86,0,0,0,0,0
326,1765227148385,-64,8142,-106,0,0,0,0,0
327,1765227148461,-61,8143,-90,0,0,0,0,0
328,1765227148695,-70,8140,-87,0,0,0,0,0
329,1765227149084,-70,8133,-87,0,0,0,0,0
330,1765227149194,-72,8149,-92,0,0,0,0,0
331,1765227149436,-64,8135,-91,0,0,0,0,0
332,1765227149567,-70,8143,-93,0,0,0,0,0
333,1765227149685,-69,8136,-88,0,0,0,0,0
334,1765227149885,-65,8136,-98,0,0,0,0,0
335,1765227150053,-62,8138,-87,0,0,0,0,0
336,1765227150244,-65,8136,-84,0,0,0,0,0
337,1765227150319,-75,8134,-102,0,0,0,0,0
338,1765227150577,-68,8153,-86,0,0,0,0,0
339,1765227150963,-69,8140,-98,0,0,0,0,0
340,1765227151052,-70,8150,-77,0,0,0,0,0
341,1765227151278,-66,8136,-102,0,0,0,0,0
342,1765227151435,-68,8143,-90,0,0,0,0,0
343,1765227151595,-66,8152,-107,0,0,0,0,0
344,1765227151764,-70,8122,-71,0,0,0,0,0
345,1765227151900,-70,8140,-96,0,0,0,0,0
346,1765227152019,-68,8124,-112,0,0,0,0,0
347,1765227152169,-75,8035,-95,0,0,0,0,0
348,1765227152486,-60,8130,-139,0,0,0,0,0
349,1765227152619,-76,8154,-120,0,0,0,0,0
350,1765227152720,-81,8108,-89,0,0,0,0,0
351,1765227152911,-67,8174,-78,0,0,0,0,0
352,1765227153053,-46,8119,-80,0,0,0,0,0
353,1765227153361,-58,8145,-102,0,0,0,0,0
354,1765227153561,-70,8135,-110,0,0,0,0,0
355,1765227153660,-68,8138,-77,0,0,0,0,0
356,1765227154010,-61,8151,-85,0,0,0,0,0
357,1765227154236,-75,8175,-96,0,0,0,0,0
358,1765227154401,-60,8151,-86,0,0,0,0,0
359,1765227154544,-78,8127,-96,0,0,0,0,0
360,1765227154653,-66,8145,-93,0,0,0,0,0
361,1765227154827,-62,8128,-93,0,0,0,0,0
362,1765227154992,-99,8095,-140,0,0,0,0,0
363,1765227155261,-38,8142,-76,0,0,0,0,0
364,1765227155360,-58,8147,-95,0,0,0,0,0
365,1765227156111,-62,8151,-126,0,0,0,0,0
366,1765227156304,-57,8137,-62,0,0,0,0,0
367,1765227156402,-87,8122,-103,0,0,0,0,0
368,1765227156585,-42,8171,-55,0,0,0,0,0
369,1765227156686,-69,8141,-131,0,0,0,0,0
370,1765227156927,-80,8170,-78,0,0,0,0,0
371,1765227157034,-53,8114,-94,0,0,0,0,0
372,1765227157226,-74,8138,-78,0,0,0,0,0
373,1765227157843,-87,8162,-83,0,0,0,0,0
374,1765227157855,-76,8150,-78,0,0,0,0,0
375,1765227157874,-60,8158,-64,0,0,0,0,0
376,1765227157899,-60,8142,-106,0,0,0,0,0
377,1765227157975,-76,8136,-96,0,0,0,0,0
378,1765227158135,-74,8150,-80,0,0,0,0,0
379,1765227158252,-66,8128,-89,0,0,0,0,0
380,1765227158504,-65,8138,-96,0,0,0,0,0
381,1765227158714,-88,8126,-62,0,0,0,0,0
382,1765227158880,-86,8134,-105,0,0,0,0,0
383,1765227159053,-60,8154,-101,0,0,0,0,0
384,1765227159171,-50,8140,-86,0,0,0,0,0
385,1765227159455,-66,8134,-92,0,0,0,0,0
386,1765227159604,-98,8100,-82,0,0,0,0,0
387,1765227159787,-66,8152,-120,0,0,0,0,0
388,1765227159987,-63,8148,-76,0,0,0,0,0
389,1765227160038,-68,8138,-80,0,0,0,0,0
390,1765227160345,-70,8142,-107,0,0,0,0,0
391,1765227160737,-75,8143,-90,0,0,0,0,0
392,1765227160829,-70,8141,-94,0,0,0,0,0
393,1765227161078,-62,8145,-88,0,0,0,0,0
394,1765227161220,-64,8146,-78,0,0,0,0,0
395,1765227161454,-76,8134,-82,0,0,0,0,0
396,1765227161529,-66,8138,-104,0,0,0,0,0
397,1765227161988,-69,8146,-88,0,0,0,0,0
398,1765227162213,-77,8138,-90,0,0,0,0,0
399,1765227162321,-73,8140,-93,0,0,0,0,0
400,1765227162529,-54,8143,-84,0,0,0,0,0
401,1765227162654,-71,8134,-95,0,0,0,0,0
402,1765227162928,-66,8140,-95,0,0,0,0,0
403,1765227163054,-63,8145,-82,0,0,0,0,0
404,1765227163179,-64,8140,-92,0,0,0,0,0
405,1765227163354,-80,8118,-92,0,0,0,0,0
406,1765227163798,-82,8134,-109,0,0,0,0,0
407,1765227163923,-70,8124,-87,0,0,0,0,0
408,1765227164092,-62,8154,-91,0,0,0,0,0
409,1765227164470,-70,8144,-88,0,0,0,0,0
410,1765227164620,-62,8142,-74,0,0,0,0,0
411,1765227164803,-73,8126,-111,0,0,0,0,0
412,1765227164862,-65,8142,-97,0,0,0,0,0
413,1765227164946,-71,8136,-96,0,0,0,0,0
414,1765227165187,-67,8138,-84,0,0,0,0,0
415,1765227165429,-67,8138,-96,0,0,0,0,0
416,1765227165637,-70,8146,-99,0,0,0,0,0
417,1765227165703,-68,8140,-102,0,0,0,0,0
418,1765227165938,-70,8133,-91,0,0,0,0,0
419,1765227166029,-68,8147,-90,0,0,0,0,0
420,1765227166203,-72,8136,-108,0,0,0,0,0
421,1765227166387,-71,8135,-98,0,0,0,0,0
422,1765227166604,-60,8153,-82,0,0,0,0,0
423,1765227166687,-73,8145,-79,0,0,0,0,0
424,1765227166762,-66,8147,-80,0,0,0,0,0
425,1765227166870,-68,8146,-100,0,0,0,0,0
426,1765227167128,-72,8140,-92,0,0,0,0,0
427,1765227167361,-65,8142,-90,0,0,0,0,0
428,1765227167503,-69,8148,-89,0,0,0,0,0
429,1765227167670,-58,8126,-98,0,0,0,0,0
430,1765227167845,-61,8147,-92,0,0,0,0,0
431,1765227168036,-55,8137,-90,0,0,0,0,0
432,1765227168229,-64,8129,-98,0,0,0,0,0
433,1765227168805,-67,8150,-91,0,0,0,0,0
434,1765227168856,-59,8136,-78,0,0,0,0,0
435,1765227168864,-64,8144,-89,0,0,0,0,0
436,1765227168907,-58,8152,-96,0,0,0,0,0
437,1765227168993,-70,8140,-92,0,0,0,0,0
438,1765227169177,-70,8144,-86,0,0,0,0,0
439,1765227169360,-79,8132,-98,0,0,0,0,0
440,1765227169436,-65,8146,-90,0,0,0,0,0
441,1765227169694,-71,8137,-88,0,0,0,0,0
442,1765227169844,-74,8132,-92,0,0,0,0,0
443,1765227170059,-76,8148,-89,0,0,0,0,0
444,1765227170151,-65,8137,-90,0,0,0,0,0
445,1765227170435,-84,8128,-94,0,0,0,0,0
446,1765227170585,-54,8138,-96,0,0,0,0,0
447,1765227170826,-58,8146,-78,0,0,0,0,0
448,1765227170960,-84,8138,-106,0,0,0,0,0
449,1765227171185,-77,8152,-99,0,0,0,0,0
450,1765227171318,-78,8136,-76,0,0,0,0,0
451,1765227171552,-50,8136,-99,0,0,0,0,0
452,1765227171668,-63,8148,-97,0,0,0,0,0
453,1765227171917,-67,8138,-85,0,0,0,0,0
454,1765227172051,-82,8151,-88,0,0,0,0,0
455,1765227172293,-61,8133,-91,0,0,0,0,0
456,1765227172426,-71,8138,-104,0,0,0,0,0
457,1765227172668,-75,8149,-72,0,0,0,0,0
458,1765227172751,-60,8135,-85,0,0,0,0,0
459,1765227173143,-71,8147,-82,0,0,0,0,0
460,1765227173351,-64,8155,-93,0,0,0,0,0
461,1765227173443,-75,8138,-104,0,0,0,0,0
462,1765227173653,-61,8122,-125,0,0,0,0,0
463,1765227173885,-107,8094,-95,0,0,0,0,0
464,1765227174127,-28,8193,-42,0,0,0,0,0
465,1765227174269,-67,8148,-92,0,0,0,0,0
466,1765227174476,-70,8136,-97,0,0,0,0,0
467,1765227174602,-55,8142,-82,0,0,0,0,0
468,1765227174835,-64,8147,-107,0,0,0,0,0
469,1765227174969,-68,8141,-92,0,0,0,0,0
470,1765227175177,-68,8170,-66,0,0,0,0,0
471,1765227175276,-65,8120,-109,0,0,0,0,0
472,1765227175710,-48,8091,-98,0,0,0,0,0
473,1765227175899,-71,8162,-85,0,0,0,0,0
474,1765227176008,-72,8154,-94,0,0,0,0,0
475,1765227176184,-86,8162,-88,0,0,0,0,0
476,1765227176409,-72,8113,-76,0,0,0,0,0
477,1765227176552,-51,8143,-78,0,0,0,0,0
478,1765227176705,-75,8182,-106,0,0,0,0,0
479,1765227176793,-89,8125,-92,0,0,0,0,0
480,1765227176860,-92,8133,-97,0,0,0,0,0
481,1765227177156,-61,8146,-103,0,0,0,0,0
482,1765227177534,-64,8083,-72,0,0,0,0,0
483,1765227177675,-59,8151,-110,0,0,0,0,0
484,1765227177834,-69,8154,-92,0,0,0,0,0
485,1765227178235,9,8068,-268,0,0,0,0,0
486,1765227178402,-195,8155,-239,0,0,0,0,0
487,1765227178538,-83,8136,-160,0,0,0,0,0
488,1765227178696,-48,8124,-139,0,0,0,0,0
489,1765227178980,-74,8147,-131,0,0,0,0,0
490,1765227179168,-78,8139,-114,0,0,0,0,0
491,1765227179760,-101,8207,407,0,0,0,0,0
492,1765227179784,-92,8090,808,0,0,0,0,0
493,1765227179834,-46,8264,248,0,0,0,0,0
494,1765227180085,132,8299,759,0,0,0,0,0
495,1765227180220,-214,8238,721,0,0,0,0,0
496,1765227180452,-182,7789,860,0,0,0,0,0
497,1765227180710,239,7590,709,0,0,0,0,0
498,1765227180853,-136,8235,852,0,0,0,0,0
499,1765227181035,-30,8504,1018,0,0,0,0,0
500,1765227181219,51,7921,754,0,0,0,0,0
501,1765227181286,-43,8155,621,0,0,0,0,0
502,1765227181560,-157,8302,810,0,0,0,0,0
503,1765227181677,122,7996,805,0,0,0,0,0
504,1765227181868,148,8030,654,0,0,0,0,0
505,1765227181961,606,7964,1071,0,0,0,0,0
506,1765227182277,620,8332,547,0,0,0,0,0
507,1765227182411,66,7895,239,0,0,0,0,0
508,1765227182585,-268,7966,728,0,0,0,0,0
509,1765227182703,556,8054,820,0,0,0,0,0
510,1765227182924,-381,7978,467,0,0,0,0,0
511,1765227183093,-432,8666,273,0,0,0,0,0
512,1765227183250,-138,8697,158,0,0,0,0,0
513,1765227183419,502,7091,1012,0,0,0,0,0
514,1765227183596,-410,8114,86,0,0,0,0,0
515,1765227183795,331,7171,502,0,0,0,0,0
516,1765227183994,208,8976,362,0,0,0,0,0
517,1765227184168,-165,8765,-306,0,0,0,0,0
518,1765227184302,414,7916,750,0,0,0,0,0
519,1765227184502,-941,8047,-82,0,0,0,0,0
520,1765227184601,-42,7598,-497,0,0,0,0,0
521,1765227184996,-482,6746,-1285,0,0,0,0,0
522,1765227185094,-621,8356,-285,0,0,0,0,0
523,1765227185286,-1371,7956,-209,0,0,0,0,0
524,1765227185468,-1868,9256,-834,0,0,0,0,0
525,1765227185570,-704,8851,253,0,0,0,0,0
526,1765227185794,-1349,7636,-312,0,0,0,0,0
527,1765227186035,-2047,9372,-52,0,0,0,0,0
528,1765227186169,-875,8394,298,0,0,0,0,0
529,1765227186328,-2037,8761,-151,0,0,0,0,0
530,1765227186510,-1341,7392,298,0,0,0,0,0
531,1765227186860,-2420,7533,-992,0,0,0,0,0
532,1765227186952,-2035,7864,-1560,0,0,0,0,0
533,1765227187177,-2526,7302,-207,0,0,0,0,0
534,1765227187355,-1309,7327,-760,0,0,0,0,0
535,1765227187660,-2145,8054,-1210,0,0,0,0,0
536,1765227187751,-771,7934,-461,0,0,0,0,0
537,1765227188068,-900,7539,-402,0,0,0,0,0
538,1765227188193,-473,7926,-641,0,0,0,0,0
539,1765227188393,-420,8998,-60,0,0,0,0,0
540,1765227188553,-634,7042,-780,0,0,0,0,0
541,1765227188702,-271,9218,-668,0,0,0,0,0
542,1765227188818,675,6886,-1032,0,0,0,0,0
543,1765227189126,548,8514,591,0,0,0,0,0
544,1765227189176,-231,9330,-318,0,0,0,0,0
545,1765227189384,382,7765,134,0,0,0,0,0
546,1765227189551,-523,8688,-5,0,0,0,0,0
547,1765227189693,-48,7649,-650,0,0,0,0,0
548,1765227189951,-2656,8542,-659,0,0,0,0,0
549,1765227190668,-1021,8155,-483,0,0,0,0,0
550,1765227190683,-1836,8424,-542,0,0,0,0,0
551,1765227190702,-3587,8135,-366,0,0,0,0,0
552,1765227190740,-3525,7175,370,0,0,0,0,0
553,1765227190761,-3024,7623,-1350,0,0,0,0,0
554,1765227191142,-4543,8296,-472,0,0,0,0,0
555,1765227191242,-3202,6545,-689,0,0,0,0,0
556,1765227191444,-3468,8270,-1192,0,0,0,0,0
557,1765227191553,-3266,7880,-767,0,0,0,0,0
558,1765227191900,-2268,9114,-350,0,0,0,0,0
559,1765227192009,-1205,6472,-892,0,0,0,0,0
560,1765227192192,-456,9118,209,0,0,0,0,0
561,1765227192333,1230,8970,-124,0,0,0,0,0
562,1765227192500,2257,7380,-468,0,0,0,0,0
563,1765227192726,2882,8766,-46,0,0,0,0,0
564,1765227192983,4169,6797,-2223,0,0,0,0,0
565,1765227193101,4431,6668,-1872,0,0,0,0,0
566,1765227193318,6101,11173,-1722,0,0,0,0,0
567,1765227193452,6042,8233,-2455,0,0,0,0,0
568,1765227193644,4770,8216,-2454,0,0,0,0,0
569,1765227193801,4060,7986,-1783,0,0,0,0,0
570,1765227193972,4076,9106,-1812,0,0,0,0,0
571,1765227194088,3770,7514,-1946,0,0,0,0,0
572,1765227194176,4307,8101,-1413,0,0,0,0,0
573,1765227194447,5036,8308,213,0,0,0,0,0
574,1765227194545,5432,10751,-1636,0,0,0,0,0
575,1765227194803,6661,9689,-770,0,0,0,0,0
576,1765227194915,4300,9805,-2670,0,0,0,0,0
577,1765227195173,4386,6819,-965,0,0,0,0,0
578,1765227195297,4189,6006,-1346,0,0,0,0,0
579,1765227195570,3724,8656,-1404,0,0,0,0,0
580,1765227195703,4238,7332,-1322,0,0,0,0,0
581,1765227195943,3775,8185,-1572,0,0,0,0,0
582,1765227196200,2914,8075,-1117,0,0,0,0,0
583,1765227196324,3376,8984,-1459,0,0,0,0,0
584,1765227196567,3224,7761,-818,0,0,0,0,0
585,1765227196707,2469,7166,-1085,0,0,0,0,0
586,1765227196926,3021,8116,-590,0,0,0,0,0
587,1765227197034,2710,8432,-1378,0,0,0,0,0
588,1765227197266,2948,8203,-1150,0,0,0,0,0
589,1765227197383,2239,7818,-551,0,0,0,0,0
590,1765227197682,3083,7808,-1692,0,0,0,0,0
591,1765227197769,1888,8677,-1198,0,0,0,0,0
592,1765227198026,-2130,6777,-651,0,0,0,0,0
593,1765227198130,-1968,8349,-1090,0,0,0,0,0
594,1765227198370,-2168,7071,-778,0,0,0,0,0
595,1765227198516,-2488,9260,-713,0,0,0,0,0
596,1765227198788,-3423,7425,-832,0,0,0,0,0
597,1765227198854,-3282,8552,-825,0,0,0,0,0
598,1765227199089,-3640,8626,-484,0,0,0,0,0
599,1765227199338,-3312,8413,84,0,0,0,0,0
600,1765227199544,-3019,8373,-736,0,0,0,0,0
601,1765227199720,-2610,7156,445,0,0,0,0,0
602,1765227199913,-1526,8799,-134,0,0,0,0,0
603,1765227200116,-953,8675,628,0,0,0,0,0
604,1765227200255,-1750,7117,67,0,0,0,0,0
605,1765227200470,-1138,8296,439,0,0,0,0,0
606,1765227200489,-1255,8608,-140,0,0,0,0,0
607,1765227200644,-1134,8512,-520,0,0,0,0,0
608,1765227200952,-1341,8152,79,0,0,0,0,0
609,1765227201055,-821,8375,265,0,0,0,0,0
610,1765227201104,-990,8125,359,0,0,0,0,0
611,1765227201721,-1328,8446,242,0,0,0,0,0
612,1765227201736,-544,7495,116,0,0,0,0,0
613,1765227201770,-483,8470,314,0,0,0,0,0
614,1765227201777,-1298,5898,-129,0,0,0,0,0
615,1765227201855,-1943,9583,317,0,0,0,0,0
616,1765227202080,-622,7777,14,0,0,0,0,0
617,1765227202229,-256,7818,649,0,0,0,0,0
618,1765227202463,-607,9002,324,0,0,0,0,0
619,1765227202730,-648,8436,451,0,0,0,0,0
620,1765227202829,-1127,8112,100,0,0,0,0,0
621,1765227203053,170,8918,650,0,0,0,0,0
622,1765227203206,-260,9830,-688,0,0,0,0,0
623,1765227203462,-1292,1043,723,0,0,0,0,0
624,1765227203547,-206,30874,-227,0,0,0,0,0
625,1765227203631,-900,8601,-109,0,0,0,0,0
626,1765227203799,-1328,8035,-90,0,0,0,0,0
627,1765227203932,-1539,23384,-29666,0,0,0,0,0
628,1765227204395,-2253,8246,-176,0,0,0,0,0
629,1765227204621,-2042,8134,-557,0,0,0,0,0
630,1765227204704,-1845,8077,-225,0,0,0,0,0
631,1765227204977,-1844,6661,502,0,0,0,0,0
632,1765227205103,-2024,9502,-199,0,0,0,0,0
633,1765227205343,-1984,10161,-540,0,0,0,0,0
634,1765227205436,-2211,6548,-549,0,0,0,0,0
635,1765227205501,-966,7855,-16,0,0,0,0,0
636,1765227205727,-1916,8104,-371,0,0,0,0,0
637,1765227205982,-1834,8553,-533,0,0,0,0,0
638,1765227206188,-2051,7422,-368,0,0,0,0,0
639,1765227206298,-2416,8273,-734,0,0,0,0,0
640,1765227206486,-2045,8371,116,0,0,0,0,0
641,1765227206724,-1697,8133,-67,0,0,0,0,0
642,1765227206908,-3228,7920,-346,0,0,0,0,0
643,1765227207041,-2568,8878,-27,0,0,0,0,0
644,1765227207201,-3832,9194,-444,0,0,0,0,0
645,1765227207391,-3456,8319,-563,0,0,0,0,0
646,1765227207671,-3438,7334,-697,0,0,0,0,0
647,1765227207912,-3501,7285,-456,0,0,0,0,0
648,1765227208064,-3654,7417,-265,0,0,0,0,0
649,1765227208406,-2631,8708,-437,0,0,0,0,0
650,1765227208634,-978,7100,-469,0,0,0,0,0
651,1765227208775,-707,8388,-2,0,0,0,0,0
652,1765227208972,98,8682,-46,0,0,0,0,0
653,1765227209096,1191,7478,440,0,0,0,0,0
654,1765227209408,3656,8888,-958,0,0,0,0,0
655,1765227209518,3752,8083,-1138,0,0,0,0,0
656,1765227209765,3523,8914,-1004,0,0,0,0,0
657,1765227209835,4221,8778,-847,0,0,0,0,0
658,1765227209917,5058,7313,-1639,0,0,0,0,0
659,1765227210098,5474,9358,-2246,0,0,0,0,0
660,1765227210250,4368,7155,-1331,0,0,0,0,0
661,1765227210501,558,8486,-862,0,0,0,0,0
662,1765227210644,-202,7276,-888,0,0,0,0,0
663,1765227211075,-2093,7391,-1173,0,0,0,0,0
664,1765227211333,-6524,10237,-2262,0,0,0,0,0
665,1765227211403,-5634,7335,-2082,0,0,0,0,0
666,1765227211641,-5132,8796,-1103,0,0,0,0,0
667,1765227211791,-6067,7991,-1805,0,0,0,0,0
668,1765227212132,-6558,7581,-2376,0,0,0,0,0
669,1765227212997,-5914,10002,-1302,0,0,0,0,0
670,1765227213049,-6231,5418,-1414,0,0,0,0,0
671,1765227213064,-3552,8111,-573,0,0,0,0,0
672,1765227213203,-7410,9176,-1648,0,0,0,0,0
673,1765227213279,-6828,6320,-1116,0,0,0,0,0
674,1765227213548,-6200,7195,-2293,0,0,0,0,0
675,1765227213686,-6181,7085,-781,0,0,0,0,0
676,1765227213929,-5442,6143,-1196,0,0,0,0,0
677,1765227214009,-5118,8182,-974,0,0,0,0,0
678,1765227214253,-6003,7332,-653,0,0,0,0,0
679,1765227214482,-5179,7338,-809,0,0,0,0,0
680,1765227214674,-4566,6977,-77,0,0,0,0,0
681,1765227214849,-4457,7881,-381,0,0,0,0,0
682,1765227215049,-3069,8550,-12,0,0,0,0,0
683,1765227215210,-3368,7401,50,0,0,0,0,0
684,1765227215386,-1809,7899,1447,0,0,0,0,0
685,1765227215536,-116,8768,572,0,0,0,0,0
686,1765227215735,-44,7968,-21,0,0,0,0,0
687,1765227215822,234,8535,188,0,0,0,0,0
688,1765227216272,3589,6727,416,0,0,0,0,0
689,1765227216455,4947,8514,-338,0,0,0,0,0
690,1765227216563,4750,8664,-713,0,0,0,0,0
691,1765227216758,3626,8854,-460,0,0,0,0,0
692,1765227217154,3524,7797,-826,0,0,0,0,0
693,1765227217292,4240,9494,-599,0,0,0,0,0
694,1765227217334,974,6301,31,0,0,0,0,0
695,1765227217420,533,8300,-872,0,0,0,0,0
696,1765227217658,1361,8735,18,0,0,0,0,0
697,1765227217906,207,9056,-107,0,0,0,0,0
698,1765227218117,-877,10246,-845,0,0,0,0,0
699,1765227218190,-1011,7420,92,0,0,0,0,0
700,1765227218420,-242,7810,-414,0,0,0,0,0
701,1765227218669,-18,8293,65,0,0,0,0,0
702,1765227219064,-631,8041,-100,0,0,0,0,0
703,1765227219212,1963,8710,429,0,0,0,0,0
704,1765227219305,1579,8664,171,0,0,0,0,0
705,1765227219630,2650,7442,469,0,0,0,0,0
706,1765227219764,2104,8474,10,0,0,0,0,0
707,1765227219948,2865,8956,-994,0,0,0,0,0
708,1765227220062,3209,8537,374,0,0,0,0,0
709,1765227220261,2120,6110,-666,0,0,0,0,0
710,1765227220400,2328,8351,-90,0,0,0,0,0
711,1765227220450,2337,8185,-643,0,0,0,0,0
712,1765227220580,3473,9414,-708,0,0,0,0,0
713,1765227220771,2858,8751,-237,0,0,0,0,0
714,1765227220925,2291,6320,-494,0,0,0,0,0
715,1765227221129,3774,10570,386,0,0,0,0,0
716,1765227221215,5018,8448,-805,0,0,0,0,0
717,1765227221517,3331,8296,-6,0,0,0,0,0
718,1765227221648,3082,8192,-1434,0,0,0,0,0
719,1765227221771,3847,8143,-1037,0,0,0,0,0
720,1765227221948,3501,7769,-1324,0,0,0,0,0
721,1765227222099,4150,7275,-548,0,0,0,0,0
722,1765227222409,5360,6955,-1553,0,0,0,0,0
723,1765227222586,6505,8225,-2027,0,0,0,0,0
724,1765227222698,6270,8182,-2454,0,0,0,0,0
725,1765227223063,5768,9098,-1830,0,0,0,0,0
726,1765227223278,6632,7269,-1411,0,0,0,0,0
727,1765227223580,-101,8270,-1276,0,0,0,0,0
728,1765227224282,-1132,8853,-1252,0,0,0,0,0
729,1765227224295,-3015,9667,-1568,0,0,0,0,0
730,1765227224363,-6846,8979,-1936,0,0,0,0,0
731,1765227224380,-7397,7025,-2772,0,0,0,0,0
732,1765227224581,-6576,9324,-1390,0,0,0,0,0
733,1765227224773,-2199,9802,98,0,0,0,0,0
734,1765227225089,-2265,8139,-217,0,0,0,0,0
735,1765227225227,479,8358,764,0,0,0,0,0
736,1765227225505,3196,10012,50,0,0,0,0,0
737,1765227225591,3704,9635,-1632,0,0,0,0,0
738,1765227225843,3026,10044,-1168,0,0,0,0,0
739,1765227226262,6295,9129,-2313,0,0,0,0,0
740,1765227226327,5311,2687,-2048,0,0,0,0,0
741,1765227226611,7009,11224,-2214,0,0,0,0,0
742,1765227226838,5606,6467,-2226,0,0,0,0,0
743,1765227227041,5593,8799,-2382,0,0,0,0,0
744,1765227227190,5847,7514,1938,0,0,0,0,0
745,1765227227432,4433,9763,-887,0,0,0,0,0
746,1765227227516,6503,6690,85,0,0,0,0,0
747,1765227227766,6416,9569,256,0,0,0,0,0
748,1765227227840,6978,9190,-1041,0,0,0,0,0
749,1765227227913,8107,9286,-1085,0,0,0,0,0
750,1765227228631,4105,6623,-2994,0,0,0,0,0
751,1765227228876,8207,6566,-1914,0,0,0,0,0
752,1765227228933,9863,8036,-724,0,0,0,0,0
753,1765227229316,4051,8890,-1913,0,0,0,0,0
754,1765227229492,3440,6924,-1981,0,0,0,0,0
755,1765227229626,3306,7554,-2082,0,0,0,0,0
756,1765227229740,2492,8639,-1497,0,0,0,0,0
757,1765227230130,2086,8379,-1064,0,0,0,0,0
758,1765227230441,-234,8374,-1040,0,0,0,0,0
759,1765227230532,-1379,8070,-984,0,0,0,0,0
760,1765227230756,-1608,7560,-962,0,0,0,0,0
761,1765227230920,-2648,7928,-793,0,0,0,0,0
762,1765227231208,-2067,9466,-719,0,0,0,0,0
763,1765227231332,-872,7948,-407,0,0,0,0,0
764,1765227231501,-1720,7582,-588,0,0,0,0,0
765,1765227231594,-2276,7391,-878,0,0,0,0,0
766,1765227231716,-2210,9882,-744,0,0,0,0,0
767,1765227231973,-2310,7484,-480,0,0,0,0,0
768,1765227232271,-1794,7742,-628,0,0,0,0,0
769,1765227232370,-2780,7747,-1051,0,0,0,0,0
770,1765227232600,-1878,7757,-552,0,0,0,0,0
771,1765227232834,-2240,8434,-958,0,0,0,0,0
772,1765227233060,-1092,8300,-634,0,0,0,0,0
773,1765227233178,-1658,6980,-932,0,0,0,0,0
774,1765227233466,-356,7728,-349,0,0,0,0,0
775,1765227233740,-1111,8408,-834,0,0,0,0,0
776,1765227233836,-255,8370,-736,0,0,0,0,0
777,1765227234073,-469,7660,-401,0,0,0,0,0
778,1765227234233,-330,8917,-480,0,0,0,0,0
779,1765227234493,-469,7684,-632,0,0,0,0,0
780,1765227234583,-317,7618,-402,0,0,0,0,0
781,1765227234653,-580,7973,-812,0,0,0,0,0
782,1765227235323,-284,7752,-576,0,0,0,0,0
783,1765227235337,-205,8886,-567,0,0,0,0,0
784,1765227235423,-662,7411,-718,0,0,0,0,0
785,1765227235441,-336,8522,-313,0,0,0,0,0
786,1765227235519,-65,8296,-565,0,0,0,0,0
787,1765227235676,-297,8446,-631,0,0,0,0,0
788,1765227235866,-356,8362,-906,0,0,0,0,0
789,1765227236078,-638,8351,-536,0,0,0,0,0
790,1765227236333,-99,8127,-574,0,0,0,0,0
791,1765227236429,-245,7462,-476,0,0,0,0,0
792,1765227236536,-225,8554,-671,0,0,0,0,0
793,1765227236716,-418,8271,-673,0,0,0,0,0
794,1765227236834,-240,7830,-586,0,0,0,0,0
795,1765227237196,-422,8131,-462,0,0,0,0,0
796,1765227237304,-273,8165,811,0,0,0,0,0
797,1765227237535,-312,8051,-153,0,0,0,0,0
798,1765227237619,-291,8107,-358,0,0,0,0,0
799,1765227237879,-304,8167,-100,0,0,0,0,0
800,1765227238030,-292,8114,-160,0,0,0,0,0
801,1765227238255,-280,8099,-296,0,0,0,0,0
802,1765227238426,-284,8194,552,0,0,0,0,0
803,1765227238725,-242,8212,685,0,0,0,0,0
804,1765227238927,-302,8149,-27,0,0,0,0,0
805,1765227239126,-326,8127,-52,0,0,0,0,0
806,1765227239276,-261,8108,-109,0,0,0,0,0
807,1765227239430,-250,8133,-33,0,0,0,0,0
808,1765227239747,-252,8162,-2,0,0,0,0,0
809,1765227239871,-283,8121,-50,0,0,0,0,0
810,1765227240107,-293,8141,-30,0,0,0,0,0
811,1765227240277,-270,8134,-27,0,0,0,0,0
812,1765227240585,-269,8118,-25,0,0,0,0,0
813,1765227240732,-275,8129,-42,0,0,0,0,0
814,1765227240980,-276,8148,-32,0,0,0,0,0
815,1765227241068,-283,8130,-32,0,0,0,0,0
816,1765227241312,-285,8132,-30,0,0,0,0,0
817,1765227241705,-281,8116,-28,0,0,0,0,0
818,1765227241847,-287,8163,-36,0,0,0,0,0
819,1765227242071,-269,8135,-25,0,0,0,0,0
820,1765227242405,-277,8144,-15,0,0,0,0,0
821,1765227242472,-276,8124,-66,0,0,0,0,0
822,1765227242715,-280,8142,-20,0,0,0,0,0
823,1765227242751,-267,8123,-30,0,0,0,0,0
824,1765227242873,-279,8150,-33,0,0,0,0,0
825,1765227243166,-287,8091,-53,0,0,0,0,0
826,1765227243277,-274,8156,-13,0,0,0,0,0
827,1765227243547,-264,8134,-36,0,0,0,0,0
828,1765227243616,-277,8122,-35,0,0,0,0,0
829,1765227243921,-284,8143,-22,0,0,0,0,0
830,1765227244085,-268,8122,-46,0,0,0,0,0
831,1765227244320,-262,8144,-32,0,0,0,0,0
832,1765227244450,-287,8146,-14,0,0,0,0,0
833,1765227244707,-264,8132,-28,0,0,0,0,0
834,1765227244878,-291,8088,-36,0,0,0,0,0
835,1765227245058,-273,8158,-52,0,0,0,0,0
836,1765227245270,-290,8154,-26,0,0,0,0,0
837,1765227245488,-278,8120,-16,0,0,0,0,0
838,1765227246258,-277,8148,-30,0,0,0,0,0
839,1765227246273,-281,8154,-24,0,0,0,0,0
840,1765227246290,-279,8145,-32,0,0,0,0,0
841,1765227246334,-276,8125,-26,0,0,0,0,0
842,1765227246368,-278,8119,-20,0,0,0,0,0
843,1765227246603,-270,8138,-37,0,0,0,0,0
844,1765227246681,-284,8125,-22,0,0,0,0,0
845,1765227246927,-283,8145,-22,0,0,0,0,0
846,1765227247088,-270,8149,-23,0,0,0,0,0
847,1765227247388,-286,8139,-26,0,0,0,0,0
848,1765227247581,-282,8138,-36,0,0,0,0,0
849,1765227247793,-270,8136,-32,0,0,0,0,0
850,1765227247957,-284,8140,-19,0,0,0,0,0
851,1765227248142,-287,8133,-24,0,0,0,0,0
852,1765227248416,-284,8144,-29,0,0,0,0,0
853,1765227248544,-284,8124,-27,0,0,0,0,0
854,1765227248790,-266,8147,-22,0,0,0,0,0
855,1765227248943,-291,8128,-20,0,0,0,0,0
856,1765227249251,-278,8144,-26,0,0,0,0,0
857,1765227249340,-280,8132,-30,0,0,0,0,0
858,1765227249591,-273,8147,-33,0,0,0,0,0
859,1765227249709,-282,8137,-22,0,0,0,0,0
860,1765227249991,-273,8142,-21,0,0,0,0,0
861,1765227250091,-284,8135,-26,0,0,0,0,0
862,1765227250149,-283,8131,-30,0,0,0,0,0
863,1765227250334,-276,8140,-18,0,0,0,0,0
864,1765227250442,-278,8132,-38,0,0,0,0,0
865,1765227250758,-284,8130,-28,0,0,0,0,0
866,1765227250900,-286,8140,-35,0,0,0,0,0
867,1765227251141,-286,8133,-20,0,0,0,0,0
868,1765227251217,-272,8142,-17,0,0,0,0,0
869,1765227251417,-275,8136,-34,0,0,0,0,0
870,1765227251590,-272,8137,-23,0,0,0,0,0
871,1765227251824,-292,8144,-27,0,0,0,0,0
872,1765227251925,-280,8129,-24,0,0,0,0,0
873,1765227252018,-290,8131,-36,0,0,0,0,0
874,1765227252091,-276,8146,-17,0,0,0,0,0
875,1765227252308,-278,8141,-27,0,0,0,0,0
876,1765227252590,-281,8124,-28,0,0,0,0,0
877,1765227252758,-290,8118,-24,0,0,0,0,0
878,1765227252850,-245,8174,-28,0,0,0,0,0
879,1765227253050,-286,8099,-36,0,0,0,0,0
880,1765227253183,-304,8120,-2,0,0,0,0,0
881,1765227253315,-287,8134,-39,0,0,0,0,0
882,1765227253527,-277,8126,-31,0,0,0,0,0
883,1765227253732,-266,8136,-12,0,0,0,0,0
884,1765227253815,-283,8141,-39,0,0,0,0,0
885,1765227253918,-266,8139,-30,0,0,0,0,0
886,1765227253989,-288,8134,-42,0,0,0,0,0
887,1765227254232,-285,8132,-10,0,0,0,0,0
888,1765227254649,-307,8111,-10,0,0,0,0,0
889,1765227254732,-242,8096,9,0,0,0,0,0
890,1765227254967,-241,8220,-64,0,0,0,0,0
891,1765227255133,-249,8193,-114,0,0,0,0,0
892,1765227255251,-498,8135,-57,0,0,0,0,0
893,1765227255458,-161,8092,71,0,0,0,0,0
894,1765227255624,-154,8246,-142,0,0,0,0,0
895,1765227255787,-236,8136,-50,0,0,0,0,0
896,1765227255897,-344,8114,-3,0,0,0,0,0
897,1765227256198,-235,8149,-36,0,0,0,0,0
898,1765227256340,-266,8040,-10,0,0,0,0,0
899,1765227256465,-332,8122,-116,0,0,0,0,0
900,1765227256632,-221,8176,-36,0,0,0,0,0
901,1765227257244,-298,8117,16,0,0,0,0,0
902,1765227257281,-292,8147,-44,0,0,0,0,0
903,1765227257314,-274,8129,-17,0,0,0,0,0
904,1765227257378,-266,8135,-31,0,0,0,0,0
905,1765227257444,-290,8153,-24,0,0,0,0,0
906,1765227257536,-283,8134,-22,0,0,0,0,0
907,1765227257653,-248,8133,-11,0,0,0,0,0
908,1765227257827,-292,8139,-32,0,0,0,0,0
909,1765227258285,-254,8159,-29,0,0,0,0,0
910,1765227258361,-250,8136,-28,0,0,0,0,0
911,1765227258581,-295,8122,0,0,0,0,0,0
912,1765227258654,-288,8153,-66,0,0,0,0,0
913,1765227258721,-231,8094,-52,0,0,0,0,0
914,1765227258813,-205,8205,46,0,0,0,0,0
915,1765227259052,-356,8116,-86,0,0,0,0,0
916,1765227259169,-304,8130,-51,0,0,0,0,0
917,1765227259479,-318,8108,-24,0,0,0,0,0
918,1765227259627,-260,8158,-9,0,0,0,0,0
919,1765227259853,-260,8092,-64,0,0,0,0,0
920,1765227259995,-287,8136,-31,0,0,0,0,0
921,1765227260220,-287,8110,-7,0,0,0,0,0
922,1765227260295,-286,8131,-36,0,0,0,0,0
923,1765227260513,-277,8138,-40,0,0,0,0,0
924,1765227260662,-313,8095,-26,0,0,0,0,0
925,1765227260810,-274,8140,8,0,0,0,0,0
926,1765227261002,-254,8160,-35,0,0,0,0,0
927,1765227261146,-276,8144,-54,0,0,0,0,0
928,1765227261272,-292,8129,-30,0,0,0,0,0
929,1765227261444,-287,8140,-4,0,0,0,0,0
930,1765227261719,-277,8120,-37,0,0,0,0,0
931,1765227261902,-282,8128,-35,0,0,0,0,0
932,1765227262028,-276,8123,-29,0,0,0,0,0
933,1765227262202,-283,8128,-28,0,0,0,0,0
934,1765227262636,-281,8136,-35,0,0,0,0,0
935,1765227262810,-287,8140,-31,0,0,0,0,0
936,1765227262935,-288,8136,-23,0,0,0,0,0
937,1765227263760,-286,8141,-33,0,0,0,0,0
938,1765227263968,-283,8139,-31,0,0,0,0,0
939,1765227264052,-276,8115,-27,0,0,0,0,0
940,1765227264259,-274,8143,-32,0,0,0,0,0
941,1765227264343,-276,8147,-36,0,0,0,0,0
942,1765227264577,-276,8136,-19,0,0,0,0,0
943,1765227264687,-290,8133,-25,0,0,0,0,0
944,1765227264878,-283,8141,-29,0,0,0,0,0
945,1765227264978,-279,8121,-35,0,0,0,0,0
946,1765227265044,-272,8136,-40,0,0,0,0,0
947,1765227265102,-278,8130,-22,0,0,0,0,0
948,1765227265343,-296,8139,-33,0,0,0,0,0
949,1765227265418,-282,8136,-28,0,0,0,0,0
950,1765227265644,-280,8142,-40,0,0,0,0,0
951,1765227265653,-280,8138,-26,0,0,0,0,0
952,1765227265827,-288,8122,-20,0,0,0,0,0
953,1765227265926,-279,8135,-27,0,0,0,0,0
954,1765227266151,-285,8130,-34,0,0,0,0,0
955,1765227266310,-275,8138,-37,0,0,0,0,0
956,1765227266561,-284,8138,-24,0,0,0,0,0
957,1765227266661,-286,8134,-26,0,0,0,0,0
958,1765227266843,-272,8128,-28,0,0,0,0,0
959,1765227267051,-291,8170,-40,0,0,0,0,0
960,1765227267101,-274,8112,-5,0,0,0,0,0
961,1765227267386,-262,8105,-34,0,0,0,0,0
962,1765227267551,-259,8134,-77,0,0,0,0,0
963,1765227267644,-284,8089,2,0,0,0,0,0
964,1765227267834,-302,8150,4,0,0,0,0,0
965,1765227267935,-267,8153,-56,0,0,0,0,0
966,1765227268169,-280,8127,-40,0,0,0,0,0
967,1765227268934,-276,8144,-14,0,0,0,0,0
968,1765227268978,-284,8118,-25,0,0,0,0,0
969,1765227269009,-268,8138,-8,0,0,0,0,0
970,1765227269017,-282,8126,-30,0,0,0,0,0
971,1765227269052,-288,8125,-36,0,0,0,0,0
972,1765227269170,-280,8124,-25,0,0,0,0,0
973,1765227269248,-284,8130,-34,0,0,0,0,0
974,1765227269411,-289,8144,-25,0,0,0,0,0
975,1765227269578,-278,8137,-18,0,0,0,0,0
976,1765227269721,-277,8116,-26,0,0,0,0,0
977,1765227269881,-285,8140,-28,0,0,0,0,0
978,1765227270013,-276,8138,-27,0,0,0,0,0
979,1765227270321,-281,8133,-35,0,0,0,0,0
980,1765227270406,-294,8136,-20,0,0,0,0,0
981,1765227270462,-282,8118,-23,0,0,0,0,0
982,1765227270580,-254,8117,-34,0,0,0,0,0
983,1765227270754,-289,8152,-32,0,0,0,0,0
984,1765227270983,-286,8124,-33,0,0,0,0,0
985,1765227271145,-292,8135,-8,0,0,0,0,0
986,1765227271229,-296,8173,-28,0,0,0,0,0
987,1765227271455,-277,8156,-104,0,0,0,0,0
988,1765227271555,-269,8098,6,0,0,0,0,0
989,1765227271716,-282,8178,-30,0,0,0,0,0
990,1765227274098,-281,8130,-34,0,0,0,0,0
991,1765227274230,-269,8165,-40,0,0,0,0,0
992,1765227274387,-304,8166,-42,0,0,0,0,0
993,1765227274581,-285,8125,-42,0,0,0,0,0
994,1765227274687,-265,8104,-18,0,0,0,0,0
995,1765227274933,-280,8124,-128,0,0,0,0,0
996,1765227275003,-303,8119,-143,0,0,0,0,0
997,1765227275243,-301,8126,-112,0,0,0,0,0
998,1765227275313,-270,8112,-102,0,0,0,0,0
999,1765227275686,-258,8157,85,0,0,0,0,0
1000,1765227275854,-316,8147,36,0,0,0,0,0
1001,1765227275979,-275,8130,-4,0,0,0,0,0
1002,1765227276145,-268,8123,-77,0,0,0,0,0
1003,1765227276430,-272,8149,-97,0,0,0,0,0
1004,1765227276638,-281,8114,-116,0,0,0,0,0
1005,1765227276796,-305,8142,-122,0,0,0,0,0
1006,1765227276896,-260,8117,-97,0,0,0,0,0
1007,1765227277095,-276,8105,-108,0,0,0,0,0
1008,1765227277295,-277,8160,-107,0,0,0,0,0
1009,1765227277479,-273,8105,-33,0,0,0,0,0
1010,1765227277562,-235,8158,-157,0,0,0,0,0
1011,1765227277799,-288,8129,-218,0,0,0,0,0
1012,1765227278163,-276,8100,-66,0,0,0,0,0
1013,1765227278280,-253,8137,27,0,0,0,0,0
1014,1765227278499,-271,8118,-58,0,0,0,0,0
1015,1765227278646,-280,8128,-40,0,0,0,0,0
1016,1765227278770,-273,8138,-42,0,0,0,0,0
1017,1765227278979,-275,8137,-19,0,0,0,0,0
1018,1765227279152,-261,8128,-14,0,0,0,0,0
1019,1765227279348,-268,8135,-30,0,0,0,0,0
1020,1765227279427,-281,8120,-28,0,0,0,0,0
1021,1765227279677,-272,8149,-27,0,0,0,0,0
1022,1765227280086,-272,8132,-24,0,0,0,0,0
1023,1765227280178,-280,8142,-34,0,0,0,0,0
1024,1765227280386,-255,8131,-40,0,0,0,0,0
1025,1765227280528,-271,8138,-35,0,0,0,0,0
1026,1765227280753,-283,8128,-31,0,0,0,0,0
1027,1765227280869,-272,8136,-27,0,0,0,0,0
1028,1765227281220,-280,8139,-78,0,0,0,0,0
1029,1765227281311,-279,8110,-72,0,0,0,0,0
1030,1765227282109,-264,8136,-64,0,0,0,0,0
1031,1765227282136,-266,8126,-59,0,0,0,0,0
1032,1765227282162,-260,8156,-68,0,0,0,0,0
1033,1765227282182,-269,8137,-52,0,0,0,0,0
1034,1765227282224,-278,8115,-65,0,0,0,0,0
1035,1765227282360,-290,8150,141,0,0,0,0,0
1036,1765227282496,-222,8151,216,0,0,0,0,0
1037,1765227282703,-265,8123,152,0,0,0,0,0
1038,1765227282810,-262,8149,60,0,0,0,0,0
1039,1765227283127,-270,8139,-26,0,0,0,0,0
1040,1765227283426,-267,8143,-20,0,0,0,0,0
1041,1765227283502,-273,8139,-17,0,0,0,0,0
1042,1765227283570,-281,8143,-72,0,0,0,0,0
1043,1765227283628,-268,8134,-73,0,0,0,0,0
1044,1765227283869,-271,8130,-80,0,0,0,0,0
1045,1765227283944,-278,8148,-71,0,0,0,0,0
1046,1765227284319,-276,8134,-51,0,0,0,0,0
1047,1765227284402,-258,8134,-26,0,0,0,0,0
1048,1765227284609,-269,8146,-32,0,0,0,0,0
1049,1765227284703,-292,8126,-41,0,0,0,0,0
1050,1765227284786,-304,8138,-72,0,0,0,0,0
1051,1765227285093,-269,8139,-55,0,0,0,0,0
1052,1765227285201,-280,8134,-59,0,0,0,0,0
1053,1765227285494,-296,8098,-57,0,0,0,0,0
1054,1765227285576,-278,8116,-56,0,0,0,0,0
1055,1765227285795,-282,8140,-78,0,0,0,0,0
1056,1765227285929,-270,8138,-45,0,0,0,0,0
1057,1765227285993,-287,8128,-110,0,0,0,0,0
1058,1765227286193,-249,8120,-54,0,0,0,0,0
1059,1765227286320,-287,8136,-113,0,0,0,0,0
1060,1765227286494,-280,8164,-85,0,0,0,0,0
1061,1765227286712,-277,8149,76,0,0,0,0,0
1062,1765227286969,-258,8129,126,0,0,0,0,0
1063,1765227287085,-265,8187,120,0,0,0,0,0
1064,1765227287219,-256,8174,185,0,0,0,0,0
1065,1765227287352,-290,8088,33,0,0,0,0,0
1066,1765227287510,-256,8149,-93,0,0,0,0,0
1067,1765227287635,-306,8101,-127,0,0,0,0,0
1068,1765227287951,-273,8147,-32,0,0,0,0,0
1069,1765227288052,-278,8117,6,0,0,0,0,0
1070,1765227288243,-270,8128,-2,0,0,0,0,0
1071,1765227288327,-257,8145,-42,0,0,0,0,0
1072,1765227288428,-270,8133,-31,0,0,0,0,0
1073,1765227288587,-273,8122,-26,0,0,0,0,0
1074,1765227288793,-271,8154,-19,0,0,0,0,0
1075,1765227289045,-280,8138,-24,0,0,0,0,0
1076,1765227289199,-278,8132,-26,0,0,0,0,0
1077,1765227289347,-282,8137,-21,0,0,0,0,0
1078,1765227289486,-269,8137,-12,0,0,0,0,0
1079,1765227289608,-287,8134,-22,0,0,0,0,0
1080,1765227289692,-272,8135,-16,0,0,0,0,0
1081,1765227289941,-276,8138,-19,0,0,0,0,0
1082,1765227290034,-276,8137,-16,0,0,0,0,0
1083,1765227290297,-269,8137,-29,0,0,0,0,0
1084,1765227290425,-277,8132,-28,0,0,0,0,0
1085,1765227290726,-286,8131,-6,0,0,0,0,0
1086,1765227290910,-262,8139,-49,0,0,0,0,0
1087,1765227291088,-249,8106,1,0,0,0,0,0
1088,1765227291187,-291,8139,12,0,0,0,0,0
1089,1765227291368,-288,8166,-61,0,0,0,0,0
1090,1765227291591,-298,8138,-42,0,0,0,0,0
1091,1765227291727,-263,8170,10,0,0,0,0,0
1092,1765227291919,-254,8126,13,0,0,0,0,0
1093,1765227292100,-270,8128,15,0,0,0,0,0
1094,1765227292252,-276,8142,-46,0,0,0,0,0
1095,1765227292467,-275,8154,-19,0,0,0,0,0
1096,1765227293106,-292,8135,-54,0,0,0,0,0
1097,1765227293160,-262,8133,-60,0,0,0,0,0
1098,1765227293171,-269,8149,-53,0,0,0,0,0
1099,1765227293225,-269,8154,-29,0,0,0,0,0
1100,1765227293334,-267,8130,-42,0,0,0,0,0
1101,1765227293556,-278,8122,-22,0,0,0,0,0
1102,1765227293760,-280,8148,-14,0,0,0,0,0
1103,1765227293857,-279,8131,-23,0,0,0,0,0
1104,1765227293946,-8,8021,1030,0,0,0,0,0
1105,1765227294072,-470,8168,109,0,0,0,0,0
1106,1765227294313,-36,8174,624,0,0,0,0,0
1107,1765227294577,-246,8124,341,0,0,0,0,0
1108,1765227294699,-190,8198,383,0,0,0,0,0
1109,1765227294915,-228,8186,243,0,0,0,0,0
1110,1765227295046,-217,8288,354,0,0,0,0,0
1111,1765227295350,-412,8198,388,0,0,0,0,0
1112,1765227295419,-271,8548,630,0,0,0,0,0
1113,1765227295647,-342,8143,618,0,0,0,0,0
1114,1765227295901,-236,8272,882,0,0,0,0,0
1115,1765227296100,-58,7982,818,0,0,0,0,0
1116,1765227296302,-34,7792,1092,0,0,0,0,0
1117,1765227296487,149,7943,718,0,0,0,0,0
1118,1765227296630,1378,8446,1540,0,0,0,0,0
1119,1765227296815,1488,8286,610,0,0,0,0,0
1120,1765227297019,1404,7680,591,0,0,0,0,0
1121,1765227297199,287,7853,-606,0,0,0,0,0
1122,1765227297345,1075,8096,-503,0,0,0,0,0
1123,1765227297568,470,8132,-685,0,0,0,0,0
1124,1765227297650,709,8494,-322,0,0,0,0,0
1125,1765227297832,328,8300,-252,0,0,0,0,0
1126,1765227297947,733,8620,-909,0,0,0,0,0
1127,1765227298195,490,7566,-1158,0,0,0,0,0
1128,1765227298342,1340,8320,-372,0,0,0,0,0
1129,1765227298605,1390,7944,-161,0,0,0,0,0
1130,1765227298670,1773,9240,216,0,0,0,0,0
1131,1765227298910,1573,8170,-487,0,0,0,0,0
1132,1765227298937,759,9152,-828,0,0,0,0,0
1133,1765227299051,818,7448,-822,0,0,0,0,0
1134,1765227299369,726,8710,-206,0,0,0,0,0
1135,1765227299523,703,7927,-414,0,0,0,0,0
1136,1765227299739,539,8665,-590,0,0,0,0,0
1137,1765227299858,212,8291,-451,0,0,0,0,0
1138,1765227300081,509,6986,-455,0,0,0,0,0
1139,1765227300154,-364,8144,-457,0,0,0,0,0
1140,1765227300239,-530,8300,-361,0,0,0,0,0
1141,1765227300448,357,6990,-206,0,0,0,0,0
1142,1765227300578,-814,8616,-871,0,0,0,0,0
1143,1765227300866,-1238,7190,-828,0,0,0,0,0
1144,1765227301083,-312,7995,-484,0,0,0,0,0
1145,1765227301203,-568,8970,-739,0,0,0,0,0
1146,1765227301587,-608,7960,-528,0,0,0,0,0
1147,1765227301810,-650,7743,-622,0,0,0,0,0
1148,1765227301914,-566,8494,-302,0,0,0,0,0
1149,1765227302094,-725,8079,-628,0,0,0,0,0
1150,1765227302281,-298,8569,-226,0,0,0,0,0
1151,1765227302551,-328,7532,-572,0,0,0,0,0
1152,1765227302648,-670,7794,-275,0,0,0,0,0
1153,1765227302715,-82,8238,-597,0,0,0,0,0
1154,1765227302788,-98,7478,-634,0,0,0,0,0
1155,1765227303006,-219,7586,-590,0,0,0,0,0
1156,1765227303138,-128,8238,-765,0,0,0,0,0
1157,1765227303466,-36,8704,-1122,0,0,0,0,0
1158,1765227304102,-46,8141,-1420,0,0,0,0,0
1159,1765227304120,-347,8135,-1535,0,0,0,0,0
1160,1765227304162,-311,8251,-1012,0,0,0,0,0
1161,1765227304216,48,8366,-494,0,0,0,0,0
1162,1765227304453,-119,8118,-761,0,0,0,0,0
1163,1765227304526,-506,7988,-784,0,0,0,0,0
1164,1765227304605,-876,7328,-648,0,0,0,0,0
1165,1765227304771,-911,7938,-1068,0,0,0,0,0
1166,1765227304904,-1374,8157,-771,0,0,0,0,0
1167,1765227305155,-1200,7816,-971,0,0,0,0,0
1168,1765227305303,-1487,8258,-868,0,0,0,0,0
1169,1765227305401,-1491,8447,-683,0,0,0,0,0
1170,1765227305598,-1310,7774,-779,0,0,0,0,0
1171,1765227306034,604,7730,-313,0,0,0,0,0
1172,1765227306142,920,9603,-536,0,0,0,0,0
1173,1765227306331,-619,8613,-1086,0,0,0,0,0
1174,1765227306478,-2461,7838,-1322,0,0,0,0,0
1175,1765227306748,-2095,5418,-758,0,0,0,0,0
1176,1765227306828,-3177,7599,-999,0,0,0,0,0
1177,1765227307048,-2590,9537,-1121,0,0,0,0,0
1178,1765227307087,-1094,7804,-534,0,0,0,0,0
1179,1765227307196,-2833,7704,-1332,0,0,0,0,0
1180,1765227307412,-1803,9160,-576,0,0,0,0,0
1181,1765227307648,-1036,10382,-376,0,0,0,0,0
1182,1765227307884,-2220,8307,-1134,0,0,0,0,0
1183,1765227307969,-2092,5974,-813,0,0,0,0,0
1184,1765227308179,-1667,8720,-606,0,0,0,0,0
1185,1765227308329,-650,7708,-752,0,0,0,0,0
1186,1765227308597,-1220,7906,-798,0,0,0,0,0
1187,1765227308677,-1676,8198,-830,0,0,0,0,0
1188,1765227308908,-1298,7685,-505,0,0,0,0,0
1189,1765227309037,-750,7705,-604,0,0,0,0,0
1190,1765227309358,-1050,8279,-456,0,0,0,0,0
1191,1765227309461,-675,8389,-615,0,0,0,0,0
1192,1765227309710,-423,7951,-508,0,0,0,0,0
1193,1765227309798,74,8201,1183,0,0,0,0,0
1194,1765227310063,-642,8883,944,0,0,0,0,0
1195,1765227310235,-872,8066,26,0,0,0,0,0
1196,1765227310461,-593,8139,274,0,0,0,0,0
1197,1765227310538,-780,8126,448,0,0,0,0,0
1198,1765227310985,-75,8729,-283,0,0,0,0,0
1199,1765227311222,-986,8178,-1324,0,0,0,0,0
1200,1765227311367,-479,7651,-310,0,0,0,0,0
1201,1765227311593,-106,7988,-258,0,0,0,0,0
1202,1765227311680,-138,7773,-756,0,0,0,0,0
1203,1765227311936,-234,8458,-391,0,0,0,0,0
1204,1765227312084,-132,8104,-591,0,0,0,0,0
1205,1765227312228,-472,8068,-560,0,0,0,0,0
1206,1765227312374,-300,8070,-796,0,0,0,0,0
1207,1765227312816,-478,8171,-346,0,0,0,0,0
1208,1765227312967,-337,8098,-78,0,0,0,0,0
1209,1765227313103,-529,8044,-246,0,0,0,0,0
1210,1765227313482,-388,8186,12,0,0,0,0,0
1211,1765227313623,-391,8144,-67,0,0,0,0,0
1212,1765227313813,-268,8174,-148,0,0,0,0,0
1213,1765227313952,-307,8205,-124,0,0,0,0,0
1214,1765227314173,-268,7682,-121,0,0,0,0,0
1215,1765227314374,-23,8310,-71,0,0,0,0,0
1216,1765227315016,-256,8125,114,0,0,0,0,0
1217,1765227315042,-362,8146,89,0,0,0,0,0
1218,1765227315075,-296,7956,15,0,0,0,0,0
1219,1765227315085,-122,8208,81,0,0,0,0,0
1220,1765227315366,-282,8095,98,0,0,0,0,0
1221,1765227315515,-223,8111,5,0,0,0,0,0
1222,1765227315668,-209,7930,-3,0,0,0,0,0
1223,1765227316102,-380,8116,-41,0,0,0,0,0
1224,1765227316223,-337,8087,-189,0,0,0,0,0
1225,1765227316397,-110,8154,-38,0,0,0,0,0
1226,1765227316523,-358,8248,-66,0,0,0,0,0
1227,1765227316689,-293,8027,-66,0,0,0,0,0
1228,1765227316865,-108,7867,-66,0,0,0,0,0
1229,1765227317238,-66,7751,-139,0,0,0,0,0
1230,1765227317339,-390,8257,-32,0,0,0,0,0
1231,1765227317532,-196,8150,80,0,0,0,0,0
1232,1765227317667,-388,8110,38,0,0,0,0,0
1233,1765227317971,-200,8388,150,0,0,0,0,0
1234,1765227318038,-449,7716,-121,0,0,0,0,0
1235,1765227318263,-509,8459,-82,0,0,0,0,0
1236,1765227318405,19,7898,1522,0,0,0,0,0
1237,1765227318579,-1328,8015,65,0,0,0,0,0
1238,1765227318733,1079,7848,2868,0,0,0,0,0
1239,1765227319106,-486,7424,663,0,0,0,0,0
1240,1765227319185,-1206,7802,-461,0,0,0,0,0
1241,1765227319469,-325,8745,869,0,0,0,0,0
1242,1765227319602,-1640,7672,110,0,0,0,0,0
1243,1765227319838,42,8126,1516,0,0,0,0,0
1244,1765227319916,-234,8732,146,0,0,0,0,0
1245,1765227320134,-135,7549,958,0,0,0,0,0
1246,1765227320267,-330,8032,1714,0,0,0,0,0
1247,1765227320407,-883,8868,-1259,0,0,0,0,0
1248,1765227320588,-75,7627,1596,0,0,0,0,0
1249,1765227320737,-379,7800,3116,0,0,0,0,0
1250,1765227320879,-1587,8753,646,0,0,0,0,0
1251,1765227321021,-775,7258,281,0,0,0,0,0
1252,1765227321323,-343,8898,1315,0,0,0,0,0
1253,1765227321456,-938,7692,1291,0,0,0,0,0
1254,1765227321539,-1602,8365,693,0,0,0,0,0
1255,1765227321749,-303,7756,1045,0,0,0,0,0
1256,1765227321889,-609,7934,1411,0,0,0,0,0
1257,1765227322030,-1027,8037,1023,0,0,0,0,0
1258,1765227322222,-1183,8424,870,0,0,0,0,0
1259,1765227322416,-922,7909,1429,0,0,0,0,0
1260,1765227322514,-392,8417,662,0,0,0,0,0
1261,1765227322655,-568,8148,727,0,0,0,0,0
1262,1765227322888,-540,8002,984,0,0,0,0,0
1263,1765227323105,-860,8196,1034,0,0,0,0,0
1264,1765227323247,-608,8673,374,0,0,0,0,0
1265,1765227323398,-174,7758,1023,0,0,0,0,0
1266,1765227323576,-348,8287,-266,0,0,0,0,0
1267,1765227323688,-976,8665,518,0,0,0,0,0
1268,1765227323969,-278,8667,-244,0,0,0,0,0
1269,1765227324130,-184,8223,-629,0,0,0,0,0
1270,1765227324264,-392,7131,-1246,0,0,0,0,0
1271,1765227324414,-286,8564,-682,0,0,0,0,0
1272,1765227324515,-662,8339,-1342,0,0,0,0,0
1273,1765227324590,434,8358,-1410,0,0,0,0,0
1274,1765227324887,194,8742,-733,0,0,0,0,0
1275,1765227324997,-144,8530,-735,0,0,0,0,0
1276,1765227325054,47,7978,-540,0,0,0,0,0
1277,1765227325254,876,8614,-558,0,0,0,0,0
1278,1765227325355,34,8674,-972,0,0,0,0,0
1279,1765227325916,42,7525,-449,0,0,0,0,0
1280,1765227325950,-92,7460,-582,0,0,0,0,0
1281,1765227325976,-815,7929,-941,0,0,0,0,0
1282,1765227326068,-17,8162,-837,0,0,0,0,0
1283,1765227326175,312,7723,-644,0,0,0,0,0
1284,1765227326419,101,7966,-608,0,0,0,0,0
1285,1765227326569,-77,8336,-702,0,0,0,0,0
1286,1765227326860,-9,8053,-961,0,0,0,0,0
1287,1765227327001,-14,8154,-1021,0,0,0,0,0
1288,1765227327144,-29,8083,-1012,0,0,0,0,0
1289,1765227327302,-79,8040,-1020,0,0,0,0,0
1290,1765227327477,-28,8074,-958,0,0,0,0,0
1291,1765227327519,-1,8178,-257,0,0,0,0,0
1292,1765227327736,31,8119,65,0,0,0,0,0
1293,1765227327895,7,8166,-112,0,0,0,0,0
1294,1765227328036,14,8106,-204,0,0,0,0,0
1295,1765227328160,-10,8128,-112,0,0,0,0,0
1296,1765227328478,20,8139,-174,0,0,0,0,0
1297,1765227328636,20,8151,-112,0,0,0,0,0
1298,1765227328827,3,8127,-133,0,0,0,0,0
1299,1765227328912,19,8120,-135,0,0,0,0,0
1300,1765227329143,7,8166,-152,0,0,0,0,0
1301,1765227329277,13,8131,-133,0,0,0,0,0
1302,1765227329436,24,8134,-116,0,0,0,0,0
1303,1765227329594,6,8138,-162,0,0,0,0,0
1304,1765227329760,8,8138,-161,0,0,0,0,0
1305,1765227329902,23,8142,-130,0,0,0,0,0
1306,1765227329952,7,8136,-139,0,0,0,0,0
1307,1765227330035,0,8133,-141,0,0,0,0,0
1308,1765227330344,20,8151,-119,0,0,0,0,0
1309,1765227330493,20,8146,-139,0,0,0,0,0
1310,1765227330653,12,8165,-144,0,0,0,0,0
1311,1765227330768,22,8109,-155,0,0,0,0,0
1312,1765227331027,8,8155,-120,0,0,0,0,0
1313,1765227331102,6,8138,-131,0,0,0,0,0
1314,1765227331177,9,8132,-148,0,0,0,0,0
1315,1765227331302,31,8145,-114,0,0,0,0,0
1316,1765227331477,6,8143,-127,0,0,0,0,0
1317,1765227331636,-3,8106,-187,0,0,0,0,0
1318,1765227331861,-67,8055,-108,0,0,0,0,0
1319,1765227332085,-7,8158,-252,0,0,0,0,0
1320,1765227332227,10,8128,-112,0,0,0,0,0
1321,1765227332428,14,8100,-101,0,0,0,0,0
1322,1765227332611,12,8165,-138,0,0,0,0,0
1323,1765227332768,7,8131,-129,0,0,0,0,0
1324,1765227332954,25,8142,-132,0,0,0,0,0
1325,1765227333086,15,8133,-152,0,0,0,0,0
1326,1765227333235,22,8137,-139,0,0,0,0,0
1327,1765227333377,8,8154,-119,0,0,0,0,0
1328,1765227333817,22,8144,-142,0,0,0,0,0
1329,1765227694131,32,8163,-133,0,0,0,0,0
1330,1765227694255,2,8116,-140,0,0,0,0,0
1331,1765227694422,246,8126,-154,0,0,0,0,0
1332,1765227694597,21,8127,-120,0,0,0,0,0
1333,1765227694723,-16,8141,-150,0,0,0,0,0
1334,1765227694914,-26,8135,-156,0,0,0,0,0
1335,1765227695038,16,8128,-129,0,0,0,0,0
1336,1765227695255,-6,8171,-131,0,0,0,0,0
1337,1765227695330,16,8126,-122,0,0,0,0,0
1338,1765227695706,14,8150,-142,0,0,0,0,0
1339,1765227695831,-28,8157,-140,0,0,0,0,0
1340,1765227695997,-7,8114,-130,0,0,0,0,0
1341,1765227696138,34,8147,-126,0,0,0,0,0
1342,1765227696414,-10,8150,-137,0,0,0,0,0
1343,1765227697047,6,8135,-138,0,0,0,0,0
1344,1765227697079,-12,8140,-118,0,0,0,0,0
1345,1765227697105,8,8156,-128,0,0,0,0,0
1346,1765227697145,12,8160,-134,0,0,0,0,0
1347,1765227697214,38,8104,-97,0,0,0,0,0
1348,1765227697666,-26,8146,-128,0,0,0,0,0
1349,1765227697866,26,8135,-132,0,0,0,0,0
1350,1765227697999,3,8161,-108,0,0,0,0,0
1351,1765227698259,-12,8186,-189,0,0,0,0,0
1352,1765227698358,26,8068,-119,0,0,0,0,0
1353,1765227698559,-22,8187,-137,0,0,0,0,0
1354,1765227698701,33,8125,-89,0,0,0,0,0
1355,1765227698783,-23,8124,-151,0,0,0,0,0
1356,1765227699048,43,8195,-117,0,0,0,0,0
1357,1765227699134,48,8104,-130,0,0,0,0,0
1358,1765227699266,7,8146,-140,0,0,0,0,0
1359,1765227699482,-2,8132,-143,0,0,0,0,0
1360,1765227699574,8,8138,-140,0,0,0,0,0
1361,1765227699899,3,8138,-128,0,0,0,0,0
1362,1765227700116,5,8155,-135,0,0,0,0,0
1363,1765227700258,6,8132,-125,0,0,0,0,0
1364,1765227700466,6,8153,-126,0,0,0,0,0
1365,1765227700667,5,8164,-124,0,0,0,0,0
1366,1765227700783,-4,8115,-131,0,0,0,0,0
1367,1765227700991,4,8136,-138,0,0,0,0,0
1368,1765227701032,-2,8140,-117,0,0,0,0,0
1369,1765227701173,9,8148,-125,0,0,0,0,0
1370,1765227701332,-3,8137,-125,0,0,0,0,0
1371,1765227701475,-2,8146,-129,0,0,0,0,0
1372,1765227701676,12,8130,-130,0,0,0,0,0
1373,1765227701967,6,8152,-118,0,0,0,0,0
1374,1765227702099,-11,8135,-124,0,0,0,0,0
1375,1765227702366,14,8150,-132,0,0,0,0,0
1376,1765227702458,7,8126,-129,0,0,0,0,0
1377,1765227702650,0,8146,-133,0,0,0,0,0
1378,1765227702782,8,8152,-130,0,0,0,0,0
1379,1765227702883,33,8138,-133,0,0,0,0,0
1380,1765227703073,2,8126,-155,0,0,0,0,0
1381,1765227703164,0,8177,-132,0,0,0,0,0
1382,1765227703349,-1,8100,-130,0,0,0,0,0
1383,1765227703584,16,8147,-134,0,0,0,0,0
1384,1765227703838,-3,8118,-138,0,0,0,0,0
1385,1765227703955,-14,8166,-122,0,0,0,0,0
1386,1765227704074,-4,8154,-129,0,0,0,0,0
1387,1765227704173,25,8141,-125,0,0,0,0,0
1388,1765227704357,0,8148,-142,0,0,0,0,0
1389,1765227704465,-18,8122,-152,0,0,0,0,0
1390,1765227704739,9,8138,-143,0,0,0,0,0
1391,1765227704840,8,8134,-139,0,0,0,0,0
1392,1765227705038,-7,8157,-130,0,0,0,0,0
1393,1765227705122,-9,8128,-128,0,0,0,0,0
1394,1765227705238,-6,8147,-133,0,0,0,0,0
1395,1765227705365,19,8130,-114,0,0,0,0,0
1396,1765227705606,3,8154,-150,0,0,0,0,0
1397,1765227705790,3,8138,-117,0,0,0,0,0
1398,1765227706015,2,8145,-134,0,0,0,0,0
1399,1765227706107,22,8143,-131,0,0,0,0,0
1400,1765227706306,-14,8145,-139,0,0,0,0,0
1401,1765227706690,14,8139,-117,0,0,0,0,0
1402,1765227706814,0,8133,-131,0,0,0,0,0
1403,1765227706967,-2,8149,-122,0,0,0,0,0
1404,1765227707189,-16,8142,-132,0,0,0,0,0
1405,1765227707289,5,8148,-135,0,0,0,0,0
1406,1765227707960,37,8128,-136,0,0,0,0,0
1407,1765227707996,12,8154,-130,0,0,0,0,0
1408,1765227708030,7,8141,-143,0,0,0,0,0
1409,1765227708064,2,8140,-127,0,0,0,0,0
1410,1765227708224,5,8148,-139,0,0,0,0,0
1411,1765227708499,16,8155,-133,0,0,0,0,0
1412,1765227708601,-5,8124,-134,0,0,0,0,0
1413,1765227708792,-17,8138,-126,0,0,0,0,0
1414,1765227708943,-11,8123,-143,0,0,0,0,0
1415,1765227709149,46,8168,-139,0,0,0,0,0
1416,1765227709375,-14,8128,-125,0,0,0,0,0
1417,1765227709583,13,8134,-127,0,0,0,0,0
1418,1765227709692,4,8131,-122,0,0,0,0,0
1419,1765227709934,1,8151,-128,0,0,0,0,0
1420,1765227710057,2,8138,-124,0,0,0,0,0
1421,1765227710083,4,8144,-131,0,0,0,0,0
1422,1765227710267,4,8132,-130,0,0,0,0,0
1423,1765227710409,11,8144,-146,0,0,0,0,0
1424,1765227710616,-9,8152,-133,0,0,0,0,0
1425,1765227710783,14,8152,-141,0,0,0,0,0
1426,1765227710859,13,8142,-132,0,0,0,0,0
1427,1765227711149,-6,8154,-107,0,0,0,0,0
1428,1765227711508,2,8174,-124,0,0,0,0,0
1429,1765227711575,-20,8169,-136,0,0,0,0,0
1430,1765227711841,13,8126,-144,0,0,0,0,0
1431,1765227711991,2,8098,-96,0,0,0,0,0
1432,1765227712200,-3,8177,-110,0,0,0,0,0
1433,1765227712291,24,8121,-126,0,0,0,0,0
1434,1765227712524,5,8137,-138,0,0,0,0,0
1435,1765227712682,22,8126,-110,0,0,0,0,0
1436,1765227712975,0,8164,-110,0,0,0,0,0
1437,1765227713066,2,8126,-128,0,0,0,0,0
1438,1765227713258,19,8196,-109,0,0,0,0,0
1439,1765227713425,17,8089,-112,0,0,0,0,0
1440,1765227713649,-32,8127,-137,0,0,0,0,0
1441,1765227713757,-3,8171,-148,0,0,0,0,0
1442,1765227713841,14,8137,-129,0,0,0,0,0
1443,1765227713925,29,8128,-133,0,0,0,0,0
1444,1765227714141,-2,8131,-114,0,0,0,0,0
1445,1765227714332,-21,8150,-134,0,0,0,0,0
1446,1765227714465,0,8126,-144,0,0,0,0,0
1447,1765227714640,-32,8151,-200,0,0,0,0,0
1448,1765227714874,26,8128,-122,0,0,0,0,0
1449,1765227714976,-1,8108,-147,0,0,0,0,0
1450,1765227715168,5,8099,-116,0,0,0,0,0
1451,1765227715324,30,8145,-152,0,0,0,0,0
1452,1765227715549,-18,8194,-152,0,0,0,0,0
1453,1765227715625,-16,8117,-121,0,0,0,0,0
1454,1765227715710,8,8166,-125,0,0,0,0,0
1455,1765227715844,-1,8116,-144,0,0,0,0,0
1456,1765227716041,-21,8155,-145,0,0,0,0,0
1457,1765227716465,-15,8140,-128,0,0,0,0,0
1458,1765227716633,-4,8158,-148,0,0,0,0,0
1459,1765227716756,2,8136,-126,0,0,0,0,0
1460,1765227717173,13,8158,-122,0,0,0,0,0
1461,1765227717273,3,8139,-128,0,0,0,0,0
1462,1765227717466,-2,8126,-142,0,0,0,0,0
1463,1765227717599,4,8158,-119,0,0,0,0,0
1464,1765227717907,-7,8157,-111,0,0,0,0,0
1465,1765227718006,6,8134,-128,0,0,0,0,0
1466,1765227718214,-1,8182,-122,0,0,0,0,0
1467,1765227718953,0,8099,-131,0,0,0,0,0
1468,1765227718994,3,8174,-135,0,0,0,0,0
1469,1765227719020,8,8152,-116,0,0,0,0,0
1470,1765227719062,20,8141,-130,0,0,0,0,0
1471,1765227719105,5,8137,-128,0,0,0,0,0
1472,1765227719238,-16,8154,-137,0,0,0,0,0
1473,1765227719439,20,8100,-120,0,0,0,0,0
1474,1765227719632,10,8180,-128,0,0,0,0,0
1475,1765227719797,-6,8122,-112,0,0,0,0,0
1476,1765227719973,16,8142,-143,0,0,0,0,0
1477,1765227720165,0,8188,-141,0,0,0,0,0
1478,1765227720247,-8,8166,-218,0,0,0,0,0
1479,1765227720497,-8,8106,-183,0,0,0,0,0
1480,1765227720614,36,8160,-162,0,0,0,0,0
1481,1765227720791,34,8172,-123,0,0,0,0,0
1482,1765227720930,10,8128,-154,0,0,0,0,0
1483,1765227721240,-23,8126,-168,0,0,0,0,0
1484,1765227721373,-12,8130,-132,0,0,0,0,0
1485,1765227721524,38,8130,-151,0,0,0,0,0
1486,1765227721681,-33,8180,-166,0,0,0,0,0
1487,1765227721888,-4,8094,-144,0,0,0,0,0
1488,1765227722062,60,8170,-118,0,0,0,0,0
1489,1765227722247,14,8134,-120,0,0,0,0,0
1490,1765227722397,-26,8144,-144,0,0,0,0,0
1491,1765227722572,-7,8167,-176,0,0,0,0,0
1492,1765227722788,64,8144,133,0,0,0,0,0
1493,1765227723072,14,8270,2978,0,0,0,0,0
1494,1765227723246,-122,9299,-350,0,0,0,0,0
1495,1765227723347,68,6936,448,0,0,0,0,0
1496,1765227723541,-89,8068,-704,0,0,0,0,0
1497,1765227723760,-105,8940,-553,0,0,0,0,0
1498,1765227723955,-32,7942,-76,0,0,0,0,0
1499,1765227724038,45,8207,596,0,0,0,0,0
1500,1765227724246,39,8238,665,0,0,0,0,0
1501,1765227724405,-78,7926,560,0,0,0,0,0
1502,1765227724689,175,7940,293,0,0,0,0,0
1503,1765227724855,-4,7996,498,0,0,0,0,0
1504,1765227725098,-223,8234,-51,0,0,0,0,0
1505,1765227725154,-38,8203,-289,0,0,0,0,0
1506,1765227725390,313,8051,102,0,0,0,0,0
1507,1765227725572,61,8561,-439,0,0,0,0,0
1508,1765227725804,-13,7739,-458,0,0,0,0,0
1509,1765227725880,-7,7951,-448,0,0,0,0,0
1510,1765227726096,-160,8234,-389,0,0,0,0,0
1511,1765227726540,63,8116,-48,0,0,0,0,0
1512,1765227726623,169,8218,515,0,0,0,0,0
1513,1765227726830,-26,8082,-85,0,0,0,0,0
1514,1765227726964,354,7962,691,0,0,0,0,0
1515,1765227727240,-4,8357,372,0,0,0,0,0
1516,1765227727297,-104,8112,421,0,0,0,0,0
1517,1765227727671,360,8451,610,0,0,0,0,0
1518,1765227727870,14,8522,478,0,0,0,0,0
1519,1765227728064,-228,8406,205,0,0,0,0,0
1520,1765227728338,-36,7994,520,0,0,0,0,0
1521,1765227728438,594,8572,369,0,0,0,0,0
1522,1765227728665,-30,8861,175,0,0,0,0,0
1523,1765227728821,-481,7078,73,0,0,0,0,0
1524,1765227729053,-854,8207,213,0,0,0,0,0
1525,1765227729149,-759,8448,-137,0,0,0,0,0
1526,1765227729823,-232,7476,-2,0,0,0,0,0
1527,1765227729853,-1000,7918,-274,0,0,0,0,0
1528,1765227729906,129,7693,459,0,0,0,0,0
1529,1765227729931,-767,9178,159,0,0,0,0,0
1530,1765227730112,-630,9286,92,0,0,0,0,0
1531,1765227730262,-642,8139,160,0,0,0,0,0
1532,1765227730444,139,7376,-101,0,0,0,0,0
1533,1765227730580,-1171,8432,-344,0,0,0,0,0
1534,1765227730728,-1056,8304,-1006,0,0,0,0,0
1535,1765227731061,-572,7794,-276,0,0,0,0,0
1536,1765227731494,-775,9095,-703,0,0,0,0,0
1537,1765227731669,-487,8189,-561,0,0,0,0,0
1538,1765227731836,-201,7579,-339,0,0,0,0,0
1539,1765227732011,-142,8604,96,0,0,0,0,0
1540,1765227732094,-580,7887,-784,0,0,0,0,0
1541,1765227732369,190,8065,-121,0,0,0,0,0
1542,1765227732478,-445,8754,-285,0,0,0,0,0
1543,1765227732619,11,8580,-1498,0,0,0,0,0
1544,1765227732796,-770,7530,-519,0,0,0,0,0
1545,1765227733102,-205,8448,-452,0,0,0,0,0
1546,1765227733252,499,8390,-1906,0,0,0,0,0
1547,1765227733377,-795,7224,2,0,0,0,0,0
1548,1765227733555,-650,8867,-2535,0,0,0,0,0
1549,1765227733720,783,8089,-1562,0,0,0,0,0
1550,1765227733919,-249,7723,-410,0,0,0,0,0
1551,1765227734052,-1142,8115,1474,0,0,0,0,0
1552,1765227734261,-23,8318,-3705,0,0,0,0,0
1553,1765227734402,854,7885,716,0,0,0,0,0
1554,1765227734553,771,9129,1005,0,0,0,0,0
1555,1765227734777,-1449,7860,-925,0,0,0,0,0
1556,1765227735144,-1324,8977,1172,0,0,0,0,0
1557,1765227735244,-1378,7989,598,0,0,0,0,0
1558,1765227735435,-770,8031,894,0,0,0,0,0
1559,1765227735619,-992,8331,615,0,0,0,0,0
1560,1765227735694,-198,8300,-330,0,0,0,0,0
1561,1765227735902,-305,8738,212,0,0,0,0,0
1562,1765227736060,-706,8284,-649,0,0,0,0,0
1563,1765227736194,-167,6787,-261,0,0,0,0,0
1564,1765227736327,-853,9310,28,0,0,0,0,0
1565,1765227736635,-56,7262,-653,0,0,0,0,0
1566,1765227736702,-885,7647,137,0,0,0,0,0
1567,1765227736852,-1321,7968,-906,0,0,0,0,0
1568,1765227737052,-738,6814,-108,0,0,0,0,0
1569,1765227737169,-586,8688,-766,0,0,0,0,0
1570,1765227737377,-1204,9286,-486,0,0,0,0,0
1571,1765227737477,-1052,9212,-24,0,0,0,0,0
1572,1765227737669,-79,7534,-132,0,0,0,0,0
1573,1765227737810,-490,7302,-184,0,0,0,0,0
1574,1765227738001,-1963,8897,-366,0,0,0,0,0
1575,1765227738127,-894,8260,-555,0,0,0,0,0
1576,1765227738277,-236,6790,-312,0,0,0,0,0
1577,1765227738545,-1006,6837,-430,0,0,0,0,0
1578,1765227738654,124,9329,-657,0,0,0,0,0
1579,1765227738736,179,9016,-612,0,0,0,0,0
1580,1765227738936,-412,7978,-626,0,0,0,0,0
1581,1765227739037,-424,8000,-285,0,0,0,0,0
1582,1765227739260,-1041,6617,-118,0,0,0,0,0
1583,1765227739379,505,8888,-678,0,0,0,0,0
1584,1765227739466,-228,8302,-787,0,0,0,0,0
1585,1765227739668,126,7323,-752,0,0,0,0,0
1586,1765227739781,-1244,7870,-838,0,0,0,0,0
1587,1765227740159,2063,7361,-650,0,0,0,0,0
1588,1765227740804,1708,8388,-650,0,0,0,0,0
1589,1765227740825,2275,6808,-1403,0,0,0,0,0
1590,1765227740851,1736,7984,-3952,0,0,0,0,0
1591,1765227740864,1343,8830,-4393,0,0,0,0,0
1592,1765227740897,625,6027,-4326,0,0,0,0,0
1593,1765227741001,884,8846,-3365,0,0,0,0,0
1594,1765227741251,-621,8065,-4860,0,0,0,0,0
1595,1765227741378,-719,7108,-4492,0,0,0,0,0
1596,1765227741527,-765,7969,-4690,0,0,0,0,0
1597,1765227741670,-826,7821,-4825,0,0,0,0,0
1598,1765227741745,-68,8301,-814,0,0,0,0,0
1599,1765227741826,324,7967,-261,0,0,0,0,0
1600,1765227742135,44,8013,-354,0,0,0,0,0
1601,1765227742243,224,8305,-406,0,0,0,0,0
1602,1765227742493,-94,8087,-837,0,0,0,0,0
1603,1765227742610,44,8107,-856,0,0,0,0,0
1604,1765227742777,68,8102,-778,0,0,0,0,0
1605,1765227742935,8,8106,-558,0,0,0,0,0
1606,1765227743051,2,8165,-548,0,0,0,0,0
1607,1765227743250,33,8102,-592,0,0,0,0,0
1608,1765227743351,25,8059,-661,0,0,0,0,0
1609,1765227743769,-10,8102,-694,0,0,0,0,0
1610,1765227744018,1,8116,-657,0,0,0,0,0
1611,1765227744102,40,8114,-616,0,0,0,0,0
1612,1765227744195,44,8111,-646,0,0,0,0,0
1613,1765227744303,36,8085,-670,0,0,0,0,0
1614,1765227744484,8,8124,-690,0,0,0,0,0
1615,1765227744659,8,8107,-698,0,0,0,0,0
1616,1765227744809,26,8108,-662,0,0,0,0,0
1617,1765227744935,32,8130,-654,0,0,0,0,0
1618,1765227745143,22,8095,-666,0,0,0,0,0
1619,1765227745226,22,8087,-666,0,0,0,0,0
1620,1765227745676,20,8072,-667,0,0,0,0,0
1621,1765227745909,4,8108,-674,0,0,0,0,0
1622,1765227745976,50,8115,-661,0,0,0,0,0
1623,1765227746050,51,8132,-687,0,0,0,0,0
1624,1765227746134,64,8074,-668,0,0,0,0,0
1625,1765227746376,-8,8152,-676,0,0,0,0,0
1626,1765227746543,33,8090,-665,0,0,0,0,0
1627,1765227746750,38,8128,-672,0,0,0,0,0
1628,1765227746818,17,8116,-684,0,0,0,0,0
1629,1765227747043,3,8099,-644,0,0,0,0,0
1630,1765227747492,26,8116,-682,0,0,0,0,0
1631,1765227747575,22,8083,-670,0,0,0,0,0
1632,1765227747784,-3,8108,-680,0,0,0,0,0
1633,1765227748150,48,8073,-641,0,0,0,0,0
1634,1765227748243,6,8121,-659,0,0,0,0,0
1635,1765227748476,4,8119,-696,0,0,0,0,0
1636,1765227748619,52,8120,-667,0,0,0,0,0
1637,1765227748686,-17,8098,-674,0,0,0,0,0
1638,1765227748991,68,8114,-672,0,0,0,0,0
1639,1765227749359,6,8112,-678,0,0,0,0,0
1640,1765227749426,30,8106,-637,0,0,0,0,0
1641,1765227749693,20,8119,-664,0,0,0,0,0
1642,1765227749816,14,8144,-651,0,0,0,0,0
1643,1765227750025,16,8090,-698,0,0,0,0,0
1644,1765227750118,37,8094,-696,0,0,0,0,0
1645,1765227750358,-3,8116,-648,0,0,0,0,0
1646,1765227750501,28,8062,-651,0,0,0,0,0
1647,1765227750808,6,8119,-656,0,0,0,0,0
1648,1765227750874,36,8147,-640,0,0,0,0,0
1649,1765227751050,-18,8126,-695,0,0,0,0,0
1650,1765227751775,33,8102,-646,0,0,0,0,0
1651,1765227751809,55,8116,-636,0,0,0,0,0
1652,1765227751842,8,8106,-637,0,0,0,0,0
1653,1765227751875,-18,8182,-666,0,0,0,0,0
1654,1765227751944,64,8045,-670,0,0,0,0,0
1655,1765227752019,85,8064,-678,0,0,0,0,0
1656,1765227752460,26,8193,-689,0,0,0,0,0
1657,1765227752693,52,8054,-734,0,0,0,0,0
1658,1765227752761,55,8034,-668,0,0,0,0,0
1659,1765227752964,21,8122,-663,0,0,0,0,0
1660,1765227753135,-5,8104,-677,0,0,0,0,0
1661,1765227753318,57,8076,-648,0,0,0,0,0
1662,1765227753435,40,8179,-681,0,0,0,0,0
1663,1765227753520,31,8128,-662,0,0,0,0,0
1664,1765227753611,30,8044,-652,0,0,0,0,0
1665,1765227753821,6,8146,-691,0,0,0,0,0
1666,1765227754111,36,8072,-669,0,0,0,0,0
1667,1765227754261,30,8140,-706,0,0,0,0,0
1668,1765227754351,46,8138,-681,0,0,0,0,0
1669,1765227754560,-22,8079,-687,0,0,0,0,0
1670,1765227754752,34,8117,-673,0,0,0,0,0
1671,1765227754963,265,8408,-127,0,0,0,0,0
1672,1765227755041,100,7112,50,0,0,0,0,0
1673,1765227755259,277,8393,308,0,0,0,0,0
1674,1765227755377,290,8300,340,0,0,0,0,0
1675,1765227755511,-166,8200,397,0,0,0,0,0
1676,1765227755752,-133,8012,406,0,0,0,0,0
1677,1765227755992,-52,8012,502,0,0,0,0,0
1678,1765227756143,1363,8520,922,0,0,0,0,0
1679,1765227756318,1113,8198,480,0,0,0,0,0
1680,1765227756468,1394,8195,653,0,0,0,0,0
1681,1765227756669,2068,9055,-246,0,0,0,0,0
1682,1765227756843,1055,6359,270,0,0,0,0,0
1683,1765227757036,2090,7072,599,0,0,0,0,0
1684,1765227757176,2245,9802,-321,0,0,0,0,0
1685,1765227757443,2284,8204,-313,0,0,0,0,0
1686,1765227757584,1790,8162,6,0,0,0,0,0
1687,1765227757801,2823,8445,135,0,0,0,0,0
1688,1765227757884,2325,7005,-485,0,0,0,0,0
1689,1765227757968,2404,7402,-245,0,0,0,0,0
1690,1765227758069,2693,7680,264,0,0,0,0,0
1691,1765227758293,2932,7918,-332,0,0,0,0,0
1692,1765227758467,2911,9334,-776,0,0,0,0,0
1693,1765227758669,2996,8066,-23,0,0,0,0,0
1694,1765227758787,3276,7360,-458,0,0,0,0,0
1695,1765227759035,2660,8383,-700,0,0,0,0,0
1696,1765227759267,3260,7732,-131,0,0,0,0,0
1697,1765227759434,2866,8205,-196,0,0,0,0,0
1698,1765227759620,2880,7734,-688,0,0,0,0,0
1699,1765227759826,2636,8861,-81,0,0,0,0,0
1700,1765227760026,1428,7914,2,0,0,0,0,0
1701,1765227760168,1635,7291,-32,0,0,0,0,0
1702,1765227760359,1503,9006,492,0,0,0,0,0
1703,1765227760551,1165,7166,100,0,0,0,0,0
1704,1765227760842,-581,9783,578,0,0,0,0,0
1705,1765227760909,768,7436,666,0,0,0,0,0
1706,1765227761118,-461,8068,239,0,0,0,0,0
1707,1765227761300,-649,7421,720,0,0,0,0,0
1708,1765227761543,22,8564,377,0,0,0,0,0
1709,1765227761711,-1164,7736,1152,0,0,0,0,0
1710,1765227761787,-1525,8019,-246,0,0,0,0,0
1711,1765227762000,-1204,7358,1030,0,0,0,0,0
1712,1765227762143,-2402,8246,-126,0,0,0,0,0
1713,1765227762755,-3519,6732,458,0,0,0,0,0
1714,1765227762803,-4348,9607,512,0,0,0,0,0
1715,1765227762829,-4093,8438,914,0,0,0,0,0
1716,1765227762921,-3768,7178,-666,0,0,0,0,0
1717,1765227763155,-4361,8521,100,0,0,0,0,0
1718,1765227763339,-3381,8254,-110,0,0,0,0,0
1719,1765227763489,-3921,6212,-288,0,0,0,0,0
1720,1765227763524,-4302,8320,-149,0,0,0,0,0
1721,1765227763624,-4287,7930,319,0,0,0,0,0
1722,1765227763853,-4018,6865,687,0,0,0,0,0
1723,1765227764006,-4136,7540,1213,0,0,0,0,0
1724,1765227764179,-2459,6180,1240,0,0,0,0,0
1725,1765227764347,-2901,5730,658,0,0,0,0,0
1726,1765227764589,-3666,8638,144,0,0,0,0,0
1727,1765227764656,-3009,4182,436,0,0,0,0,0
1728,1765227764863,-2556,7593,374,0,0,0,0,0
1729,1765227765054,-3902,7447,359,0,0,0,0,0
1730,1765227765262,-4366,6457,-655,0,0,0,0,0
1731,1765227765354,-4952,10259,-358,0,0,0,0,0
1732,1765227765539,-5954,8637,-47,0,0,0,0,0
1733,1765227765789,-1258,10164,1086,0,0,0,0,0
1734,1765227766164,-6246,6055,-1857,0,0,0,0,0
1735,1765227766270,-6912,9823,-1134,0,0,0,0,0
1736,1765227766453,-7760,7476,-1455,0,0,0,0,0
1737,1765227766771,2525,8362,-1662,0,0,0,0,0
1738,1765227767105,2488,8108,-600,0,0,0,0,0
1739,1765227767195,2708,7498,-1418,0,0,0,0,0
1740,1765227767329,1322,8625,-2730,0,0,0,0,0
1741,1765227767636,2163,9130,-3312,0,0,0,0,0
1742,1765227767686,572,9563,-3482,0,0,0,0,0
1743,1765227768053,-1760,9630,-106,0,0,0,0,0
1744,1765227768137,270,6750,-757,0,0,0,0,0
1745,1765227768379,-903,7620,-794,0,0,0,0,0
1746,1765227768632,-6086,8118,-2382,0,0,0,0,0
1747,1765227768947,-7115,9021,-1686,0,0,0,0,0
1748,1765227769229,-5553,7866,-1660,0,0,0,0,0
1749,1765227769530,-5445,7701,-1056,0,0,0,0,0
1750,1765227769604,-6864,5304,-1587,0,0,0,0,0
1751,1765227769929,-6273,8115,-1582,0,0,0,0,0
1752,1765227769996,-5428,8027,-309,0,0,0,0,0
1753,1765227770271,-5595,7622,-770,0,0,0,0,0
1754,1765227770379,-7882,8464,-1122,0,0,0,0,0
1755,1765227770462,-6748,7992,789,0,0,0,0,0
1756,1765227770670,-4329,6201,1039,0,0,0,0,0
1757,1765227770771,-4938,8755,-642,0,0,0,0,0
1758,1765227771180,-6384,7945,-138,0,0,0,0,0
1759,1765227771396,-6862,6594,-330,0,0,0,0,0
1760,1765227771471,-6808,7906,1172,0,0,0,0,0
1761,1765227771607,-5112,8626,202,0,0,0,0,0
1762,1765227771838,-5092,7590,798,0,0,0,0,0
1763,1765227772004,-4804,7218,1297,0,0,0,0,0
1764,1765227772179,-4249,7780,-304,0,0,0,0,0
1765,1765227772304,-1867,8958,1592,0,0,0,0,0
1766,1765227772455,-2698,6676,163,0,0,0,0,0
1767,1765227773004,3119,5946,-518,0,0,0,0,0
1768,1765227773096,5946,9986,126,0,0,0,0,0
1769,1765227773328,5765,6705,592,0,0,0,0,0
1770,1765227773388,5656,9518,56,0,0,0,0,0
1771,1765227773413,6215,7694,-948,0,0,0,0,0
1772,1765227774001,6190,7793,-1112,0,0,0,0,0
1773,1765227774049,6087,9345,-998,0,0,0,0,0
1774,1765227774069,7618,8177,-212,0,0,0,0,0
1775,1765227774203,4334,10278,-678,0,0,0,0,0
1776,1765227774313,2329,7777,-272,0,0,0,0,0
1777,1765227774571,1703,7380,-682,0,0,0,0,0
1778,1765227774697,2248,7236,1038,0,0,0,0,0
1779,1765227774912,2036,6224,544,0,0,0,0,0
1780,1765227774996,4007,9334,809,0,0,0,0,0
1781,1765227775355,4658,5896,-1059,0,0,0,0,0
1782,1765227775455,5283,8240,-727,0,0,0,0,0
1783,1765227775772,4357,9111,-1460,0,0,0,0,0
1784,1765227776055,3331,8130,-1505,0,0,0,0,0
1785,1765227776154,2612,8812,-1471,0,0,0,0,0
1786,1765227776463,1778,8055,-3660,0,0,0,0,0
1787,1765227776637,5842,9062,-1395,0,0,0,0,0
1788,1765227776805,6329,9357,-1664,0,0,0,0,0
1789,1765227776922,5850,8859,-2749,0,0,0,0,0
1790,1765227777340,5614,7286,-2572,0,0,0,0,0
1791,1765227777390,6076,7840,-3422,0,0,0,0,0
1792,1765227777620,7622,10146,-2027,0,0,0,0,0
1793,1765227777688,5342,9807,-4250,0,0,0,0,0
1794,1765227777705,8228,9895,-2765,0,0,0,0,0
1795,1765227777821,7664,8795,-2206,0,0,0,0,0
1796,1765227778037,6894,8347,-2003,0,0,0,0,0
1797,1765227778287,6172,7726,-2728,0,0,0,0,0
1798,1765227778495,-5834,8401,-1637,0,0,0,0,0
1799,1765227778573,-6744,7823,-1744,0,0,0,0,0
1800,1765227778804,-5559,5649,-1815,0,0,0,0,0
1801,1765227778955,-5632,7771,-814,0,0,0,0,0
1802,1765227779165,-7040,7904,-2220,0,0,0,0,0
1803,1765227779278,-5398,6115,-2138,0,0,0,0,0
1804,1765227779505,-6026,9101,-1164,0,0,0,0,0
1805,1765227779653,-304,7332,931,0,0,0,0,0
1806,1765227779754,2807,9744,1494,0,0,0,0,0
1807,1765227780029,3696,9195,784,0,0,0,0,0
1808,1765227780387,6872,9381,-1599,0,0,0,0,0
1809,1765227780521,6961,7728,-132,0,0,0,0,0
1810,1765227780737,5890,7699,-1130,0,0,0,0,0
1811,1765227780922,8380,9344,-3181,0,0,0,0,0
1812,1765227781103,5000,6152,-2850,0,0,0,0,0
1813,1765227781271,5570,6838,-2681,0,0,0,0,0
1814,1765227781505,5155,6468,-2717,0,0,0,0,0
1815,1765227781746,5924,5212,-1470,0,0,0,0,0
1816,1765227782236,3900,8353,-1935,0,0,0,0,0
1817,1765227782321,4192,5732,-1460,0,0,0,0,0
1818,1765227782562,4736,7584,-2180,0,0,0,0,0
1819,1765227782711,4892,7147,-184,0,0,0,0,0
1820,1765227782954,4542,8116,38,0,0,0,0,0
1821,1765227783403,4774,6498,-1023,0,0,0,0,0
1822,1765227783556,5246,8427,-436,0,0,0,0,0
1823,1765227783696,6370,9289,-487,0,0,0,0,0
1824,1765227783937,5218,8748,-1332,0,0,0,0,0
1825,1765227783953,5338,8259,-1898,0,0,0,0,0
1826,1765227784146,4638,7068,-2664,0,0,0,0,0
1827,1765227784379,5904,8375,-1840,0,0,0,0,0
1828,1765227784444,5301,8580,-1840,0,0,0,0,0
1829,1765227785085,-527,7230,-1454,0,0,0,0,0
1830,1765227785133,-2766,8497,-1394,0,0,0,0,0
1831,1765227785173,-5423,8083,-282,0,0,0,0,0
1832,1765227785264,-4725,6386,958,0,0,0,0,0
1833,1765227785508,-6685,9080,-205,0,0,0,0,0
1834,1765227785608,-4170,5347,-61,0,0,0,0,0
1835,1765227785924,-5036,5624,1484,0,0,0,0,0
1836,1765227785986,-5582,9154,758,0,0,0,0,0
1837,1765227786219,-4740,7919,1943,0,0,0,0,0
1838,1765227786335,-6385,8248,147,0,0,0,0,0
1839,1765227786652,-1870,7883,464,0,0,0,0,0
1840,1765227786819,-2190,9824,1344,0,0,0,0,0
1841,1765227786962,-3482,7098,198,0,0,0,0,0
1842,1765227787186,-2445,6996,193,0,0,0,0,0
1843,1765227787395,-2655,8628,1688,0,0,0,0,0
1844,1765227787620,-2852,8084,778,0,0,0,0,0
1845,1765227787694,-3652,5541,484,0,0,0,0,0
1846,1765227787778,-4990,-26340,19611,0,0,0,0,0
1847,1765227788002,-4468,6588,1046,0,0,0,0,0
1848,1765227788227,-4642,9534,-487,0,0,0,0,0
1849,1765227788469,-6216,8631,-1204,0,0,0,0,0
1850,1765227788537,-5703,5696,1118,0,0,0,0,0
1851,1765227788761,-1277,8060,1335,0,0,0,0,0
1852,1765227788962,-236,9871,950,0,0,0,0,0
1853,1765227789177,-3592,9595,287,0,0,0,0,0
1854,1765227789311,-4968,5608,-798,0,0,0,0,0
1855,1765227789477,-4890,8543,-711,0,0,0,0,0
1856,1765227789660,-6395,9780,-324,0,0,0,0,0
1857,1765227789936,-6912,8166,-2476,0,0,0,0,0
1858,1765227790178,-6858,8578,-806,0,0,0,0,0
1859,1765227790327,-6426,7385,-1134,0,0,0,0,0
1860,1765227790527,-8245,8848,-1279,0,0,0,0,0
1861,1765227790693,-7000,8435,-934,0,0,0,0,0
1862,1765227790953,974,11362,3294,0,0,0,0,0
1863,1765227791060,2433,7252,733,0,0,0,0,0
1864,1765227791301,5541,7794,-297,0,0,0,0,0
1865,1765227791819,7085,7727,-2913,0,0,0,0,0
1866,1765227792036,7072,8465,-2702,0,0,0,0,0
1867,1765227792185,1125,7166,-2868,0,0,0,0,0
1868,1765227792560,-103,10760,-864,0,0,0,0,0
1869,1765227792823,-3458,8274,-818,0,0,0,0,0
1870,1765227792904,-3176,7188,-1037,0,0,0,0,0
1871,1765227793227,-4948,9272,-1756,0,0,0,0,0
1872,1765227793376,-5772,7417,-1618,0,0,0,0,0
1873,1765227793604,-5972,9624,-299,0,0,0,0,0
1874,1765227793702,-5784,6414,-360,0,0,0,0,0
1875,1765227793902,-7975,6714,-812,0,0,0,0,0
1876,1765227794002,-2852,10363,-5962,0,0,0,0,0
1877,1765227794118,-3208,5100,-4816,0,0,0,0,0
1878,1765227794335,-4259,10547,-6116,0,0,0,0,0
1879,1765227794486,-8446,5436,-4650,0,0,0,0,0
1880,1765227794703,-3709,7771,-860,0,0,0,0,0
1881,1765227794802,-4834,8485,-1304,0,0,0,0,0
1882,1765227795067,-2974,7503,-1457,0,0,0,0,0
1883,1765227795452,-3154,7464,-1119,0,0,0,0,0
1884,1765227795552,-2742,8576,-886,0,0,0,0,0
1885,1765227796304,-3565,7618,-1320,0,0,0,0,0
1886,1765227796342,-2666,7833,-456,0,0,0,0,0
1887,1765227796387,-2588,7939,-842,0,0,0,0,0
1888,1765227796556,-3149,7958,-438,0,0,0,0,0
1889,1765227796840,-3228,8038,-976,0,0,0,0,0
1890,1765227797158,-684,8630,408,0,0,0,0,0
1891,1765227797577,-37,8707,646,0,0,0,0,0
1892,1765227797650,-683,7907,532,0,0,0,0,0
1893,1765227797884,-372,8227,136,0,0,0,0,0
1894,1765227798033,-538,7498,-126,0,0,0,0,0
1895,1765227798340,-578,9084,37,0,0,0,0,0
1896,1765227798483,802,8477,-70,0,0,0,0,0
1897,1765227798691,-24,9831,-67,0,0,0,0,0
1898,1765227798775,249,7776,868,0,0,0,0,0
1899,1765227799024,1215,7913,5,0,0,0,0,0
1900,1765227799193,1682,7418,-482,0,0,0,0,0
1901,1765227799409,658,8964,-10,0,0,0,0,0
1902,1765227799484,706,7639,-339,0,0,0,0,0
1903,1765227799741,672,7804,-369,0,0,0,0,0
1904,1765227799949,201,8322,283,0,0,0,0,0
1905,1765227800183,87,7794,-648,0,0,0,0,0
1906,1765227800333,-468,7894,-316,0,0,0,0,0
1907,1765227800549,205,8016,-268,0,0,0,0,0
1908,1765227800624,-73,8396,-100,0,0,0,0,0
1909,1765227801023,874,8402,-11,0,0,0,0,0
1910,1765227801223,-71,7602,-6,0,0,0,0,0
1911,1765227801324,-297,7926,147,0,0,0,0,0
1912,1765227801775,466,8280,236,0,0,0,0,0
1913,1765227802067,753,7564,-138,0,0,0,0,0
1914,1765227802141,610,8368,391,0,0,0,0,0
1915,1765227802241,695,8554,311,0,0,0,0,0
1916,1765227802482,954,8308,-766,0,0,0,0,0
1917,1765227802640,521,8764,-35,0,0,0,0,0
1918,1765227802873,1591,8422,299,0,0,0,0,0
1919,1765227802941,1675,8305,-166,0,0,0,0,0
1920,1765227803157,549,8000,-848,0,0,0,0,0
1921,1765227803611,1154,7734,248,0,0,0,0,0
1922,1765227803696,642,8612,172,0,0,0,0,0
1923,1765227803911,138,8132,476,0,0,0,0,0
1924,1765227804026,52,7880,-249,0,0,0,0,0
1925,1765227804231,1010,8130,322,0,0,0,0,0
1926,1765227804354,300,8914,-80,0,0,0,0,0
1927,1765227804560,850,7860,-780,0,0,0,0,0
1928,1765227804640,491,8250,604,0,0,0,0,0
1929,1765227804703,373,7740,-324,0,0,0,0,0
1930,1765227804780,1174,9098,-536,0,0,0,0,0
1931,1765227805082,683,9556,-1291,0,0,0,0,0
1932,1765227805424,1064,8173,-91,0,0,0,0,0
1933,1765227805515,-451,8180,262,0,0,0,0,0
1934,1765227805740,1394,7270,-862,0,0,0,0,0
1935,1765227805890,-250,7026,-404,0,0,0,0,0
1936,1765227806032,120,7933,-410,0,0,0,0,0
1937,1765227806232,-7,9138,-292,0,0,0,0,0
1938,1765227806366,-1022,7850,-564,0,0,0,0,0
1939,1765227806548,104,7276,100,0,0,0,0,0
1940,1765227806683,167,8432,1034,0,0,0,0,0
1941,1765227807674,476,7608,-101,0,0,0,0,0
1942,1765227807715,-798,8424,-408,0,0,0,0,0
1943,1765227807741,989,9209,-76,0,0,0,0,0
1944,1765227807767,970,7170,-614,0,0,0,0,0
1945,1765227808008,782,8248,-1037,0,0,0,0,0
1946,1765227808149,769,8981,-522,0,0,0,0,0
1947,1765227808407,244,7060,-920,0,0,0,0,0
1948,1765227808640,72,7775,-706,0,0,0,0,0
1949,1765227808882,1003,8119,-743,0,0,0,0,0
1950,1765227808986,964,9106,-1467,0,0,0,0,0
1951,1765227809064,1087,7204,-649,0,0,0,0,0
1952,1765227809290,1144,8125,-893,0,0,0,0,0
1953,1765227809424,233,8222,-894,0,0,0,0,0
1954,1765227809692,887,8522,-1035,0,0,0,0,0
1955,1765227809800,1016,8961,-924,0,0,0,0,0
1956,1765227809990,1116,7588,-928,0,0,0,0,0
1957,1765227810098,1315,7734,-952,0,0,0,0,0
1958,1765227810215,3410,8468,-1586,0,0,0,0,0
1959,1765227810415,3546,8082,-1290,0,0,0,0,0
1960,1765227810574,2522,7362,-1589,0,0,0,0,0
1961,1765227810724,2013,8148,-1277,0,0,0,0,0
1962,1765227810974,2654,8968,-2028,0,0,0,0,0
1963,1765227811050,3058,8704,-1516,0,0,0,0,0
1964,1765227811315,2463,9241,-1326,0,0,0,0,0
1965,1765227811490,1084,8023,-3290,0,0,0,0,0
1966,1765227811673,1367,8286,-2915,0,0,0,0,0
1967,1765227811784,1157,7758,-3638,0,0,0,0,0
1968,1765227811973,929,7658,-2670,0,0,0,0,0
1969,1765227812016,-209,8122,-1562,0,0,0,0,0
1970,1765227812266,119,7808,-531,0,0,0,0,0
1971,1765227812508,474,8287,-697,0,0,0,0,0
1972,1765227812640,-267,7618,-654,0,0,0,0,0
1973,1765227812799,-468,7598,-1169,0,0,0,0,0
1974,1765227812932,-180,8234,-298,0,0,0,0,0
1975,1765227813205,-502,8102,-808,0,0,0,0,0
1976,1765227813349,-1021,8553,-734,0,0,0,0,0
1977,1765227813558,-230,8144,-420,0,0,0,0,0
1978,1765227813641,-532,8202,-770,0,0,0,0,0
1979,1765227814043,-1375,7905,-1341,0,0,0,0,0
1980,1765227814126,-1758,8510,-1827,0,0,0,0,0
1981,1765227814340,-1519,7634,-661,0,0,0,0,0
1982,1765227814524,-872,7354,-738,0,0,0,0,0
1983,1765227814766,-1158,9300,-1844,0,0,0,0,0
1984,1765227814975,-1486,7881,-1090,0,0,0,0,0
1985,1765227815066,-570,7920,-2114,0,0,0,0,0
1986,1765227815149,-1650,8996,-1518,0,0,0,0,0
1987,1765227815390,-676,8299,-1128,0,0,0,0,0
1988,1765227815615,-772,7730,-615,0,0,0,0,0
1989,1765227815850,-1074,7433,674,0,0,0,0,0
1990,1765227815990,140,9470,-1445,0,0,0,0,0
1991,1765227816139,-111,7021,1292,0,0,0,0,0
1992,1765227816558,262,8275,592,0,0,0,0,0
1993,1765227816757,-470,8250,-77,0,0,0,0,0
1994,1765227816856,-802,7832,-136,0,0,0,0,0
1995,1765227817241,-5,9961,480,0,0,0,0,0
1996,1765227817289,-1526,6984,-1002,0,0,0,0,0
1997,1765227817532,-197,7580,506,0,0,0,0,0
1998,1765227817665,-452,9066,30,0,0,0,0,0
1999,1765227817899,578,7078,-400,0,0,0,0,0
2000,1765227818609,1083,8111,152,0,0,0,0,0
2001,1765227818643,-675,9824,-613,0,0,0,0,0
2002,1765227818675,1557,8214,-126,0,0,0,0,0
2003,1765227818734,90,8202,-478,0,0,0,0,0
2004,1765227818860,1697,7470,-483,0,0,0,0,0
2005,1765227819060,2293,8262,-978,0,0,0,0,0
2006,1765227819191,2589,8562,-1054,0,0,0,0,0
2007,1765227819368,1634,7542,-1350,0,0,0,0,0
2008,1765227819763,2601,9452,-1038,0,0,0,0,0
2009,1765227819874,2231,9516,-1400,0,0,0,0,0
2010,1765227820058,2112,8377,-322,0,0,0,0,0
2011,1765227820524,2646,8088,-932,0,0,0,0,0
2012,1765227820716,2696,7175,-1413,0,0,0,0,0
2013,1765227820890,3235,8488,-1073,0,0,0,0,0
2014,1765227821016,2989,7832,-670,0,0,0,0,0
2015,1765227821215,2347,8920,-1992,0,0,0,0,0
2016,1765227821450,2866,8332,-1542,0,0,0,0,0
2017,1765227821602,2021,9060,-1156,0,0,0,0,0
2018,1765227821742,2306,7782,-1038,0,0,0,0,0
2019,1765227821940,2031,7132,-1369,0,0,0,0,0
2020,1765227822199,1138,-16988,-9092,0,0,0,0,0
2021,1765227822358,1468,8306,-1040,0,0,0,0,0
2022,1765227822573,1402,8073,-950,0,0,0,0,0
2023,1765227822658,1397,7926,-1012,0,0,0,0,0
2024,1765227822732,1095,8202,-950,0,0,0,0,0
2025,1765227822832,139,8274,30,0,0,0,0,0
2026,1765227823075,1018,8510,-704,0,0,0,0,0
2027,1765227823251,1116,7939,-1600,0,0,0,0,0
2028,1765227823459,-738,8437,-2565,0,0,0,0,0
2029,1765227823569,764,7653,-594,0,0,0,0,0
2030,1765227823833,-1146,9685,-1363,0,0,0,0,0
2031,1765227824101,-1751,7912,-242,0,0,0,0,0
2032,1765227824208,858,8860,-2445,0,0,0,0,0
2033,1765227824443,1276,7580,3425,0,0,0,0,0
2034,1765227824575,-2360,7767,-44,0,0,0,0,0
2035,1765227824632,742,8388,758,0,0,0,0,0
2036,1765227824860,782,8258,892,0,0,0,0,0
2037,1765227824926,727,8114,944,0,0,0,0,0
2038,1765227825166,966,8365,848,0,0,0,0,0
2039,1765227825426,1021,7992,1091,0,0,0,0,0
2040,1765227825616,1079,9036,1030,0,0,0,0,0
2041,1765227825799,1064,8598,-32,0,0,0,0,0
2042,1765227826008,1074,7777,-12,0,0,0,0,0
2043,1765227826116,1560,7592,174,0,0,0,0,0
2044,1765227826341,1275,9192,-6,0,0,0,0,0
2045,1765227826441,694,8718,-229,0,0,0,0,0
2046,1765227826499,-357,8510,76,0,0,0,0,0
2047,1765227826733,-1041,8870,261,0,0,0,0,0
2048,1765227826882,-950,8177,278,0,0,0,0,0
2049,1765227827166,-974,8424,286,0,0,0,0,0
2050,1765227827325,-1484,7860,452,0,0,0,0,0
2051,1765227827500,-1472,8812,278,0,0,0,0,0
2052,1765227827708,-1954,7307,616,0,0,0,0,0
2053,1765227827899,-3727,8288,-608,0,0,0,0,0
2054,1765227828134,-3513,8756,-513,0,0,0,0,0
2055,1765227828234,-3842,7743,-1132,0,0,0,0,0
2056,1765227828518,-3106,7062,-800,0,0,0,0,0
2057,1765227828627,-2915,8272,-33,0,0,0,0,0
2058,1765227828937,-2658,9189,97,0,0,0,0,0
2059,1765227829007,-128,8410,769,0,0,0,0,0
2060,1765227829084,612,8731,806,0,0,0,0,0
2061,1765227829747,-16,7192,984,0,0,0,0,0
2062,1765227829768,220,8856,168,0,0,0,0,0
2063,1765227829813,-783,7268,51,0,0,0,0,0
2064,1765227829830,-189,9000,-114,0,0,0,0,0
2065,1765227830167,-312,7508,-167,0,0,0,0,0
2066,1765227830499,-1043,8026,430,0,0,0,0,0
2067,1765227830701,-1630,8113,36,0,0,0,0,0
2068,1765227830795,-2400,8241,-828,0,0,0,0,0
2069,1765227830883,-3542,8655,66,0,0,0,0,0
2070,1765227831056,-2366,7562,888,0,0,0,0,0
2071,1765227831175,-1856,8368,-280,0,0,0,0,0
2072,1765227831449,-1862,8697,1083,0,0,0,0,0
2073,1765227831592,-1800,7018,-21,0,0,0,0,0
2074,1765227831774,-2435,7537,938,0,0,0,0,0
2075,1765227831883,-2230,6826,-398,0,0,0,0,0
2076,1765227832225,-2234,8060,-153,0,0,0,0,0
2077,1765227832332,-2519,7331,388,0,0,0,0,0
2078,1765227832558,-3030,8095,-613,0,0,0,0,0
2079,1765227832648,-2981,7398,84,0,0,0,0,0
2080,1765227832907,-3855,7988,-827,0,0,0,0,0
2081,1765227833043,-4608,7967,194,0,0,0,0,0
2082,1765227833274,-4380,8162,-265,0,0,0,0,0
2083,1765227833433,-4076,7127,-29,0,0,0,0,0
2084,1765227833676,-3476,7785,921,0,0,0,0,0
2085,1765227833929,-4302,8594,820,0,0,0,0,0
2086,1765227834110,-3756,7610,994,0,0,0,0,0
2087,1765227834234,-3788,8579,143,0,0,0,0,0
2088,1765227834408,-3076,6883,2025,0,0,0,0,0
2089,1765227834825,-3686,7576,-147,0,0,0,0,0
2090,1765227834952,-3143,8333,1604,0,0,0,0,0
2091,1765227835115,-1933,9369,1131,0,0,0,0,0
2092,1765227835566,-1308,8582,-794,0,0,0,0,0
2093,1765227835708,-2154,4893,-3656,0,0,0,0,0
2094,1765227835865,-316,10386,-3562,0,0,0,0,0
2095,1765227835991,192,9437,-1373,0,0,0,0,0
2096,1765227836190,1703,7468,-612,0,0,0,0,0
2097,1765227836324,2880,7927,-388,0,0,0,0,0
2098,1765227836524,8383,8624,-1008,0,0,0,0,0
2099,1765227836690,6066,7014,-2974,0,0,0,0,0
2100,1765227836841,8022,9737,-1294,0,0,0,0,0
2101,1765227837065,7882,10282,-1468,0,0,0,0,0
2102,1765227837224,6184,7510,-2534,0,0,0,0,0
2103,1765227837732,5854,5072,-3450,0,0,0,0,0
2104,1765227837765,6122,8562,-3073,0,0,0,0,0
2105,1765227837858,7547,9346,-2013,0,0,0,0,0
2106,1765227838149,5848,7063,-1604,0,0,0,0,0
2107,1765227838674,5294,7591,-1868,0,0,0,0,0
2108,1765227838941,4554,8368,-2203,0,0,0,0,0
2109,1765227839064,3712,7804,-1228,0,0,0,0,0
2110,1765227839290,3866,7336,-621,0,0,0,0,0
2111,1765227839374,3634,9884,-588,0,0,0,0,0
2112,1765227839715,2470,8638,879,0,0,0,0,0
2113,1765227839923,2754,7930,540,0,0,0,0,0
2114,1765227840065,1751,7663,1279,0,0,0,0,0
2115,1765227840408,-2816,8062,356,0,0,0,0,0
2116,1765227841120,-4036,7671,353,0,0,0,0,0
2117,1765227841156,-3268,9038,1272,0,0,0,0,0
2118,1765227841191,-2754,10054,305,0,0,0,0,0
2119,1765227841221,-2239,7647,1976,0,0,0,0,0
2120,1765227841661,5028,9244,244,0,0,0,0,0
2121,1765227841726,4946,7520,-558,0,0,0,0,0
2122,1765227841955,6724,9804,792,0,0,0,0,0
2123,1765227842097,4288,10681,309,0,0,0,0,0
2124,1765227842241,4345,6861,196,0,0,0,0,0
2125,1765227842460,4725,8141,-290,0,0,0,0,0
2126,1765227842841,3240,6448,90,0,0,0,0,0
2127,1765227842981,5617,7600,855,0,0,0,0,0
2128,1765227843180,3067,8297,838,0,0,0,0,0
2129,1765227843559,3137,7270,-1397,0,0,0,0,0
2130,1765227843631,3818,7823,-1364,0,0,0,0,0
2131,1765227843856,2723,7822,-1261,0,0,0,0,0
2132,1765227843998,4460,8713,-233,0,0,0,0,0
2133,1765227844260,3260,7040,-1544,0,0,0,0,0
2134,1765227844365,4811,8427,-238,0,0,0,0,0
2135,1765227844735,3099,8242,-3211,0,0,0,0,0
2136,1765227844802,2964,6690,-3332,0,0,0,0,0
2137,1765227845072,3038,7350,-2918,0,0,0,0,0
2138,1765227845208,1550,8152,-4169,0,0,0,0,0
2139,1765227845305,1795,7826,-3871,0,0,0,0,0
2140,1765227845498,640,6541,-3492,0,0,0,0,0
2141,1765227845597,1688,7328,-3500,0,0,0,0,0
2142,1765227845957,644,6742,-1734,0,0,0,0,0
2143,1765227846166,411,8375,-1617,0,0,0,0,0
2144,1765227846299,97,8252,14237,0,0,0,0,0
2145,1765227846431,960,7289,-1483,0,0,0,0,0
2146,1765227846642,324,9456,-1902,0,0,0,0,0
2147,1765227846767,820,8032,-1603,0,0,0,0,0
2148,1765227847119,510,8534,-1930,0,0,0,0,0
2149,1765227847196,1365,7976,-2693,0,0,0,0,0
2150,1765227847435,819,6498,-3001,0,0,0,0,0
2151,1765227847905,-549,8345,-2830,0,0,0,0,0
2152,1765227848080,-332,6986,-2644,0,0,0,0,0
2153,1765227848198,-70,8452,-2788,0,0,0,0,0
2154,1765227848294,-236,7875,-2925,0,0,0,0,0
2155,1765227848455,-378,7991,-2927,0,0,0,0,0
2156,1765227848631,-113,7860,-2908,0,0,0,0,0
2157,1765227848908,-626,8519,-1969,0,0,0,0,0
2158,1765227849026,101,7733,-488,0,0,0,0,0
2159,1765227849272,-143,8333,-539,0,0,0,0,0
2160,1765227849498,-136,8110,-755,0,0,0,0,0
2161,1765227849741,-60,8149,-624,0,0,0,0,0
2162,1765227849894,-48,8097,-780,0,0,0,0,0
2163,1765227850031,-100,8111,-822,0,0,0,0,0
2164,1765227850130,-129,8044,-762,0,0,0,0,0
2165,1765227850306,-79,8160,-782,0,0,0,0,0
2166,1765227850469,-82,8074,-759,0,0,0,0,0
2167,1765227850706,-109,8128,-719,0,0,0,0,0
2168,1765227850867,-100,8130,-746,0,0,0,0,0
2169,1765227851172,-87,8084,-782,0,0,0,0,0
2170,1765227851294,-104,8086,-740,0,0,0,0,0
2171,1765227852100,-94,8082,-744,0,0,0,0,0
2172,1765227852118,-93,8076,-728,0,0,0,0,0
2173,1765227852175,-107,8125,-772,0,0,0,0,0
2174,1765227852233,-99,8106,-761,0,0,0,0,0
2175,1765227852303,-108,8084,-741,0,0,0,0,0
2176,1765227852534,-96,8121,-755,0,0,0,0,0
2177,1765227852772,-91,8075,-738,0,0,0,0,0
2178,1765227853017,-91,8078,-755,0,0,0,0,0
2179,1765227853155,-99,8092,-755,0,0,0,0,0
2180,1765227853386,-96,8088,-741,0,0,0,0,0
2181,1765227853486,-96,8115,-754,0,0,0,0,0
2182,1765227853728,-86,8082,-741,0,0,0,0,0
2183,1765227853910,-98,8106,-744,0,0,0,0,0
2184,1765227854111,-114,8087,-768,0,0,0,0,0
2185,1765227854429,-90,8107,-749,0,0,0,0,0
2186,1765227854577,-98,8112,-739,0,0,0,0,0
2187,1765227854818,-95,8098,-774,0,0,0,0,0
2188,1765227854893,-90,8071,-743,0,0,0,0,0
2189,1765227855219,-90,8098,-762,0,0,0,0,0
2190,1765227855352,-74,8096,-758,0,0,0,0,0
2191,1765227855568,-122,8079,-754,0,0,0,0,0
2192,1765227855726,-99,8128,-738,0,0,0,0,0
2193,1765227855968,-87,8074,-723,0,0,0,0,0
2194,1765227856287,-112,8118,-793,0,0,0,0,0
2195,1765227856435,-82,8092,-754,0,0,0,0,0
2196,1765227856630,-47,8123,-740,0,0,0,0,0
2197,1765227856737,-134,8119,-760,0,0,0,0,0
2198,1765227857052,-75,8099,-766,0,0,0,0,0
2199,1765227857177,-106,8116,-750,0,0,0,0,0
2200,1765227857418,-127,8106,-734,0,0,0,0,0
2201,1765227857486,-85,8103,-756,0,0,0,0,0
2202,1765227859959,4,8018,-715,0,0,0,0,0
2203,1765227860084,-8,8192,-673,0,0,0,0,0
2204,1765227860250,-177,8026,-753,0,0,0,0,0
2205,1765227860426,-34,8086,-730,0,0,0,0,0
2206,1765227860551,-81,8144,-850,0,0,0,0,0
2207,1765227860752,-126,8065,-891,0,0,0,0,0
2208,1765227860860,-72,8106,-736,0,0,0,0,0
2209,1765227861085,-87,8090,-671,0,0,0,0,0
2210,1765227861159,-122,8123,-739,0,0,0,0,0
2211,1765227861534,-93,8078,-753,0,0,0,0,0
2212,1765227861712,-105,8165,-823,0,0,0,0,0
2213,1765227861827,-85,8000,-684,0,0,0,0,0
2214,1765227861993,-94,8213,-729,0,0,0,0,0
2215,1765227862276,-123,8021,-761,0,0,0,0,0
2216,1765227862467,-52,8056,-740,0,0,0,0,0
2217,1765227862634,-70,8046,-693,0,0,0,0,0
2218,1765227862718,-146,8097,-778,0,0,0,0,0
2219,1765227862942,-85,8156,-772,0,0,0,0,0
2220,1765227863118,-77,8020,-760,0,0,0,0,0
2221,1765227863319,-97,8161,-718,0,0,0,0,0
2222,1765227863400,-117,8044,-770,0,0,0,0,0
2223,1765227863639,-64,8154,-778,0,0,0,0,0
2224,1765227863845,-86,8087,-738,0,0,0,0,0
2225,1765227863976,-133,8105,-762,0,0,0,0,0
2226,1765227864146,-132,8078,-760,0,0,0,0,0
2227,1765227864350,-62,8102,-767,0,0,0,0,0
2228,1765227864495,-80,8110,-759,0,0,0,0,0
2229,1765227864576,-100,8082,-745,0,0,0,0,0
2230,1765227865284,-105,8094,-760,0,0,0,0,0
2231,1765227865314,-81,8083,-759,0,0,0,0,0
2232,1765227865361,-95,8097,-742,0,0,0,0,0
2233,1765227865380,-98,8098,-775,0,0,0,0,0
2234,1765227865524,-96,8113,-738,0,0,0,0,0
2235,1765227865949,-91,8089,-720,0,0,0,0,0
2236,1765227866031,-98,8140,-724,0,0,0,0,0
2237,1765227866264,-104,8076,-792,0,0,0,0,0
2238,1765227866407,-94,8102,-746,0,0,0,0,0
2239,1765227866481,-94,8121,-757,0,0,0,0,0
2240,1765227866748,-122,8085,-769,0,0,0,0,0
2241,1765227866857,-92,8083,-776,0,0,0,0,0
2242,1765227867005,-124,8116,-756,0,0,0,0,0
2243,1765227867174,-102,8098,-747,0,0,0,0,0
2244,1765227867457,-62,8092,-765,0,0,0,0,0
2245,1765227867674,-110,8081,-757,0,0,0,0,0
2246,1765227867882,-98,8084,-747,0,0,0,0,0
2247,1765227867964,-77,8134,-761,0,0,0,0,0
2248,1765227868340,-103,8085,-758,0,0,0,0,0
2249,1765227868465,-120,8110,-731,0,0,0,0,0
2250,1765227868682,-87,8092,-768,0,0,0,0,0
2251,1765227868808,-109,8084,-754,0,0,0,0,0
2252,1765227868924,-62,8116,-762,0,0,0,0,0
2253,1765227869107,-105,8102,-760,0,0,0,0,0
2254,1765227869596,-93,8098,-748,0,0,0,0,0
2255,1765227869715,-111,8118,-743,0,0,0,0,0
2256,1765227869890,-99,8081,-761,0,0,0,0,0
2257,1765227869998,-105,8063,-756,0,0,0,0,0
2258,1765227870065,-90,8110,-749,0,0,0,0,0
2259,1765227870340,-106,8114,-768,0,0,0,0,0
2260,1765227870415,-92,8084,-768,0,0,0,0,0
2261,1765227870698,-97,8118,-760,0,0,0,0,0
2262,1765227870797,-96,8095,-756,0,0,0,0,0
2263,1765227871106,-90,8086,-754,0,0,0,0,0
2264,1765227871298,-94,8098,-784,0,0,0,0,0
2265,1765227871532,-91,8082,-735,0,0,0,0,0
2266,1765227871600,-108,8122,-747,0,0,0,0,0
2267,1765227871856,-94,8098,-764,0,0,0,0,0
2268,1765227871998,-121,8091,-753,0,0,0,0,0
2269,1765227872188,-83,8105,-734,0,0,0,0,0
2270,1765227872314,-86,8094,-772,0,0,0,0,0
2271,1765227872439,-109,8087,-738,0,0,0,0,0
2272,1765227872548,-40,8134,-771,0,0,0,0,0
2273,1765227872731,-97,8092,-741,0,0,0,0,0
2274,1765227872949,-137,8066,-738,0,0,0,0,0
2275,1765227873214,-74,8082,-755,0,0,0,0,0
2276,1765227873322,-96,8107,-762,0,0,0,0,0
2277,1765227873506,-103,8096,-737,0,0,0,0,0
2278,1765227873620,-106,8080,-779,0,0,0,0,0
2279,1765227873708,-116,8114,-769,0,0,0,0,0
2280,1765227873945,-86,8094,-744,0,0,0,0,0
2281,1765227874023,-87,8100,-741,0,0,0,0,0
2282,1765227874306,-108,8106,-768,0,0,0,0,0
2283,1765227874414,-85,8083,-751,0,0,0,0,0
2284,1765227874589,-92,8080,-751,0,0,0,0,0
2285,1765227874856,-104,8101,-768,0,0,0,0,0
2286,1765227875063,-86,8079,-758,0,0,0,0,0
2287,1765227875194,-110,8096,-746,0,0,0,0,0
2288,1765227875355,-102,8101,-764,0,0,0,0,0
2289,1765227875598,-88,8095,-748,0,0,0,0,0
2290,1765227876206,-100,8090,-741,0,0,0,0,0
2291,1765227876230,-98,8094,-764,0,0,0,0,0
2292,1765227876243,-94,8107,-754,0,0,0,0,0
2293,1765227876262,-84,8080,-755,0,0,0,0,0
2294,1765227876295,-106,8093,-745,0,0,0,0,0
2295,1765227876396,-105,8099,-752,0,0,0,0,0
2296,1765227876865,-104,8110,-743,0,0,0,0,0
2297,1765227877039,-100,8111,-772,0,0,0,0,0
2298,1765227877157,-86,8076,-755,0,0,0,0,0
2299,1765227877256,-93,8098,-748,0,0,0,0,0
2300,1765227877356,-100,8093,-750,0,0,0,0,0
2301,1765227877581,-115,8097,-755,0,0,0,0,0
2302,1765227877706,-98,8100,-776,0,0,0,0,0
2303,1765227877899,-94,8083,-744,0,0,0,0,0
2304,1765227878015,-113,8130,-747,0,0,0,0,0
2305,1765227878223,-70,8073,-760,0,0,0,0,0
2306,1765227878441,-132,8102,-749,0,0,0,0,0
2307,1765227878651,-106,8088,-738,0,0,0,0,0
2308,1765227878769,-101,8084,-779,0,0,0,0,0
2309,1765227878988,-88,8100,-741,0,0,0,0,0
2310,1765227879139,-111,8078,-762,0,0,0,0,0
2311,1765227879338,-106,8125,-766,0,0,0,0,0
2312,1765227879480,-84,8082,-746,0,0,0,0,0
2313,1765227879673,-107,8108,-750,0,0,0,0,0
2314,1765227879865,-73,8079,-756,0,0,0,0,0
2315,1765227879981,-99,8134,-765,0,0,0,0,0
2316,1765227880231,-85,8088,-728,0,0,0,0,0
2317,1765227880389,-67,8114,-766,0,0,0,0,0
2318,1765227880604,-102,8093,-775,0,0,0,0,0
2319,1765227880721,-143,8125,-724,0,0,0,0,0
2320,1765227880931,-55,8090,-730,0,0,0,0,0
2321,1765227880949,-91,8134,-762,0,0,0,0,0
2322,1765227881073,-118,8083,-784,0,0,0,0,0
2323,1765227881313,-87,8067,-736,0,0,0,0,0
2324,1765227881402,-83,8096,-750,0,0,0,0,0
2325,1765227881632,-48,8074,-787,0,0,0,0,0
2326,1765227881760,-99,8055,-764,0,0,0,0,0
2327,1765227882067,-85,8097,-726,0,0,0,0,0
2328,1765227882197,-99,8111,-803,0,0,0,0,0
2329,1765227882380,-72,8098,-710,0,0,0,0,0
2330,1765227882497,-92,8122,-763,0,0,0,0,0
2331,1765227882762,-83,8077,-755,0,0,0,0,0
2332,1765227882896,-75,8132,-771,0,0,0,0,0
2333,1765227883029,-100,8058,-731,0,0,0,0,0
2334,1765227883196,-89,8124,-772,0,0,0,0,0
2335,1765227883637,-67,8112,-769,0,0,0,0,0
2336,1765227883830,-110,8057,-788,0,0,0,0,0
2337,1765227883933,-115,8127,-729,0,0,0,0,0
2338,1765227884036,-77,8098,-742,0,0,0,0,0
2339,1765227884099,-102,8098,-736,0,0,0,0,0
2340,1765227884314,-91,8099,-798,0,0,0,0,0
2341,1765227884491,-96,8082,-740,0,0,0,0,0
2342,1765227884657,-66,8122,-762,0,0,0,0,0
2343,1765227884743,-86,8107,-762,0,0,0,0,0
2344,1765227884822,-100,8082,-766,0,0,0,0,0
2345,1765227885038,-82,8094,-756,0,0,0,0,0
2346,1765227885280,-85,8097,-755,0,0,0,0,0
2347,1765227885480,-112,8074,-750,0,0,0,0,0
2348,1765227885555,-104,8090,-754,0,0,0,0,0
2349,1765227885781,-84,8102,-762,0,0,0,0,0
2350,1765227885889,-103,8092,-765,0,0,0,0,0
2351,1765227886055,-98,8083,-752,0,0,0,0,0
2352,1765227886239,-101,8113,-762,0,0,0,0,0
2353,1765227886464,-78,8096,-769,0,0,0,0,0
2354,1765227886539,-100,8058,-741,0,0,0,0,0
2355,1765227887145,-73,8076,-735,0,0,0,0,0
2356,1765227887162,-78,8138,-765,0,0,0,0,0
2357,1765227887200,-116,8080,-754,0,0,0,0,0
2358,1765227887355,-94,8111,-757,0,0,0,0,0
2359,1765227887647,-90,8104,-744,0,0,0,0,0
2360,1765227888056,-57,8108,-622,0,0,0,0,0
2361,1765227888124,-139,7975,-1014,0,0,0,0,0
2362,1765227888349,-55,8146,-681,0,0,0,0,0
2363,1765227888489,-98,8120,-742,0,0,0,0,0
2364,1765227888799,-88,8052,-768,0,0,0,0,0
2365,1765227888884,-86,8155,-769,0,0,0,0,0
2366,1765227889081,-81,8125,-753,0,0,0,0,0
2367,1765227889234,-88,8066,-775,0,0,0,0,0
2368,1765227889424,-106,8126,-754,0,0,0,0,0
2369,1765227889570,-80,8126,-762,0,0,0,0,0
2370,1765227889740,-89,8078,-783,0,0,0,0,0
2371,1765227889951,-110,8104,-758,0,0,0,0,0
2372,1765227890075,-90,8118,-754,0,0,0,0,0
2373,1765227890497,-87,8115,-720,0,0,0,0,0
2374,1765227890690,-81,8085,-800,0,0,0,0,0
2375,1765227890831,-132,8123,-737,0,0,0,0,0
2376,1765227891056,-21,8065,-786,0,0,0,0,0
2377,1765227891131,8,8110,-772,0,0,0,0,0
2378,1765227891389,-206,8112,-733,0,0,0,0,0
2379,1765227891533,-111,8083,-762,0,0,0,0,0
2380,1765227891690,-112,8087,-774,0,0,0,0,0
2381,1765227891815,-74,8106,-750,0,0,0,0,0
2382,1765227892123,-103,8080,-776,0,0,0,0,0
2383,1765227892273,-104,8038,-766,0,0,0,0,0
2384,1765227892465,-128,8144,-756,0,0,0,0,0
2385,1765227892564,-59,8058,-752,0,0,0,0,0
2386,1765227893147,-92,8092,-772,0,0,0,0,0
2387,1765227893264,-101,8064,-744,0,0,0,0,0
2388,1765227893657,-116,8073,-810,0,0,0,0,0
2389,1765227893948,-51,8118,-719,0,0,0,0,0
2390,1765227894023,-99,8121,-757,0,0,0,0,0
2391,1765227894089,-90,8096,-782,0,0,0,0,0
2392,1765227894206,-73,8109,-756,0,0,0,0,0
2393,1765227894390,-127,8097,-751,0,0,0,0,0
2394,1765227894614,-60,8084,-770,0,0,0,0,0
2395,1765227894764,-75,8107,-777,0,0,0,0,0
2396,1765227894838,-92,8067,-748,0,0,0,0,0
2397,1765227895073,-108,8112,-756,0,0,0,0,0
2398,1765227895172,-82,8098,-781,0,0,0,0,0
2399,1765227895473,-84,8095,-745,0,0,0,0,0
2400,1765227895581,-76,8111,-758,0,0,0,0,0
2401,1765227895799,-98,8104,-790,0,0,0,0,0
2402,1765227896140,-97,8101,-762,0,0,0,0,0
2403,1765227896283,-105,8089,-756,0,0,0,0,0
2404,1765227896524,-82,8100,-744,0,0,0,0,0
2405,1765227896656,-92,8089,-747,0,0,0,0,0
2406,1765227896805,-115,8131,-728,0,0,0,0,0
2407,1765227897013,-91,8051,-784,0,0,0,0,0
2408,1765227897198,-82,8103,-761,0,0,0,0,0
2409,1765227897398,-78,8099,-737,0,0,0,0,0
2410,1765227897547,-102,8078,-761,0,0,0,0,0
2411,1765227897689,-102,8100,-748,0,0,0,0,0
2412,1765227897838,-102,8114,-755,0,0,0,0,0
2413,1765227898506,-97,8082,-746,0,0,0,0,0
2414,1765227898537,-97,8112,-752,0,0,0,0,0
2415,1765227898581,-96,8094,-762,0,0,0,0,0
2416,1765227898612,-160,8118,-749,0,0,0,0,0
2417,1765227898807,-56,8096,-766,0,0,0,0,0
2418,1765227898924,-70,8065,-754,0,0,0,0,0
2419,1765227899107,-70,8113,-735,0,0,0,0,0
2420,1765227899232,-105,8068,-782,0,0,0,0,0
2421,1765227899440,-115,8140,-739,0,0,0,0,0
2422,1765227899574,-52,8120,-762,0,0,0,0,0
2423,1765227899782,-99,8086,-779,0,0,0,0,0
2424,1765227899948,-75,8105,-761,0,0,0,0,0
2425,1765227900115,-79,8100,-734,0,0,0,0,0
2426,1765227900282,-121,8106,-775,0,0,0,0,0
2427,1765227900381,-112,8138,-712,0,0,0,0,0
2428,1765227900664,-78,8073,-772,0,0,0,0,0
2429,1765227900789,-71,8073,-801,0,0,0,0,0
2430,1765227901091,-47,8065,-822,0,0,0,0,0
2431,1765227901240,-67,8146,-710,0,0,0,0,0
2432,1765227901424,-150,8099,-711,0,0,0,0,0
2433,1765227901559,-114,8056,-772,0,0,0,0,0
2434,1765227901739,-92,5808,-3806,0,0,0,0,0
2435,1765227902147,-89,8086,-782,0,0,0,0,0
2436,1765227902173,-69,8116,-737,0,0,0,0,0
2437,1765227902381,-86,8095,-758,0,0,0,0,0
2438,1765227902589,-112,8081,-790,0,0,0,0,0
2439,1765227902706,-85,8099,-739,0,0,0,0,0
2440,1765227902831,-73,8073,-795,0,0,0,0,0
2441,1765227903014,-88,8117,-736,0,0,0,0,0
2442,1765227903205,-94,8092,-766,0,0,0,0,0
2443,1765227903347,-98,8059,-768,0,0,0,0,0
2444,1765227903458,-76,8098,-746,0,0,0,0,0
2445,1765227903570,-95,8128,-739,0,0,0,0,0
2446,1765227903747,-96,8068,-793,0,0,0,0,0
2447,1765227904239,-91,8094,-796,0,0,0,0,0
2448,1765227904372,-91,8102,-768,0,0,0,0,0
2449,1765227904523,-91,8106,-731,0,0,0,0,0
2450,1765227904632,-74,8146,-736,0,0,0,0,0
2451,1765227904689,-93,8084,-772,0,0,0,0,0
2452,1765227904947,-75,8111,-759,0,0,0,0,0
2453,1765227905029,-87,8109,-752,0,0,0,0,0
2454,1765227905348,-84,8040,-1023,0,0,0,0,0
2455,1765227905439,-64,8031,-783,0,0,0,0,0
2456,1765227905656,-117,8209,-749,0,0,0,0,0
2457,1765227905888,-57,8078,-811,0,0,0,0,0
2458,1765227906146,-81,8070,-728,0,0,0,0,0
2459,1765227906231,-150,8118,-737,0,0,0,0,0
2460,1765227906497,-86,8074,-783,0,0,0,0,0
2461,1765227906647,-38,8158,-762,0,0,0,0,0
2462,1765227906831,-91,8067,-738,0,0,0,0,0
2463,1765227906966,-124,8067,-790,0,0,0,0,0
2464,1765227907079,-79,8117,-1016,0,0,0,0,0
2465,1765227907138,-93,8103,-762,0,0,0,0,0
2466,1765227907371,-93,8092,-752,0,0,0,0,0
2467,1765227907439,-92,8073,-750,0,0,0,0,0
2468,1765227907704,-90,8152,-778,0,0,0,0,0
2469,1765227907900,-98,8136,-700,0,0,0,0,0
2470,1765227908130,-42,7970,-828,0,0,0,0,0
2471,1765227908197,-106,8124,-814,0,0,0,0,0
2472,1765227908298,-84,8170,-705,0,0,0,0,0
2473,1765227908440,-104,8078,-775,0,0,0,0,0
2474,1765227908632,-60,8023,-792,0,0,0,0,0
2475,1765227908796,-85,8144,-713,0,0,0,0,0
2476,1765227909052,-99,8066,-784,0,0,0,0,0
2477,1765227909677,-83,8119,-767,0,0,0,0,0
2478,1765227909713,-84,8100,-735,0,0,0,0,0
2479,1765227909760,-110,8098,-756,0,0,0,0,0
2480,1765227909829,-71,8097,-760,0,0,0,0,0
2481,1765227909893,-88,8092,-785,0,0,0,0,0
2482,1765227910003,-112,8088,-773,0,0,0,0,0
2483,1765227910078,-54,8100,-750,0,0,0,0,0
2484,1765227910288,-78,8109,-772,0,0,0,0,0
2485,1765227910372,-118,8060,-736,0,0,0,0,0
2486,1765227910614,-94,8124,-766,0,0,0,0,0
2487,1765227910780,-77,8074,-720,0,0,0,0,0
2488,1765227910937,-108,8109,-778,0,0,0,0,0
2489,1765227911069,-108,8107,-765,0,0,0,0,0
2490,1765227911245,-96,8101,-766,0,0,0,0,0
2491,1765227911438,-81,8079,-745,0,0,0,0,0
2492,1765227911663,-85,8104,-767,0,0,0,0,0
2493,1765227911981,-72,8100,-758,0,0,0,0,0
2494,1765227912057,-99,8078,-777,0,0,0,0,0
2495,1765227912272,-86,8118,-737,0,0,0,0,0
2496,1765227912445,-90,8099,-780,0,0,0,0,0
2497,1765227912629,-58,8108,-740,0,0,0,0,0
2498,1765227912763,-86,8106,-772,0,0,0,0,0
2499,1765227912988,-106,8099,-768,0,0,0,0,0
2500,1765227913112,-91,8078,-757,0,0,0,0,0
2501,1765227913214,-88,8106,-766,0,0,0,0,0
2502,1765227913489,-91,8104,-757,0,0,0,0,0
2503,1765227913862,-89,8081,-718,0,0,0,0,0
2504,1765227913971,-75,8094,-799,0,0,0,0,0
2505,1765227914187,-122,8096,-764,0,0,0,0,0
2506,1765227914329,-110,8088,-742,0,0,0,0,0
2507,1765227914537,-76,8104,-760,0,0,0,0,0
2508,1765227914621,-92,8101,-754,0,0,0,0,0
2509,1765227914886,-102,8077,-763,0,0,0,0,0
2510,1765227915004,-67,8092,-746,0,0,0,0,0
2511,1765227915303,-89,8099,-758,0,0,0,0,0
2512,1765227915379,-90,8068,-756,0,0,0,0,0
2513,1765227915571,-93,8077,-770,0,0,0,0,0
2514,1765227915745,-90,8109,-747,0,0,0,0,0
2515,1765227915970,-91,8098,-772,0,0,0,0,0
2516,1765227916087,-78,8069,-746,0,0,0,0,0
2517,1765227916221,-106,8134,-793,0,0,0,0,0
2518,1765227916445,-88,8092,-769,0,0,0,0,0
2519,1765227916537,-95,8074,-745,0,0,0,0,0
2520,1765227916964,-88,8055,-851,0,0,0,0,0
2521,1765227917195,-102,8132,-694,0,0,0,0,0
2522,1765227917278,-100,8108,-747,0,0,0,0,0
2523,1765227917452,-70,8098,-786,0,0,0,0,0
2524,1765227917651,-112,8095,-731,0,0,0,0,0
2525,1765227917845,-92,8098,-774,0,0,0,0,0
2526,1765227917954,-57,8100,-775,0,0,0,0,0
2527,1765227918036,-106,8071,-756,0,0,0,0,0
2528,1765227918111,-77,8085,-767,0,0,0,0,0
2529,1765227918329,-87,8116,-717,0,0,0,0,0
2530,1765227918599,-81,8080,-795,0,0,0,0,0
2531,1765227918771,-98,8094,-769,0,0,0,0,0
2532,1765227918862,-82,8116,-738,0,0,0,0,0
2533,1765227919069,-96,8074,-762,0,0,0,0,0
2534,1765227919212,-87,8095,-756,0,0,0,0,0
2535,1765227919367,-83,8111,-759,0,0,0,0,0
2536,1765227919521,-98,8081,-778,0,0,0,0,0
2537,1765227919725,-84,8087,-738,0,0,0,0,0
2538,1765227919823,-86,8118,-756,0,0,0,0,0
2539,1765227919936,-93,8098,-780,0,0,0,0,0
2540,1765227920635,-93,8092,-750,0,0,0,0,0
2541,1765227920667,-86,8098,-762,0,0,0,0,0
2542,1765227920705,-107,8097,-768,0,0,0,0,0
2543,1765227920728,-72,8104,-760,0,0,0,0,0
2544,1765227920887,-82,8102,-767,0,0,0,0,0
2545,1765227921021,-122,8073,-746,0,0,0,0,0
2546,1765227921237,-108,8103,-768,0,0,0,0,0
2547,1765227921388,-99,8108,-769,0,0,0,0,0
2548,1765227921579,-81,8080,-732,0,0,0,0,0
2549,1765227921762,-73,8108,-720,0,0,0,0,0
2550,1765227921990,-104,8094,-786,0,0,0,0,0
2551,1765227922137,-111,8110,-756,0,0,0,0,0
2552,1765227922331,-78,8075,-724,0,0,0,0,0
2553,1765227922506,-104,8100,-754,0,0,0,0,0
2554,1765227922604,-81,8115,-768,0,0,0,0,0
2555,1765227932580,-88,8111,-776,0,0,0,0,0
2556,1765227932713,-92,8108,-518,0,0,0,0,0
2557,1765227932871,-106,8075,-770,0,0,0,0,0
2558,1765227933064,-84,8094,-805,0,0,0,0,0
2559,1765227933172,-68,8116,-773,0,0,0,0,0
2560,1765227933396,-92,8087,-774,0,0,0,0,0
2561,1765227933487,-102,8078,-773,0,0,0,0,0
2562,1765227933731,-82,8113,-761,0,0,0,0,0
2563,1765227933793,-84,8085,-765,0,0,0,0,0
2564,1765227934155,-79,8108,-760,0,0,0,0,0
2565,1765227934337,-94,8095,-767,0,0,0,0,0
2566,1765227934454,-103,8088,-750,0,0,0,0,0
2567,1765227934638,-82,8073,-765,0,0,0,0,0
2568,1765227934895,-90,8112,-751,0,0,0,0,0
2569,1765227935130,-105,8106,-787,0,0,0,0,0
2570,1765227935271,-87,8080,-740,0,0,0,0,0
2571,1765227935378,-98,8082,-764,0,0,0,0,0
2572,1765227935563,-105,8112,-771,0,0,0,0,0
2573,1765227935764,-57,8127,-759,0,0,0,0,0
2574,1765227935971,-66,8102,-752,0,0,0,0,0
2575,1765227936054,-95,8094,-779,0,0,0,0,0
2576,1765227936263,-123,8048,-749,0,0,0,0,0
2577,1765227936703,-75,8119,-768,0,0,0,0,0
2578,1765227936762,-94,8091,-743,0,0,0,0,0
2579,1765227937003,-93,8109,-782,0,0,0,0,0
2580,1765227937137,-116,8096,-760,0,0,0,0,0
2581,1765227937287,-88,8110,-747,0,0,0,0,0
2582,1765227937478,-75,8082,-769,0,0,0,0,0
2583,1765227937688,-128,8097,-763,0,0,0,0,0
2584,1765227937937,-75,8094,-770,0,0,0,0,0
2585,1765227938205,-92,8099,-767,0,0,0,0,0
2586,1765227938371,-93,8097,-750,0,0,0,0,0
2587,1765227938597,-80,8103,-755,0,0,0,0,0
2588,1765227938730,-86,8091,-751,0,0,0,0,0
2589,1765227938887,-94,8115,-754,0,0,0,0,0
2590,1765227939020,-73,8112,-767,0,0,0,0,0
2591,1765227939270,-97,8070,-759,0,0,0,0,0
2592,1765227939345,-78,8128,-764,0,0,0,0,0
2593,1765227939704,-100,8122,-784,0,0,0,0,0
2594,1765227939803,-69,8067,-759,0,0,0,0,0
2595,1765227940078,-98,8126,-754,0,0,0,0,0
2596,1765227940211,-100,8085,-756,0,0,0,0,0
2597,1765227940387,-98,8113,-758,0,0,0,0,0
2598,1765227940496,-80,8092,-743,0,0,0,0,0
2599,1765227940711,-94,8074,-770,0,0,0,0,0
2600,1765227940862,-86,8099,-767,0,0,0,0,0
2601,1765227940994,-92,8075,-739,0,0,0,0,0
2602,1765227941629,-94,8099,-781,0,0,0,0,0
2603,1765227941645,-103,8110,-745,0,0,0,0,0
2604,1765227941703,-96,8096,-772,0,0,0,0,0
2605,1765227941989,-103,8100,-750,0,0,0,0,0
2606,1765227942024,-94,8088,-761,0,0,0,0,0
2607,1765227942124,-95,8080,-738,0,0,0,0,0
2608,1765227942324,-94,8113,-770,0,0,0,0,0
2609,1765227942416,-76,8098,-753,0,0,0,0,0
2610,1765227942667,-104,8110,-754,0,0,0,0,0
2611,1765227942849,-106,8090,-724,0,0,0,0,0
2612,1765227943014,-77,8102,-773,0,0,0,0,0
2613,1765227943149,-90,8089,-763,0,0,0,0,0
2614,1765227943257,-102,8113,-770,0,0,0,0,0
2615,1765227943357,-94,8087,-740,0,0,0,0,0
2616,1765227943616,-91,8108,-758,0,0,0,0,0
2617,1765227943791,-98,8095,-763,0,0,0,0,0
2618,1765227944025,-81,8112,-747,0,0,0,0,0
2619,1765227944124,-100,8087,-754,0,0,0,0,0
2620,1765227944316,-95,8108,-781,0,0,0,0,0
2621,1765227944550,-94,8101,-764,0,0,0,0,0
2622,1765227944733,-99,8118,-730,0,0,0,0,0
2623,1765227944833,-97,8068,-768,0,0,0,0,0
2624,1765227945023,-74,8124,-752,0,0,0,0,0
2625,1765227945233,-97,8110,-750,0,0,0,0,0
2626,1765227945474,-133,7743,-841,0,0,0,0,0
2627,1765227945599,40,8483,-568,0,0,0,0,0
2628,1765227945715,-69,8104,-802,0,0,0,0,0
2629,1765227945816,-94,8149,-782,0,0,0,0,0
2630,1765227946015,-94,8083,-681,0,0,0,0,0
2631,1765227946099,-79,8099,-760,0,0,0,0,0
2632,1765227946381,-91,8094,-755,0,0,0,0,0
2633,1765227946532,-94,8117,-780,0,0,0,0,0
2634,1765227946740,-93,8070,-737,0,0,0,0,0
2635,1765227946823,-100,8104,-750,0,0,0,0,0
2636,1765227946940,-77,8072,-740,0,0,0,0,0
2637,1765227947064,-98,8108,-756,0,0,0,0,0
2638,1765227947300,-79,8112,-763,0,0,0,0,0
2639,1765227947541,-78,8096,-756,0,0,0,0,0
2640,1765227947707,-91,8102,-770,0,0,0,0,0
2641,1765227947816,-94,8080,-758,0,0,0,0,0
2642,1765227948000,-78,8101,-764,0,0,0,0,0
2643,1765227948066,-102,8075,-748,0,0,0,0,0
2644,1765227948173,-74,8132,-765,0,0,0,0,0
2645,1765227948374,-80,8082,-764,0,0,0,0,0
2646,1765227948490,-101,8094,-760,0,0,0,0,0
2647,1765227948665,-100,8093,-752,0,0,0,0,0
2648,1765227948690,-108,8062,-757,0,0,0,0,0
2649,1765227948898,-99,8108,-775,0,0,0,0,0
2650,1765227948975,-83,8108,-741,0,0,0,0,0
2651,1765227949257,-91,8092,-777,0,0,0,0,0
2652,1765227949357,-100,8103,-764,0,0,0,0,0
2653,1765227949507,-102,8080,-725,0,0,0,0,0
2654,1765227949640,-94,8120,-788,0,0,0,0,0
2655,1765227949782,-72,8081,-766,0,0,0,0,0
2656,1765227950049,-88,8120,-754,0,0,0,0,0
2657,1765227950125,-104,8082,-774,0,0,0,0,0
2658,1765227950382,-80,8108,-757,0,0,0,0,0
2659,1765227950529,-98,8070,-752,0,0,0,0,0
2660,1765227950698,-64,8122,-749,0,0,0,0,0
2661,1765227950823,-103,8076,-766,0,0,0,0,0
2662,1765227951016,-95,8110,-749,0,0,0,0,0
2663,1765227951117,-91,8110,-752,0,0,0,0,0
2664,1765227951194,-103,8094,-745,0,0,0,0,0
2665,1765227951273,-74,8106,-754,0,0,0,0,0
2666,1765227951487,-101,8083,-766,0,0,0,0,0
2667,1765227951748,-83,8104,-732,0,0,0,0,0
2668,1765227951831,-102,8082,-753,0,0,0,0,0
2669,1765227951915,-98,8118,-758,0,0,0,0,0
2670,1765227952593,-81,8082,-768,0,0,0,0,0
2671,1765227952608,-80,8114,-758,0,0,0,0,0
2672,1765227952678,-78,8117,-756,0,0,0,0,0
2673,1765227952899,-94,8090,-751,0,0,0,0,0
2674,1765227952985,-88,8110,-771,0,0,0,0,0
2675,1765227953259,-92,8098,-750,0,0,0,0,0
2676,1765227953393,-94,8078,-752,0,0,0,0,0
2677,1765227953555,-96,8091,-750,0,0,0,0,0
2678,1765227953952,-76,8110,-758,0,0,0,0,0
2679,1765227954209,-91,8064,-747,0,0,0,0,0
2680,1765227954318,-84,8114,-760,0,0,0,0,0
2681,1765227954383,-66,8112,-744,0,0,0,0,0
2682,1765227954619,-107,8119,-743,0,0,0,0,0
2683,1765227954679,-72,8083,-754,0,0,0,0,0
2684,1765227954918,-78,8074,-754,0,0,0,0,0
2685,1765227955059,-90,8117,-750,0,0,0,0,0
2686,1765227955369,-94,8097,-735,0,0,0,0,0
2687,1765227955451,-72,8121,-778,0,0,0,0,0
2688,1765227955726,-98,8104,-788,0,0,0,0,0
2689,1765227955826,-88,8073,-728,0,0,0,0,0
2690,1765227956026,-94,8118,-757,0,0,0,0,0
2691,1765227956184,-97,8092,-802,0,0,0,0,0
2692,1765227956393,-98,8133,-773,0,0,0,0,0
2693,1765227956626,-77,8117,-776,0,0,0,0,0
2694,1765227956768,-111,8047,-735,0,0,0,0,0
2695,1765227957019,-109,8070,-777,0,0,0,0,0
2696,1765227957127,-76,8111,-712,0,0,0,0,0
2697,1765227957327,-108,8099,-818,0,0,0,0,0
2698,1765227957576,-48,8077,-741,0,0,0,0,0
2699,1765227957868,-99,8070,-785,0,0,0,0,0
2700,1765227958076,-87,8107,-752,0,0,0,0,0
2701,1765227958169,-86,8076,-734,0,0,0,0,0
2702,1765227958460,-91,8091,-771,0,0,0,0,0
2703,1765227958545,-61,8082,-768,0,0,0,0,0
2704,1765227958835,-100,8146,-763,0,0,0,0,0
2705,1765227958986,-92,8091,-775,0,0,0,0,0
2706,1765227959209,-96,8058,-760,0,0,0,0,0
2707,1765227959309,-80,8141,-735,0,0,0,0,0
2708,1765227959585,-99,8113,-784,0,0,0,0,0
2709,1765227959684,-112,8062,-778,0,0,0,0,0
2710,1765227959943,-76,8102,-734,0,0,0,0,0
2711,1765227960150,-66,8065,-730,0,0,0,0,0
2712,1765227960342,-118,8099,-764,0,0,0,0,0
2713,1765227960493,-69,8093,-740,0,0,0,0,0
2714,1765227960634,-80,8082,-787,0,0,0,0,0
2715,1765227960884,-104,8121,-760,0,0,0,0,0
2716,1765227960993,-88,8070,-727,0,0,0,0,0
2717,1765227961302,-70,8124,-777,0,0,0,0,0
2718,1765227961742,-18,8114,-806,0,0,0,0,0
2719,1765227962026,-74,8085,-730,0,0,0,0,0
2720,1765227962109,-131,8108,-776,0,0,0,0,0
2721,1765227962560,-78,8117,-742,0,0,0,0,0
2722,1765227962793,-128,8090,-779,0,0,0,0,0
2723,1765227962867,-54,8102,-744,0,0,0,0,0
2724,1765227963751,-103,8106,-744,0,0,0,0,0
2725,1765227963778,-110,8106,-782,0,0,0,0,0
2726,1765227963821,-56,8094,-738,0,0,0,0,0
2727,1765227963872,-132,8066,-769,0,0,0,0,0
2728,1765227963894,-29,8123,-754,0,0,0,0,0
2729,1765227963978,-86,8098,-744,0,0,0,0,0
2730,1765227964197,-120,8085,-762,0,0,0,0,0
2731,1765227964320,-71,8119,-739,0,0,0,0,0
2732,1765227964548,-90,8075,-752,0,0,0,0,0
2733,1765227964888,-98,8090,-730,0,0,0,0,0
2734,1765227964956,-71,8120,-760,0,0,0,0,0
2735,1765227965180,-98,8075,-769,0,0,0,0,0
2736,1765227965323,-88,8100,-757,0,0,0,0,0
2737,1765227965531,-109,8111,-757,0,0,0,0,0
2738,1765227965662,-84,8092,-757,0,0,0,0,0
2739,1765227965921,-85,8132,-760,0,0,0,0,0
2740,1765227966139,-111,8104,-768,0,0,0,0,0
2741,1765227966298,-68,8098,-750,0,0,0,0,0
2742,1765227966480,-98,8076,-758,0,0,0,0,0
2743,1765227966664,-98,8098,-794,0,0,0,0,0
2744,1765227966822,-78,8083,-734,0,0,0,0,0
2745,1765227967005,-66,8089,-720,0,0,0,0,0
2746,1765227967171,-95,8101,-780,0,0,0,0,0
2747,1765227967288,-75,8109,-771,0,0,0,0,0
2748,1765227967397,-114,8092,-756,0,0,0,0,0
2749,1765227967638,-113,8144,-718,0,0,0,0,0
2750,1765227967705,-59,8055,-769,0,0,0,0,0
2751,1765227967904,-111,8098,-792,0,0,0,0,0
2752,1765227968097,-129,8155,-717,0,0,0,0,0
2753,1765227968313,-26,8071,-773,0,0,0,0,0
2754,1765227968405,-81,8066,-814,0,0,0,0,0
2755,1765227968516,-67,8132,-723,0,0,0,0,0
2756,1765227968734,-83,8082,-772,0,0,0,0,0
2757,1765227968865,-94,8095,-794,0,0,0,0,0
2758,1765227969073,-95,8104,-748,0,0,0,0,0
2759,1765227969225,-114,8104,-728,0,0,0,0,0
2760,1765227969467,-80,8087,-809,0,0,0,0,0
2761,1765227969529,-82,8106,-744,0,0,0,0,0
2762,1765227969849,-122,8046,-759,0,0,0,0,0
2763,1765227970013,-45,8120,-790,0,0,0,0,0
2764,1765227970140,-85,8126,-737,0,0,0,0,0
2765,1765227970539,-86,8080,-789,0,0,0,0,0
2766,1765227970609,-90,8113,-742,0,0,0,0,0
2767,1765227970832,-88,8102,-765,0,0,0,0,0
2768,1765227970967,-86,8068,-748,0,0,0,0,0
2769,1765227971079,-102,8038,-743,0,0,0,0,0
2770,1765227971222,-92,8157,-769,0,0,0,0,0
2771,1765227971423,-108,8092,-745,0,0,0,0,0
2772,1765227971547,-103,8088,-752,0,0,0,0,0
2773,1765227971730,-121,8089,-720,0,0,0,0,0
2774,1765227971930,-91,8095,-779,0,0,0,0,0
2775,1765227972063,-78,8088,-775,0,0,0,0,0
2776,1765227972230,-87,8116,-743,0,0,0,0,0
2777,1765227972329,-57,8080,-758,0,0,0,0,0
2778,1765227972546,-97,8111,-779,0,0,0,0,0
2779,1765227972653,-106,8093,-733,0,0,0,0,0
2780,1765227972887,-94,8110,-751,0,0,0,0,0
2781,1765227973029,-109,8071,-758,0,0,0,0,0
2782,1765227973163,-94,8121,-736,0,0,0,0,0
2783,1765227973321,-241,8229,-800,0,0,0,0,0
2784,1765227973496,-11,7902,-799,0,0,0,0,0
2785,1765227973574,-37,8358,-750,0,0,0,0,0
2786,1765227973708,-94,8046,-733,0,0,0,0,0
2787,1765227973912,-135,7934,-722,0,0,0,0,0
2788,1765227974020,-64,8112,-744,0,0,0,0,0
2789,1765227974728,-89,8138,-757,0,0,0,0,0
2790,1765227974741,-106,8102,-722,0,0,0,0,0
2791,1765227974770,-93,8090,-765,0,0,0,0,0
2792,1765227974785,-83,8026,-674,0,0,0,0,0
2793,1765227975071,-140,8165,-716,0,0,0,0,0
2794,1765227975214,-116,8066,-721,0,0,0,0,0
2795,1765227975414,-59,8070,-770,0,0,0,0,0
2796,1765227975556,-95,8162,-795,0,0,0,0,0
2797,1765227975648,-94,8053,-766,0,0,0,0,0
2798,1765227975840,-80,8057,-690,0,0,0,0,0
2799,1765227975964,-234,8254,-795,0,0,0,0,0
