index,date,ACCEL_X,ACCEL_Y,ACCEL_Z,1,2,3,4,5
0,1765915244775,-313,8323,-528,0,0,0,0,0
1,1765915244975,-274,8328,-508,0,0,0,0,0
2,1765915245057,-303,8267,-491,0,0,0,0,0
3,1765915245275,-311,8332,-473,0,0,0,0,0
4,1765915245342,-308,8298,-481,0,0,0,0,0
5,1765915245575,-309,8301,-486,0,0,0,0,0
6,1765915245692,-337,8302,-516,0,0,0,0,0
7,1765915245858,-298,8307,-506,0,0,0,0,0
8,1765915245992,-256,8350,-427,0,0,0,0,0
9,1765915246175,-196,8276,-194,0,0,0,0,0
10,1765915246325,-293,8206,-520,0,0,0,0,0
11,1765915246425,-340,8417,-557,0,0,0,0,0
12,1765915246625,-330,8382,-543,0,0,0,0,0
13,1765915246708,-306,8268,-528,0,0,0,0,0
14,1765915246959,-273,8318,-455,0,0,0,0,0
15,1765915247025,-308,8285,-448,0,0,0,0,0
16,1765915247225,-310,8306,-508,0,0,0,0,0
17,1765915247309,-292,8308,-512,0,0,0,0,0
18,1765915247592,-279,8310,-442,0,0,0,0,0
19,1765915247658,-308,8288,-452,0,0,0,0,0
20,1765915247892,-315,8302,-429,0,0,0,0,0
21,1765915247958,-295,8346,-508,0,0,0,0,0
22,1765915248175,-330,8327,-461,0,0,0,0,0
23,1765915248275,-276,8292,-502,0,0,0,0,0
24,1765915248491,-294,8309,-597,0,0,0,0,0
25,1765915248559,-328,8329,-520,0,0,0,0,0
26,1765915248792,-312,8286,-519,0,0,0,0,0
27,1765915248875,-308,8366,-498,0,0,0,0,0
28,1765915249108,-276,8260,-472,0,0,0,0,0
29,1765915249191,-316,8305,-474,0,0,0,0,0
30,1765915249408,-315,8335,-506,0,0,0,0,0
31,1765915249725,-296,8312,-492,0,0,0,0,0
32,1765915249825,-298,8294,-491,0,0,0,0,0
33,1765915250009,-310,8319,-517,0,0,0,0,0
34,1765915250142,-317,8272,-480,0,0,0,0,0
35,1765915250325,-335,8301,-492,0,0,0,0,0
36,1765915250409,-302,8332,-433,0,0,0,0,0
37,1765915250625,-258,8249,-468,0,0,0,0,0
38,1765915250758,-286,8388,-454,0,0,0,0,0
39,1765915250942,-316,8313,-483,0,0,0,0,0
40,1765915251041,-302,8312,-480,0,0,0,0,0
41,1765915251225,-295,8290,-496,0,0,0,0,0
42,1765915251359,-306,8314,-504,0,0,0,0,0
43,1765915251525,-302,8315,-505,0,0,0,0,0
44,1765915251642,-296,8305,-508,0,0,0,0,0
45,1765915251842,-302,8312,-490,0,0,0,0,0
46,1765915251958,-311,8296,-500,0,0,0,0,0
47,1765915252142,-294,8313,-511,0,0,0,0,0
48,1765915252458,-322,8296,-506,0,0,0,0,0
49,1765915252558,-293,8252,-494,0,0,0,0,0
50,1765915252741,-292,8369,-503,0,0,0,0,0
51,1765915252874,-294,8315,-485,0,0,0,0,0
52,1765915253058,-294,8322,-474,0,0,0,0,0
53,1765915253175,-291,8301,-471,0,0,0,0,0
54,1765915253342,-298,8307,-464,0,0,0,0,0
55,1765915253491,-308,8314,-545,0,0,0,0,0
56,1765915253658,-313,8304,-552,0,0,0,0,0
57,1765915253776,-296,8286,-547,0,0,0,0,0
58,1765915253958,-290,8328,-506,0,0,0,0,0
59,1765915254108,-322,8294,-517,0,0,0,0,0
60,1765915254258,-327,8294,-468,0,0,0,0,0
61,1765915254409,-313,8320,-471,0,0,0,0,0
62,1765915254575,-298,8299,-464,0,0,0,0,0
63,1765915254741,-283,8320,-475,0,0,0,0,0
64,1765915254858,-331,8305,-466,0,0,0,0,0
65,1765915255175,-296,8312,-434,0,0,0,0,0
66,1765915255358,-309,8307,-455,0,0,0,0,0
67,1765915255475,-294,8295,-490,0,0,0,0,0
68,1765915255757,-290,8327,-610,0,0,0,0,0
69,1765915255775,-304,8286,-486,0,0,0,0,0
70,1765915255941,-313,8313,-499,0,0,0,0,0
71,1765915256075,-297,8318,-548,0,0,0,0,0
72,1765915256275,-293,8296,-534,0,0,0,0,0
73,1765915256375,-305,8319,-494,0,0,0,0,0
74,1765915256559,-309,8306,-504,0,0,0,0,0
75,1765915256693,-297,8314,-511,0,0,0,0,0
76,1765915256892,-297,8298,-488,0,0,0,0,0
77,1765915256991,-315,8274,-495,0,0,0,0,0
78,1765915257209,-290,8324,-474,0,0,0,0,0
79,1765915257308,-292,8332,-504,0,0,0,0,0
80,1765915257541,-278,8280,-450,0,0,0,0,0
81,1765915257591,-338,8286,-454,0,0,0,0,0
82,1765915257808,-308,8268,-488,0,0,0,0,0
83,1765915257909,-317,8311,-490,0,0,0,0,0
84,1765915258141,-302,8314,-542,0,0,0,0,0
85,1765915258225,-281,8292,-508,0,0,0,0,0
86,1765915258442,-300,8324,-458,0,0,0,0,0
87,1765915258525,-332,8322,-475,0,0,0,0,0
88,1765915258759,-302,8278,-484,0,0,0,0,0
89,1765915258841,-284,8296,-509,0,0,0,0,0
90,1765915259042,-310,8340,-556,0,0,0,0,0
91,1765915259175,-336,8274,-543,0,0,0,0,0
92,1765915259359,-294,8328,-491,0,0,0,0,0
93,1765915259425,-323,8314,-501,0,0,0,0,0
94,1765915259658,-300,8288,-483,0,0,0,0,0
95,1765915259757,-293,8308,-461,0,0,0,0,0
96,1765915259975,-307,8332,-484,0,0,0,0,0
97,1765915260074,-297,8288,-481,0,0,0,0,0
98,1765915260275,-300,8309,-472,0,0,0,0,0
99,1765915260424,-302,8330,-500,0,0,0,0,0
100,1765915260591,-328,8292,-496,0,0,0,0,0
101,1765915260741,-307,8306,-502,0,0,0,0,0
102,1765915260891,-312,8327,-544,0,0,0,0,0
103,1765915261058,-300,8276,-522,0,0,0,0,0
104,1765915261175,-312,8305,-504,0,0,0,0,0
105,1765915261375,-308,8323,-512,0,0,0,0,0
106,1765915261492,-302,8280,-489,0,0,0,0,0
107,1765915261708,-291,8321,-453,0,0,0,0,0
108,1765915261791,-298,8324,-451,0,0,0,0,0
109,1765915262008,-311,8298,-457,0,0,0,0,0
110,1765915262108,-298,8316,-474,0,0,0,0,0
111,1765915262325,-307,8321,-495,0,0,0,0,0
112,1765915262408,-302,8294,-547,0,0,0,0,0
113,1765915262641,-300,8308,-533,0,0,0,0,0
114,1765915262724,-285,8312,-522,0,0,0,0,0
115,1765915262958,-312,8313,-498,0,0,0,0,0
116,1765915263024,-316,8298,-490,0,0,0,0,0
117,1765915263241,-288,8305,-486,0,0,0,0,0
118,1765915263375,-298,8316,-470,0,0,0,0,0
119,1765915263560,-314,8311,-479,0,0,0,0,0
120,1765915263677,-300,8321,-500,0,0,0,0,0
121,1765915263858,-305,8290,-507,0,0,0,0,0
122,1765915264010,-302,8309,-510,0,0,0,0,0
123,1765915264176,-309,8312,-542,0,0,0,0,0
124,1765915264293,-286,8281,-511,0,0,0,0,0
125,1765915264477,-298,8331,-486,0,0,0,0,0
126,1765915264643,-318,8313,-475,0,0,0,0,0
127,1765915264792,-303,8314,-494,0,0,0,0,0
128,1765915264943,-295,8323,-488,0,0,0,0,0
129,1765915265076,-302,8297,-503,0,0,0,0,0
130,1765915265258,-305,8294,-509,0,0,0,0,0
131,1765915265376,-303,8318,-485,0,0,0,0,0
132,1765915265558,-308,8294,-508,0,0,0,0,0
133,1765915265692,-303,8301,-498,0,0,0,0,0
134,1765915265877,-292,8320,-500,0,0,0,0,0
135,1765915265993,-302,8300,-504,0,0,0,0,0
136,1765915266193,-312,8306,-488,0,0,0,0,0
137,1765915266310,-296,8316,-483,0,0,0,0,0
138,1765915266510,-306,8299,-512,0,0,0,0,0
139,1765915266661,-301,8298,-505,0,0,0,0,0
140,1765915266926,-309,8300,-507,0,0,0,0,0
141,1765915267142,-320,8300,-465,0,0,0,0,0
142,1765915267210,-296,8313,-454,0,0,0,0,0
143,1765915267441,-294,8326,-472,0,0,0,0,0
144,1765915267542,-307,8334,-471,0,0,0,0,0
145,1765915267775,-292,8321,-454,0,0,0,0,0
146,1765915267842,-303,8270,-486,0,0,0,0,0
147,1765915268058,-321,8290,-478,0,0,0,0,0
148,1765915268176,-312,8345,-462,0,0,0,0,0
149,1765915268375,-296,8307,-507,0,0,0,0,0
150,1765915268474,-285,8304,-498,0,0,0,0,0
151,1765915268676,-309,8296,-495,0,0,0,0,0
152,1765915268792,-326,8296,-474,0,0,0,0,0
153,1765915268993,-291,8312,-486,0,0,0,0,0
154,1765915269092,-298,8308,-501,0,0,0,0,0
155,1765915269291,-306,8292,-498,0,0,0,0,0
156,1765915269424,-304,8298,-493,0,0,0,0,0
157,1765915269608,-293,8280,-492,0,0,0,0,0
158,1765915269741,-313,8284,-488,0,0,0,0,0
159,1765915269891,-311,8334,-522,0,0,0,0,0
160,1765915270058,-293,8284,-508,0,0,0,0,0
161,1765915270190,-305,8285,-490,0,0,0,0,0
162,1765915270342,-305,8315,-496,0,0,0,0,0
163,1765915270508,-305,8280,-474,0,0,0,0,0
164,1765915270691,-299,8326,-494,0,0,0,0,0
165,1765915270809,-274,8313,-482,0,0,0,0,0
166,1765915270991,-301,8300,-474,0,0,0,0,0
167,1765915271125,-312,8305,-486,0,0,0,0,0
168,1765915271325,-296,8307,-490,0,0,0,0,0
169,1765915271424,-296,8295,-500,0,0,0,0,0
170,1765915271641,-306,8311,-500,0,0,0,0,0
171,1765915271740,-318,8305,-505,0,0,0,0,0
172,1765915271941,-302,8292,-500,0,0,0,0,0
173,1765915272025,-296,8304,-492,0,0,0,0,0
174,1765915272258,-308,8305,-486,0,0,0,0,0
175,1765915272342,-313,8300,-501,0,0,0,0,0
176,1765915272558,-298,8300,-499,0,0,0,0,0
177,1765915272642,-302,8304,-502,0,0,0,0,0
178,1765915272875,-309,8302,-494,0,0,0,0,0
179,1765915272975,-306,8298,-491,0,0,0,0,0
180,1765915273191,-295,8302,-496,0,0,0,0,0
181,1765915273258,-301,8292,-499,0,0,0,0,0
182,1765915273475,-303,8316,-500,0,0,0,0,0
183,1765915273558,-294,8318,-487,0,0,0,0,0
184,1765915273841,-304,8312,-486,0,0,0,0,0
185,1765915274142,-302,8301,-500,0,0,0,0,0
186,1765915274325,-304,8285,-495,0,0,0,0,0
187,1765915274441,-300,8330,-485,0,0,0,0,0
188,1765915274508,-294,8290,-484,0,0,0,0,0
189,1765915274724,-308,8301,-480,0,0,0,0,0
190,1765915274808,-298,8316,-478,0,0,0,0,0
191,1765915275026,-282,8308,-466,0,0,0,0,0
192,1765915275225,-333,8265,-522,0,0,0,0,0
193,1765915275375,-272,8304,-556,0,0,0,0,0
194,1765915275491,-286,8334,-505,0,0,0,0,0
195,1765915275658,-348,8326,-521,0,0,0,0,0
196,1765915275791,-302,8249,-492,0,0,0,0,0
197,1765915275876,-320,8307,-493,0,0,0,0,0
198,1765915276008,-308,8329,-422,0,0,0,0,0
199,1765915276142,-224,8348,-414,0,0,0,0,0
200,1765915276308,-334,8279,-518,0,0,0,0,0
201,1765915276458,-371,8255,-501,0,0,0,0,0
202,1765915276524,-296,8339,-466,0,0,0,0,0
203,1765915276642,-256,8394,-504,0,0,0,0,0
204,1765915276791,-334,8252,-536,0,0,0,0,0
205,1765915276941,-383,8281,-514,0,0,0,0,0
206,1765915277058,-314,8302,-527,0,0,0,0,0
207,1765915277175,-311,8266,-558,0,0,0,0,0
208,1765915277291,-312,8267,-560,0,0,0,0,0
209,1765915277458,-304,8332,-511,0,0,0,0,0
210,1765915277613,-298,8324,-461,0,0,0,0,0
211,1765915277758,-286,8298,-430,0,0,0,0,0
212,1765915277858,-300,8301,-531,0,0,0,0,0
213,1765915277942,-276,8264,-520,0,0,0,0,0
214,1765915278158,-338,8326,-545,0,0,0,0,0
215,1765915278241,-300,8278,-504,0,0,0,0,0
216,1765915278457,-279,8283,-482,0,0,0,0,0
217,1765915278542,-312,8272,-569,0,0,0,0,0
218,1765915278641,-368,8285,-538,0,0,0,0,0
219,1765915278825,-299,8332,-549,0,0,0,0,0
220,1765915278942,-280,8288,-514,0,0,0,0,0
221,1765915279125,-299,8274,-446,0,0,0,0,0
222,1765915279192,-314,8032,628,0,0,0,0,0
223,1765915279408,-180,8501,710,0,0,0,0,0
224,1765915279491,-256,8770,703,0,0,0,0,0
225,1765915279725,-291,8142,642,0,0,0,0,0
226,1765915279808,-245,8246,564,0,0,0,0,0
227,1765915279958,-168,8258,663,0,0,0,0,0
228,1765915280075,-109,8479,672,0,0,0,0,0
229,1765915280241,-230,8625,756,0,0,0,0,0
230,1765915280374,-394,8356,605,0,0,0,0,0
231,1765915280675,-810,7248,1318,0,0,0,0,0
232,1765915280741,-1602,9042,796,0,0,0,0,0
233,1765915280975,-323,8317,986,0,0,0,0,0
234,1765915281057,321,9030,842,0,0,0,0,0
235,1765915281242,332,7968,1436,0,0,0,0,0
236,1765915281342,2046,9174,906,0,0,0,0,0
237,1765915281575,123,9756,789,0,0,0,0,0
238,1765915281625,880,6640,693,0,0,0,0,0
239,1765915281858,1675,8823,507,0,0,0,0,0
240,1765915281958,2001,8526,608,0,0,0,0,0
241,1765915282192,590,7083,350,0,0,0,0,0
242,1765915282291,1011,7490,532,0,0,0,0,0
243,1765915282491,430,9431,1078,0,0,0,0,0
244,1765915282708,193,7126,-326,0,0,0,0,0
245,1765915282808,-690,8623,1143,0,0,0,0,0
246,1765915283058,317,8848,436,0,0,0,0,0
247,1765915283125,990,7992,366,0,0,0,0,0
248,1765915283375,235,9300,422,0,0,0,0,0
249,1765915283558,10,8577,838,0,0,0,0,0
250,1765915283691,-488,7807,833,0,0,0,0,0
251,1765915283908,-340,8087,1010,0,0,0,0,0
252,1765915284008,-291,8904,848,0,0,0,0,0
253,1765915284141,-4060,8599,-456,0,0,0,0,0
254,1765915284258,-4413,7682,320,0,0,0,0,0
255,1765915284491,-2804,7760,880,0,0,0,0,0
256,1765915284575,-2039,7061,871,0,0,0,0,0
257,1765915284842,-3246,9043,621,0,0,0,0,0
258,1765915285056,-3432,8088,158,0,0,0,0,0
259,1765915285124,-3173,7778,386,0,0,0,0,0
260,1765915285373,-3192,8823,620,0,0,0,0,0
261,1765915285625,-3240,8787,639,0,0,0,0,0
262,1765915285710,-3199,9172,188,0,0,0,0,0
263,1765915285942,-4107,8062,502,0,0,0,0,0
264,1765915286042,-4438,8639,-293,0,0,0,0,0
265,1765915286274,-5765,6660,-208,0,0,0,0,0
266,1765915286510,-4235,7543,408,0,0,0,0,0
267,1765915286608,-3975,6481,795,0,0,0,0,0
268,1765915286809,-4898,10810,480,0,0,0,0,0
269,1765915287073,-5562,8920,405,0,0,0,0,0
270,1765915287158,-5674,8560,-238,0,0,0,0,0
271,1765915287375,-7072,7887,-986,0,0,0,0,0
272,1765915287508,-5433,8386,480,0,0,0,0,0
273,1765915287608,-4770,7599,1550,0,0,0,0,0
274,1765915287725,-6347,5873,434,0,0,0,0,0
275,1765915287957,-6080,4720,213,0,0,0,0,0
276,1765915288058,-6221,9582,946,0,0,0,0,0
277,1765915288258,-7319,5945,846,0,0,0,0,0
278,1765915288526,-5108,7821,1270,0,0,0,0,0
279,1765915288591,-4307,7740,1903,0,0,0,0,0
280,1765915288824,-1901,7428,1116,0,0,0,0,0
281,1765915288925,-69,9053,916,0,0,0,0,0
282,1765915289025,825,9204,-355,0,0,0,0,0
283,1765915289157,724,8178,763,0,0,0,0,0
284,1765915289407,788,9213,-894,0,0,0,0,0
285,1765915289460,846,5818,448,0,0,0,0,0
286,1765915289692,1331,8583,794,0,0,0,0,0
287,1765915289941,-455,9140,-282,0,0,0,0,0
288,1765915290025,1036,6912,-53,0,0,0,0,0
289,1765915290258,-886,9400,694,0,0,0,0,0
290,1765915290358,716,8780,437,0,0,0,0,0
291,1765915290474,-1543,6406,-1046,0,0,0,0,0
292,1765915290608,-754,9026,-1548,0,0,0,0,0
293,1765915290841,-1220,8458,-376,0,0,0,0,0
294,1765915290908,-590,9300,-1482,0,0,0,0,0
295,1765915291173,3165,6952,-2378,0,0,0,0,0
296,1765915291308,4460,9040,-1941,0,0,0,0,0
297,1765915291474,4110,7746,-1901,0,0,0,0,0
298,1765915291658,3406,8018,-2727,0,0,0,0,0
299,1765915291758,3776,9445,-1845,0,0,0,0,0
300,1765915292008,7472,9125,-2288,0,0,0,0,0
301,1765915292075,6958,8840,-1993,0,0,0,0,0
302,1765915292324,6383,7692,-3055,0,0,0,0,0
303,1765915292425,6056,6590,-2881,0,0,0,0,0
304,1765915292642,3440,7706,-969,0,0,0,0,0
305,1765915292794,4252,7732,-1709,0,0,0,0,0
306,1765915292941,4264,8895,-1499,0,0,0,0,0
307,1765915293123,3904,8151,-1383,0,0,0,0,0
308,1765915293241,4273,9099,-1628,0,0,0,0,0
309,1765915293491,4408,8404,-1855,0,0,0,0,0
310,1765915293558,5366,7534,-1180,0,0,0,0,0
311,1765915293791,5154,9806,-1956,0,0,0,0,0
312,1765915293908,5743,9904,-1289,0,0,0,0,0
313,1765915294125,3874,9344,-501,0,0,0,0,0
314,1765915294291,3666,7451,-904,0,0,0,0,0
315,1765915294424,4648,8631,409,0,0,0,0,0
316,1765915294690,2414,8438,755,0,0,0,0,0
317,1765915294807,3530,8061,1833,0,0,0,0,0
318,1765915294993,1800,8867,1262,0,0,0,0,0
319,1765915295158,3254,7464,1490,0,0,0,0,0
320,1765915295275,3348,8367,1509,0,0,0,0,0
321,1765915295558,-4039,5005,-2091,0,0,0,0,0
322,1765915295626,-4636,12092,-918,0,0,0,0,0
323,1765915295841,-7082,7742,-1440,0,0,0,0,0
324,1765915295973,-6145,5821,-709,0,0,0,0,0
325,1765915296158,-3464,6956,-2127,0,0,0,0,0
326,1765915296323,-1640,7892,-2208,0,0,0,0,0
327,1765915296458,-5632,11032,-3775,0,0,0,0,0
328,1765915296691,-4552,5689,-2102,0,0,0,0,0
329,1765915296758,-6219,7758,-3371,0,0,0,0,0
330,1765915296792,-7338,6944,-2828,0,0,0,0,0
331,1765915297042,-5001,7628,-1066,0,0,0,0,0
332,1765915297108,-2779,10756,-90,0,0,0,0,0
333,1765915297341,-2038,7197,-1012,0,0,0,0,0
334,1765915297459,-3892,10055,-2559,0,0,0,0,0
335,1765915297658,-6443,7376,-2740,0,0,0,0,0
336,1765915297808,-8360,7656,-3119,0,0,0,0,0
337,1765915297940,-6721,6878,-1840,0,0,0,0,0
338,1765915298175,-2584,7959,-1092,0,0,0,0,0
339,1765915298275,-2450,8707,-356,0,0,0,0,0
340,1765915298507,-2028,7790,-769,0,0,0,0,0
341,1765915298591,-2050,7241,-441,0,0,0,0,0
342,1765915298808,-3057,8295,-808,0,0,0,0,0
343,1765915298957,-2653,8091,-1042,0,0,0,0,0
344,1765915299123,-2829,8475,-1226,0,0,0,0,0
345,1765915299308,-2635,7910,-1024,0,0,0,0,0
346,1765915299464,-2240,8536,-292,0,0,0,0,0
347,1765915299691,-1978,8999,62,0,0,0,0,0
348,1765915299791,-1480,7412,271,0,0,0,0,0
349,1765915299991,324,9662,830,0,0,0,0,0
350,1765915300174,92,7362,-8,0,0,0,0,0
351,1765915300340,1938,8842,-254,0,0,0,0,0
352,1765915300574,260,8840,1272,0,0,0,0,0
353,1765915300708,-719,8438,112,0,0,0,0,0
354,1765915300859,1064,7677,598,0,0,0,0,0
355,1765915301141,3027,8451,-208,0,0,0,0,0
356,1765915301241,3504,8351,223,0,0,0,0,0
357,1765915301425,2845,8327,-394,0,0,0,0,0
358,1765915301625,4175,9058,788,0,0,0,0,0
359,1765915301774,-5048,8206,-514,0,0,0,0,0
360,1765915302008,-4327,7690,475,0,0,0,0,0
361,1765915302108,-5905,9044,-1378,0,0,0,0,0
362,1765915302307,-5297,6636,1062,0,0,0,0,0
363,1765915302575,4338,8113,-451,0,0,0,0,0
364,1765915302641,3486,8235,-826,0,0,0,0,0
365,1765915302875,1798,8700,-1066,0,0,0,0,0
366,1765915303025,-1604,6615,-1638,0,0,0,0,0
367,1765915303207,-1152,9613,225,0,0,0,0,0
368,1765915303441,-1146,8163,440,0,0,0,0,0
369,1765915303529,-986,9130,333,0,0,0,0,0
370,1765915303740,-30,7873,1213,0,0,0,0,0
371,1765915303940,-1626,8053,478,0,0,0,0,0
372,1765915304072,-1713,7784,440,0,0,0,0,0
373,1765915304290,-3110,9946,545,0,0,0,0,0
374,1765915304357,-3224,6094,-166,0,0,0,0,0
375,1765915304641,-1936,8477,172,0,0,0,0,0
376,1765915304758,-1982,8206,-312,0,0,0,0,0
377,1765915304926,-2378,8641,-344,0,0,0,0,0
378,1765915305109,-1771,6418,-1056,0,0,0,0,0
379,1765915305258,-3582,8922,-69,0,0,0,0,0
380,1765915305475,-2458,8685,-1980,0,0,0,0,0
381,1765915305558,-2316,7297,-1539,0,0,0,0,0
382,1765915305791,-3193,8662,-3158,0,0,0,0,0
383,1765915305891,-6247,7058,-3327,0,0,0,0,0
384,1765915306124,-4403,7004,-543,0,0,0,0,0
385,1765915306424,-3470,9036,-2039,0,0,0,0,0
386,1765915306641,-658,7316,-458,0,0,0,0,0
387,1765915306674,-3199,7846,-212,0,0,0,0,0
388,1765915306742,-3050,8323,-1198,0,0,0,0,0
389,1765915306974,-4682,7342,573,0,0,0,0,0
390,1765915307092,-4798,9445,-585,0,0,0,0,0
391,1765915307275,-4538,7852,514,0,0,0,0,0
392,1765915307525,-2658,9042,1592,0,0,0,0,0
393,1765915307591,-3290,8833,535,0,0,0,0,0
394,1765915307840,-3085,7279,1150,0,0,0,0,0
395,1765915307956,-3452,7812,910,0,0,0,0,0
396,1765915308173,-5512,8056,-343,0,0,0,0,0
397,1765915308308,-2668,8392,1406,0,0,0,0,0
398,1765915308459,-4082,8793,643,0,0,0,0,0
399,1765915308624,-3958,8370,771,0,0,0,0,0
400,1765915308774,-2762,7908,-8,0,0,0,0,0
401,1765915308908,-3150,9183,734,0,0,0,0,0
402,1765915309058,-2164,9619,655,0,0,0,0,0
403,1765915309257,-1538,8768,1591,0,0,0,0,0
404,1765915309374,-2484,7908,187,0,0,0,0,0
405,1765915309559,-352,9386,553,0,0,0,0,0
406,1765915309691,-1097,8673,91,0,0,0,0,0
407,1765915309890,-1195,8908,265,0,0,0,0,0
408,1765915309973,-1822,6994,442,0,0,0,0,0
409,1765915310175,-994,8356,513,0,0,0,0,0
410,1765915310308,370,9520,880,0,0,0,0,0
411,1765915310508,347,8926,549,0,0,0,0,0
412,1765915310592,-726,9229,524,0,0,0,0,0
413,1765915310907,250,7651,974,0,0,0,0,0
414,1765915311106,-217,8726,828,0,0,0,0,0
415,1765915311189,-395,7450,84,0,0,0,0,0
416,1765915311423,-922,8772,1316,0,0,0,0,0
417,1765915311506,-288,6524,404,0,0,0,0,0
418,1765915311707,1133,8663,1002,0,0,0,0,0
419,1765915311807,-1802,8627,-866,0,0,0,0,0
420,1765915312039,-314,7615,464,0,0,0,0,0
421,1765915312107,222,8656,452,0,0,0,0,0
422,1765915312290,376,7502,259,0,0,0,0,0
423,1765915312624,659,6908,590,0,0,0,0,0
424,1765915312708,1296,9724,62,0,0,0,0,0
425,1765915313023,-235,8164,766,0,0,0,0,0
426,1765915313225,-430,9218,-114,0,0,0,0,0
427,1765915313324,76,8399,240,0,0,0,0,0
428,1765915313541,-551,8145,132,0,0,0,0,0
429,1765915313641,-1705,7234,148,0,0,0,0,0
430,1765915313826,-740,9566,29,0,0,0,0,0
431,1765915313923,-1304,8697,812,0,0,0,0,0
432,1765915314156,-458,8416,213,0,0,0,0,0
433,1765915314208,-614,7573,838,0,0,0,0,0
434,1765915314408,-382,9956,892,0,0,0,0,0
435,1765915314526,-1053,6515,-324,0,0,0,0,0
436,1765915314724,523,9146,-131,0,0,0,0,0
437,1765915314808,-1232,8158,-193,0,0,0,0,0
438,1765915315108,158,8492,140,0,0,0,0,0
439,1765915315225,-481,7680,-1232,0,0,0,0,0
440,1765915315408,360,8258,-216,0,0,0,0,0
441,1765915315542,-354,8060,-1038,0,0,0,0,0
442,1765915315675,-594,10438,-1760,0,0,0,0,0
443,1765915315775,-1234,7170,-588,0,0,0,0,0
444,1765915315992,-3630,8855,-1951,0,0,0,0,0
445,1765915316058,-5923,8181,-2455,0,0,0,0,0
446,1765915316306,-5536,8398,-2217,0,0,0,0,0
447,1765915316373,-7136,7198,-1684,0,0,0,0,0
448,1765915316624,-6868,6519,-1700,0,0,0,0,0
449,1765915316674,-5608,8620,-792,0,0,0,0,0
450,1765915316908,-7265,8807,-2285,0,0,0,0,0
451,1765915317042,-5930,7297,-1258,0,0,0,0,0
452,1765915317108,-3022,10268,-568,0,0,0,0,0
453,1765915317241,-5968,6123,-1228,0,0,0,0,0
454,1765915317491,-7582,10024,-1601,0,0,0,0,0
455,1765915317542,-2325,10425,122,0,0,0,0,0
456,1765915317807,-5064,8387,-372,0,0,0,0,0
457,1765915318008,-3786,7418,-245,0,0,0,0,0
458,1765915318108,-4330,9182,-743,0,0,0,0,0
459,1765915318358,-4272,7834,-172,0,0,0,0,0
460,1765915318474,-4694,7755,-691,0,0,0,0,0
461,1765915318592,-5432,8095,864,0,0,0,0,0
462,1765915318692,-5581,7018,1920,0,0,0,0,0
463,1765915318924,-5872,8254,714,0,0,0,0,0
464,1765915319041,-5411,6688,970,0,0,0,0,0
465,1765915319257,-6825,7340,572,0,0,0,0,0
466,1765915319491,-6890,6718,-970,0,0,0,0,0
467,1765915319591,-6947,8515,11,0,0,0,0,0
468,1765915319790,-8174,7103,1108,0,0,0,0,0
469,1765915320073,-6336,7358,-1124,0,0,0,0,0
470,1765915320191,-9189,10872,471,0,0,0,0,0
471,1765915320375,-7524,7086,828,0,0,0,0,0
472,1765915320542,-6934,9335,476,0,0,0,0,0
473,1765915320623,-7237,6828,1470,0,0,0,0,0
474,1765915320707,-7894,9347,28,0,0,0,0,0
475,1765915320940,-9691,8808,-782,0,0,0,0,0
476,1765915321057,-6868,5255,431,0,0,0,0,0
477,1765915321224,-7683,7914,1174,0,0,0,0,0
478,1765915321510,-7222,8148,828,0,0,0,0,0
479,1765915321591,-7943,6579,-150,0,0,0,0,0
480,1765915321808,-7498,8868,186,0,0,0,0,0
481,1765915321975,-8055,7334,-230,0,0,0,0,0
482,1765915322075,-7387,8370,1003,0,0,0,0,0
483,1765915322142,-6336,6927,2590,0,0,0,0,0
484,1765915322374,-2081,8654,3921,0,0,0,0,0
485,1765915322523,152,8754,3415,0,0,0,0,0
486,1765915322689,6638,8876,-384,0,0,0,0,0
487,1765915322957,43,8382,347,0,0,0,0,0
488,1765915323040,2362,6758,2982,0,0,0,0,0
489,1765915323258,1740,10528,130,0,0,0,0,0
490,1765915323407,931,7164,270,0,0,0,0,0
491,1765915323508,1642,7911,1011,0,0,0,0,0
492,1765915323573,708,8862,64,0,0,0,0,0
493,1765915323823,1269,8348,-397,0,0,0,0,0
494,1765915323941,148,7454,1272,0,0,0,0,0
495,1765915324108,926,7581,-80,0,0,0,0,0
496,1765915324391,-817,9502,-646,0,0,0,0,0
497,1765915324473,583,7743,20,0,0,0,0,0
498,1765915324674,1982,8106,540,0,0,0,0,0
499,1765915324857,4054,8721,-220,0,0,0,0,0
500,1765915324924,6751,7371,-232,0,0,0,0,0
501,1765915325024,6553,8012,-1373,0,0,0,0,0
502,1765915325258,5691,7096,-1036,0,0,0,0,0
503,1765915325341,6208,5526,-2374,0,0,0,0,0
504,1765915325558,6920,8211,-2523,0,0,0,0,0
505,1765915325824,7056,7794,-3013,0,0,0,0,0
506,1765915325892,7743,7137,-2940,0,0,0,0,0
507,1765915326123,9201,7186,-2629,0,0,0,0,0
508,1765915326240,9308,9344,-1026,0,0,0,0,0
509,1765915326439,5900,10628,-1962,0,0,0,0,0
510,1765915326574,7330,6175,-1671,0,0,0,0,0
511,1765915326740,7261,11556,-574,0,0,0,0,0
512,1765915326925,7407,8580,465,0,0,0,0,0
513,1765915327058,3008,8673,2192,0,0,0,0,0
514,1765915327308,922,8773,-32,0,0,0,0,0
515,1765915327374,1840,6402,-1788,0,0,0,0,0
516,1765915327607,3414,9298,-638,0,0,0,0,0
517,1765915327775,862,7965,-678,0,0,0,0,0
518,1765915327925,1073,9018,-587,0,0,0,0,0
519,1765915328158,582,8031,-1629,0,0,0,0,0
520,1765915328225,662,8666,1214,0,0,0,0,0
521,1765915328508,-765,6798,533,0,0,0,0,0
522,1765915328675,1208,9962,1528,0,0,0,0,0
523,1765915328808,-975,8165,784,0,0,0,0,0
524,1765915329025,1340,9140,-872,0,0,0,0,0
525,1765915329108,131,8096,-1808,0,0,0,0,0
526,1765915329358,-4109,9273,-1792,0,0,0,0,0
527,1765915329474,-3204,8885,-1332,0,0,0,0,0
528,1765915329658,-3378,7118,-1883,0,0,0,0,0
529,1765915329808,-3629,8464,-665,0,0,0,0,0
530,1765915329975,-4766,7526,-1321,0,0,0,0,0
531,1765915330175,-5322,8510,-1559,0,0,0,0,0
532,1765915330275,-5045,6291,-1028,0,0,0,0,0
533,1765915330508,-4523,8704,-1766,0,0,0,0,0
534,1765915330524,-5267,6664,-1266,0,0,0,0,0
535,1765915330608,-5159,9684,-1170,0,0,0,0,0
536,1765915330842,-4608,8052,-682,0,0,0,0,0
537,1765915330925,-4900,7585,-1644,0,0,0,0,0
538,1765915331123,-5488,7869,-1914,0,0,0,0,0
539,1765915331273,-5240,7376,-1130,0,0,0,0,0
540,1765915331455,-4617,8638,-1023,0,0,0,0,0
541,1765915331625,-4642,6745,-1101,0,0,0,0,0
542,1765915331758,-5046,8154,-1139,0,0,0,0,0
543,1765915331958,-3204,8225,-760,0,0,0,0,0
544,1765915332074,-3005,7510,-997,0,0,0,0,0
545,1765915332306,-4088,8655,-743,0,0,0,0,0
546,1765915332374,-3563,7006,-618,0,0,0,0,0
547,1765915332608,-2974,9424,-1288,0,0,0,0,0
548,1765915332624,-1478,8004,-614,0,0,0,0,0
549,1765915332724,-1912,9255,-554,0,0,0,0,0
550,1765915332925,-1650,7781,-1066,0,0,0,0,0
551,1765915333058,-660,10082,-672,0,0,0,0,0
552,1765915333208,-1819,9213,-1143,0,0,0,0,0
553,1765915333425,-1298,8018,-262,0,0,0,0,0
554,1765915333541,-1742,9845,-966,0,0,0,0,0
555,1765915333758,-1682,7640,-861,0,0,0,0,0
556,1765915333841,-1584,8064,-379,0,0,0,0,0
557,1765915334091,863,7539,-52,0,0,0,0,0
558,1765915334174,194,7293,-844,0,0,0,0,0
559,1765915334391,1499,9998,-970,0,0,0,0,0
560,1765915334540,-184,7602,-1688,0,0,0,0,0
561,1765915334690,-1370,7989,-1185,0,0,0,0,0
562,1765915334874,410,10097,-792,0,0,0,0,0
563,1765915335008,1164,8459,-534,0,0,0,0,0
564,1765915335241,284,7575,-683,0,0,0,0,0
565,1765915335308,594,8296,-716,0,0,0,0,0
566,1765915335575,-259,9065,-1462,0,0,0,0,0
567,1765915335658,46,6986,-432,0,0,0,0,0
568,1765915335874,290,8434,-707,0,0,0,0,0
569,1765915336008,-543,8270,-1185,0,0,0,0,0
570,1765915336192,-618,7652,-1792,0,0,0,0,0
571,1765915336390,84,7325,-194,0,0,0,0,0
572,1765915336491,-328,9403,-686,0,0,0,0,0
573,1765915336725,437,8238,-604,0,0,0,0,0
574,1765915336791,217,8918,-251,0,0,0,0,0
575,1765915337057,-1539,7391,-1738,0,0,0,0,0
576,1765915337124,-950,9416,-606,0,0,0,0,0
577,1765915337341,-899,7289,-618,0,0,0,0,0
578,1765915337491,-825,8384,-710,0,0,0,0,0
579,1765915337825,-827,9272,-874,0,0,0,0,0
580,1765915337958,-827,7017,-690,0,0,0,0,0
581,1765915338192,-649,8350,-778,0,0,0,0,0
582,1765915338292,-88,8408,-555,0,0,0,0,0
583,1765915338525,-643,8361,-755,0,0,0,0,0
584,1765915338607,-760,8564,-508,0,0,0,0,0
585,1765915338825,-882,7759,-569,0,0,0,0,0
586,1765915338940,-552,8475,-381,0,0,0,0,0
587,1765915338957,-979,8246,-1011,0,0,0,0,0
588,1765915339140,-731,8924,-436,0,0,0,0,0
589,1765915339308,-373,8414,-941,0,0,0,0,0
590,1765915339441,-378,7278,-853,0,0,0,0,0
591,1765915339691,-439,7471,-686,0,0,0,0,0
592,1765915339756,114,8100,-1114,0,0,0,0,0
593,1765915340008,-655,8070,-697,0,0,0,0,0
594,1765915340091,350,8301,-472,0,0,0,0,0
595,1765915340291,148,8733,-559,0,0,0,0,0
596,1765915340457,610,9431,-976,0,0,0,0,0
597,1765915340607,840,9162,-392,0,0,0,0,0
598,1765915340791,425,7252,-784,0,0,0,0,0
599,1765915340908,948,8411,-907,0,0,0,0,0
600,1765915341141,951,8370,-1172,0,0,0,0,0
601,1765915341242,1260,7088,-687,0,0,0,0,0
602,1765915341473,886,8138,-624,0,0,0,0,0
603,1765915341558,427,8439,-801,0,0,0,0,0
604,1765915341791,175,7804,-1175,0,0,0,0,0
605,1765915341925,196,8150,-1187,0,0,0,0,0
606,1765915342091,198,8697,-708,0,0,0,0,0
607,1765915342258,-642,8254,-978,0,0,0,0,0
608,1765915342391,-502,8400,-472,0,0,0,0,0
609,1765915342608,-1082,7524,-874,0,0,0,0,0
610,1765915342708,-1384,8482,-900,0,0,0,0,0
611,1765915342941,-689,9042,-680,0,0,0,0,0
612,1765915343024,-1097,7040,-752,0,0,0,0,0
613,1765915343239,-452,8944,-1312,0,0,0,0,0
614,1765915343308,-969,7874,-712,0,0,0,0,0
615,1765915343525,-1452,8030,-771,0,0,0,0,0
616,1765915343607,-1436,8279,-1270,0,0,0,0,0
617,1765915343925,-911,8143,-684,0,0,0,0,0
618,1765915344092,-1220,8148,-711,0,0,0,0,0
619,1765915344208,-1394,8918,-904,0,0,0,0,0
620,1765915344408,-1237,8204,-914,0,0,0,0,0
621,1765915344524,-671,8066,-655,0,0,0,0,0
622,1765915344641,-1231,8234,-742,0,0,0,0,0
623,1765915344808,-1464,8268,-1009,0,0,0,0,0
624,1765915344957,-978,7972,-615,0,0,0,0,0
625,1765915345106,-906,8498,-824,0,0,0,0,0
626,1765915345208,-630,8040,-922,0,0,0,0,0
627,1765915345425,-742,8129,-714,0,0,0,0,0
628,1765915345506,-1214,7942,-755,0,0,0,0,0
629,1765915345708,-952,8794,-749,0,0,0,0,0
630,1765915345825,-652,7599,-702,0,0,0,0,0
631,1765915345958,-686,8401,-581,0,0,0,0,0
632,1765915346074,-953,8130,-838,0,0,0,0,0
633,1765915346274,-877,8961,-837,0,0,0,0,0
634,1765915346358,-554,7831,-846,0,0,0,0,0
635,1765915346674,-383,7948,-766,0,0,0,0,0
636,1765915346740,-544,8009,-910,0,0,0,0,0
637,1765915346958,-275,8662,-1240,0,0,0,0,0
638,1765915347058,-377,8109,-1322,0,0,0,0,0
639,1765915347324,-364,8488,-1482,0,0,0,0,0
640,1765915347491,-452,7961,-1559,0,0,0,0,0
641,1765915347608,-454,8194,-1489,0,0,0,0,0
642,1765915347791,-279,8246,-1449,0,0,0,0,0
643,1765915347908,-211,8320,-414,0,0,0,0,0
644,1765915348007,-284,8138,281,0,0,0,0,0
645,1765915348208,-458,8426,-306,0,0,0,0,0
646,1765915348324,-270,8244,-492,0,0,0,0,0
647,1765915348491,-278,8141,-660,0,0,0,0,0
648,1765915348608,-515,8212,-577,0,0,0,0,0
649,1765915348724,-434,8159,-494,0,0,0,0,0
650,1765915348858,-343,8292,-498,0,0,0,0,0
651,1765915349058,-288,8375,-468,0,0,0,0,0
652,1765915349141,-373,8259,-340,0,0,0,0,0
653,1765915349407,-379,8278,-438,0,0,0,0,0
654,1765915349508,-352,8273,-482,0,0,0,0,0
655,1765915349722,-360,8338,-499,0,0,0,0,0
656,1765915349791,-337,8196,-491,0,0,0,0,0
657,1765915350075,-339,8186,-383,0,0,0,0,0
658,1765915350158,-357,8380,-477,0,0,0,0,0
659,1765915350357,-330,8297,-446,0,0,0,0,0
660,1765915350441,-363,8235,-428,0,0,0,0,0
661,1765915350741,-358,8289,-452,0,0,0,0,0
662,1765915350791,-350,8308,-402,0,0,0,0,0
663,1765915351008,-345,8320,-420,0,0,0,0,0
664,1765915351074,-348,8292,-458,0,0,0,0,0
665,1765915351391,-346,8275,-444,0,0,0,0,0
666,1765915351558,-352,8330,-432,0,0,0,0,0
667,1765915351674,-352,8287,-428,0,0,0,0,0
668,1765915351875,-364,8253,-445,0,0,0,0,0
669,1765915352008,-364,8286,-464,0,0,0,0,0
670,1765915352225,-342,8306,-463,0,0,0,0,0
671,1765915352308,-341,8289,-451,0,0,0,0,0
672,1765915352541,-386,8282,-450,0,0,0,0,0
673,1765915352625,-344,8308,-440,0,0,0,0,0
674,1765915352858,-343,8296,-472,0,0,0,0,0
675,1765915352941,-365,8289,-461,0,0,0,0,0
676,1765915353158,-359,8292,-457,0,0,0,0,0
677,1765915353258,-341,8292,-427,0,0,0,0,0
678,1765915353474,-380,8279,-458,0,0,0,0,0
679,1765915353575,-351,8303,-430,0,0,0,0,0
680,1765915353758,-352,8311,-437,0,0,0,0,0
681,1765915353924,-369,8289,-468,0,0,0,0,0
682,1765915354091,-354,8296,-435,0,0,0,0,0
683,1765915354274,-349,8298,-450,0,0,0,0,0
684,1765915354390,-377,8290,-468,0,0,0,0,0
685,1765915354623,-346,8300,-454,0,0,0,0,0
686,1765915354690,-361,8270,-438,0,0,0,0,0
687,1765915354941,-352,8286,-452,0,0,0,0,0
688,1765915355055,-356,8282,-442,0,0,0,0,0
689,1765915355241,-364,8300,-448,0,0,0,0,0
690,1765915355391,-346,8304,-426,0,0,0,0,0
691,1765915355574,-366,8230,-450,0,0,0,0,0
692,1765915355740,-354,8362,-421,0,0,0,0,0
693,1765915355858,-343,8278,-421,0,0,0,0,0
694,1765915356091,-366,8252,-451,0,0,0,0,0
695,1765915356191,-354,8302,-446,0,0,0,0,0
696,1765915356425,-336,8281,-440,0,0,0,0,0
697,1765915356490,-366,8302,-443,0,0,0,0,0
698,1765915356706,-357,8303,-445,0,0,0,0,0
699,1765915356807,-354,8266,-459,0,0,0,0,0
700,1765915357041,-364,8324,-446,0,0,0,0,0
701,1765915357174,-347,8278,-452,0,0,0,0,0
702,1765915357324,-367,8296,-448,0,0,0,0,0
703,1765915357491,-358,8296,-445,0,0,0,0,0
704,1765915357658,-370,8271,-447,0,0,0,0,0
705,1765915357855,-331,8311,-460,0,0,0,0,0
706,1765915357957,-376,8286,-484,0,0,0,0,0
707,1765915358172,-355,8326,-412,0,0,0,0,0
708,1765915358272,-344,8281,-429,0,0,0,0,0
709,1765915358505,-360,8276,-444,0,0,0,0,0
710,1765915358623,-368,8316,-457,0,0,0,0,0
711,1765915358807,-341,8292,-462,0,0,0,0,0
712,1765915358974,-346,8289,-462,0,0,0,0,0
713,1765915359125,-350,8274,-455,0,0,0,0,0
714,1765915359290,-350,8302,-460,0,0,0,0,0
715,1765915359408,-368,8298,-456,0,0,0,0,0
716,1765915359640,-349,8290,-438,0,0,0,0,0
717,1765915359740,-348,8274,-448,0,0,0,0,0
718,1765915359975,-360,8311,-464,0,0,0,0,0
719,1765915360040,-354,8303,-441,0,0,0,0,0
720,1765915360274,-339,8280,-397,0,0,0,0,0
721,1765915360374,-366,8306,-457,0,0,0,0,0
722,1765915360407,-354,8275,-486,0,0,0,0,0
723,1765915360590,-357,8315,-419,0,0,0,0,0
724,1765915360740,-352,8291,-403,0,0,0,0,0
725,1765915360891,-354,8285,-454,0,0,0,0,0
726,1765915361108,-368,8291,-470,0,0,0,0,0
727,1765915361224,-355,8276,-436,0,0,0,0,0
728,1765915361441,-354,8309,-431,0,0,0,0,0
729,1765915361524,-348,8315,-465,0,0,0,0,0
730,1765915361740,-357,8286,-454,0,0,0,0,0
731,1765915361774,-359,8284,-472,0,0,0,0,0
732,1765915361857,-338,8324,-406,0,0,0,0,0
733,1765915362074,-357,8269,-446,0,0,0,0,0
734,1765915362207,-358,8286,-492,0,0,0,0,0
735,1765915362358,-373,8333,-474,0,0,0,0,0
736,1765915362526,-356,8311,-428,0,0,0,0,0
737,1765915362674,-351,8282,-451,0,0,0,0,0
738,1765915362874,-364,8296,-490,0,0,0,0,0
739,1765915362974,-356,8306,-478,0,0,0,0,0
740,1765915363257,-346,8322,-442,0,0,0,0,0
741,1765915363308,-354,8304,-463,0,0,0,0,0
742,1765915363539,-391,8276,-484,0,0,0,0,0
743,1765915363657,-342,8293,-456,0,0,0,0,0
744,1765915363841,-350,8260,-424,0,0,0,0,0
745,1765915364008,-358,8301,-458,0,0,0,0,0
746,1765915364158,-349,8302,-447,0,0,0,0,0
747,1765915364374,-362,8282,-456,0,0,0,0,0
748,1765915364458,-358,8290,-443,0,0,0,0,0
749,1765915364724,-349,8284,-447,0,0,0,0,0
750,1765915364791,-348,8286,-441,0,0,0,0,0
751,1765915365007,-364,8320,-472,0,0,0,0,0
752,1765915365122,-361,8284,-445,0,0,0,0,0
753,1765915365341,-350,8300,-452,0,0,0,0,0
754,1765915365491,-359,8296,-453,0,0,0,0,0
755,1765915365624,-348,8296,-445,0,0,0,0,0
756,1765915365858,-357,8285,-423,0,0,0,0,0
757,1765915365924,-355,8317,-445,0,0,0,0,0
758,1765915366175,-359,8282,-448,0,0,0,0,0
759,1765915366258,-364,8321,-438,0,0,0,0,0
760,1765915366591,-358,8280,-448,0,0,0,0,0
761,1765915366808,-356,8291,-445,0,0,0,0,0
762,1765915366939,-352,8301,-455,0,0,0,0,0
763,1765915367108,-352,8302,-464,0,0,0,0,0
764,1765915367274,-350,8293,-455,0,0,0,0,0
765,1765915367441,-356,8307,-463,0,0,0,0,0
766,1765915367658,-361,8296,-470,0,0,0,0,0
767,1765915367725,-354,8288,-460,0,0,0,0,0
768,1765915367958,-342,8301,-432,0,0,0,0,0
769,1765915368074,-348,8322,-424,0,0,0,0,0
770,1765915368290,-365,8244,-400,0,0,0,0,0
771,1765915368408,-316,8306,-453,0,0,0,0,0
772,1765915368575,-306,8338,-501,0,0,0,0,0
773,1765915368741,-347,8268,-419,0,0,0,0,0
774,1765915368891,-378,8260,-442,0,0,0,0,0
775,1765915369108,-345,8281,-466,0,0,0,0,0
776,1765915369191,-342,8280,-478,0,0,0,0,0
777,1765915369441,-314,8320,-390,0,0,0,0,0
778,1765915369522,-347,8272,-439,0,0,0,0,0
779,1765915369757,-340,8322,-432,0,0,0,0,0
780,1765915369858,-346,8309,-472,0,0,0,0,0
781,1765915370041,-346,8275,-446,0,0,0,0,0
782,1765915370208,-343,8285,-412,0,0,0,0,0
783,1765915370372,-386,8290,-477,0,0,0,0,0
784,1765915370557,-316,8231,-425,0,0,0,0,0
785,1765915370674,-344,8312,-470,0,0,0,0,0
786,1765915370907,-353,8264,-446,0,0,0,0,0
787,1765915370991,-325,8339,-451,0,0,0,0,0
788,1765915371222,-384,8306,-464,0,0,0,0,0
789,1765915371324,-331,8296,-435,0,0,0,0,0
790,1765915371525,-332,8270,-416,0,0,0,0,0
791,1765915371691,-337,8327,-465,0,0,0,0,0
792,1765915371857,-363,8312,-436,0,0,0,0,0
793,1765915372040,-336,8218,-418,0,0,0,0,0
794,1765915372140,-331,8303,-413,0,0,0,0,0
795,1765915372390,-352,8275,-455,0,0,0,0,0
796,1765915372458,-314,8292,-418,0,0,0,0,0
797,1765915372708,-390,8341,-449,0,0,0,0,0
798,1765915372774,-369,8260,-435,0,0,0,0,0
799,1765915373024,-336,8314,-433,0,0,0,0,0
800,1765915373141,-353,8296,-419,0,0,0,0,0
801,1765915373324,-350,8279,-452,0,0,0,0,0
802,1765915373491,-292,8346,-461,0,0,0,0,0
803,1765915373624,-416,8275,-458,0,0,0,0,0
804,1765915373823,-339,8312,-430,0,0,0,0,0
805,1765915373941,-321,8307,-456,0,0,0,0,0
806,1765915374174,-358,8290,-452,0,0,0,0,0
807,1765915374240,-360,8279,-461,0,0,0,0,0
808,1765915374491,-334,8299,-439,0,0,0,0,0
809,1765915374606,-356,8300,-463,0,0,0,0,0
810,1765915374791,-356,8290,-444,0,0,0,0,0
811,1765915374940,-336,8296,-433,0,0,0,0,0
812,1765915375107,-352,8314,-469,0,0,0,0,0
813,1765915375290,-342,8290,-403,0,0,0,0,0
814,1765915375407,-361,8287,-422,0,0,0,0,0
815,1765915375624,-351,8306,-440,0,0,0,0,0
816,1765915376557,-355,8266,-429,0,0,0,0,0
817,1765915376757,-354,8300,-440,0,0,0,0,0
818,1765915376841,-336,8292,-480,0,0,0,0,0
819,1765915377057,-335,8316,-458,0,0,0,0,0
820,1765915377124,-364,8254,-436,0,0,0,0,0
821,1765915377374,-331,8303,-445,0,0,0,0,0
822,1765915377474,-340,8274,-432,0,0,0,0,0
823,1765915377657,-362,8294,-440,0,0,0,0,0
824,1765915377756,-347,8318,-434,0,0,0,0,0
825,1765915377957,-344,8280,-456,0,0,0,0,0
826,1765915378123,-351,8292,-451,0,0,0,0,0
827,1765915378224,-342,8310,-408,0,0,0,0,0
828,1765915378391,-333,8281,-404,0,0,0,0,0
829,1765915378491,-339,8317,-466,0,0,0,0,0
830,1765915378741,-356,8309,-499,0,0,0,0,0
831,1765915378807,-339,8283,-412,0,0,0,0,0
832,1765915379041,-356,8313,-395,0,0,0,0,0
833,1765915379091,-340,8303,-410,0,0,0,0,0
834,1765915379324,-364,8288,-452,0,0,0,0,0
835,1765915379424,-347,8286,-456,0,0,0,0,0
836,1765915379607,-336,8310,-428,0,0,0,0,0
837,1765915379722,-354,8285,-438,0,0,0,0,0
838,1765915379973,-389,8288,-438,0,0,0,0,0
839,1765915380072,-309,8292,-259,0,0,0,0,0
840,1765915380307,-305,8283,-434,0,0,0,0,0
841,1765915380374,-359,8315,-449,0,0,0,0,0
842,1765915380573,-361,8282,-446,0,0,0,0,0
843,1765915380691,-342,8317,-449,0,0,0,0,0
844,1765915380909,-336,8277,-437,0,0,0,0,0
845,1765915380974,-353,8288,-418,0,0,0,0,0
846,1765915381207,-350,8301,-450,0,0,0,0,0
847,1765915381290,-341,8278,-444,0,0,0,0,0
848,1765915381507,-336,8311,-420,0,0,0,0,0
849,1765915381590,-346,8303,-440,0,0,0,0,0
850,1765915381824,-339,8265,-454,0,0,0,0,0
851,1765915381874,-341,8312,-441,0,0,0,0,0
852,1765915382108,-340,8295,-458,0,0,0,0,0
853,1765915382190,-347,8314,-443,0,0,0,0,0
854,1765915382424,-352,8284,-430,0,0,0,0,0
855,1765915382740,-349,8289,-448,0,0,0,0,0
856,1765915382807,-337,8293,-442,0,0,0,0,0
857,1765915383041,-351,8295,-426,0,0,0,0,0
858,1765915383123,-344,8309,-442,0,0,0,0,0
859,1765915383357,-340,8292,-434,0,0,0,0,0
860,1765915383407,-352,8298,-443,0,0,0,0,0
861,1765915383658,-352,8288,-440,0,0,0,0,0
862,1765915383758,-338,8282,-443,0,0,0,0,0
863,1765915383941,-355,8314,-448,0,0,0,0,0
864,1765915384257,-336,8284,-458,0,0,0,0,0
865,1765915384357,-364,8268,-469,0,0,0,0,0
866,1765915384557,-354,8306,-464,0,0,0,0,0
867,1765915384674,-330,8294,-460,0,0,0,0,0
868,1765915384874,-350,8280,-420,0,0,0,0,0
869,1765915384974,-350,8314,-443,0,0,0,0,0
870,1765915385157,-339,8293,-459,0,0,0,0,0
871,1765915385307,-335,8310,-462,0,0,0,0,0
872,1765915385474,-346,8311,-438,0,0,0,0,0
873,1765915385591,-348,8265,-430,0,0,0,0,0
874,1765915385772,-350,8298,-446,0,0,0,0,0
875,1765915385923,-342,8307,-437,0,0,0,0,0
876,1765915386074,-345,8296,-444,0,0,0,0,0
877,1765915386224,-356,8309,-462,0,0,0,0,0
878,1765915386391,-342,8281,-443,0,0,0,0,0
879,1765915386555,-349,8290,-428,0,0,0,0,0
880,1765915386674,-351,8311,-426,0,0,0,0,0
881,1765915386825,-344,8316,-418,0,0,0,0,0
882,1765915386991,-343,8265,-455,0,0,0,0,0
883,1765915387157,-361,8303,-464,0,0,0,0,0
884,1765915387274,-352,8289,-433,0,0,0,0,0
885,1765915387607,-334,8314,-433,0,0,0,0,0
886,1765915387757,-340,8288,-420,0,0,0,0,0
887,1765915387978,-352,8273,-447,0,0,0,0,0
888,1765915388090,-338,8305,-468,0,0,0,0,0
889,1765915388207,-336,8289,-409,0,0,0,0,0
890,1765915388358,-357,8299,-452,0,0,0,0,0
891,1765915388507,-348,8294,-456,0,0,0,0,0
892,1765915388707,-342,8286,-460,0,0,0,0,0
893,1765915388807,-347,8303,-418,0,0,0,0,0
894,1765915389007,-350,8293,-430,0,0,0,0,0
895,1765915389123,-348,8306,-441,0,0,0,0,0
896,1765915389341,-355,8296,-458,0,0,0,0,0
897,1765915389407,-339,8288,-446,0,0,0,0,0
898,1765915389624,-353,8274,-444,0,0,0,0,0
899,1765915389723,-342,8304,-443,0,0,0,0,0
900,1765915389955,-336,8300,-440,0,0,0,0,0
901,1765915390024,-346,8299,-425,0,0,0,0,0
902,1765915390341,-353,8284,-447,0,0,0,0,0
903,1765915390574,-348,8306,-452,0,0,0,0,0
904,1765915390623,-345,8309,-455,0,0,0,0,0
905,1765915390874,-345,8285,-440,0,0,0,0,0
906,1765915391190,-351,8276,-443,0,0,0,0,0
907,1765915391290,-348,8304,-438,0,0,0,0,0
908,1765915391474,-351,8306,-443,0,0,0,0,0
909,1765915391607,-342,8305,-445,0,0,0,0,0
910,1765915391790,-330,8316,-429,0,0,0,0,0
911,1765915391924,-340,8297,-445,0,0,0,0,0
912,1765915392091,-348,8292,-439,0,0,0,0,0
913,1765915392258,-348,8303,-463,0,0,0,0,0
914,1765915392407,-340,8282,-448,0,0,0,0,0
915,1765915392557,-349,8332,-434,0,0,0,0,0
916,1765915392708,-341,8282,-441,0,0,0,0,0
917,1765915392891,-351,8287,-439,0,0,0,0,0
918,1765915393007,-345,8321,-454,0,0,0,0,0
919,1765915393190,-348,8287,-449,0,0,0,0,0
920,1765915393324,-348,8311,-438,0,0,0,0,0
921,1765915393541,-343,8279,-438,0,0,0,0,0
922,1765915393607,-344,8308,-428,0,0,0,0,0
923,1765915393857,-338,8290,-447,0,0,0,0,0
924,1765915393924,-343,8313,-447,0,0,0,0,0
925,1765915394172,-342,8284,-445,0,0,0,0,0
926,1765915394241,-343,8282,-434,0,0,0,0,0
927,1765915394491,-347,8310,-452,0,0,0,0,0
928,1765915394575,-344,8274,-451,0,0,0,0,0
929,1765915394774,-353,8306,-444,0,0,0,0,0
930,1765915394890,-340,8294,-434,0,0,0,0,0
931,1765915395073,-350,8290,-449,0,0,0,0,0
932,1765915395174,-354,8294,-451,0,0,0,0,0
933,1765915395390,-351,8295,-445,0,0,0,0,0
934,1765915395507,-354,8300,-439,0,0,0,0,0
935,1765915395690,-338,8292,-440,0,0,0,0,0
936,1765915396007,-342,8298,-454,0,0,0,0,0
937,1765915396157,-356,8281,-444,0,0,0,0,0
938,1765915396307,-341,8317,-439,0,0,0,0,0
939,1765915396491,-350,8279,-443,0,0,0,0,0
940,1765915396607,-344,8301,-450,0,0,0,0,0
941,1765915396773,-348,8294,-442,0,0,0,0,0
942,1765915396907,-351,8288,-445,0,0,0,0,0
943,1765915397090,-338,8310,-433,0,0,0,0,0
944,1765915397224,-345,8298,-441,0,0,0,0,0
945,1765915397407,-344,8304,-454,0,0,0,0,0
946,1765915397507,-346,8288,-447,0,0,0,0,0
947,1765915397739,-349,8291,-448,0,0,0,0,0
948,1765915397807,-348,8309,-428,0,0,0,0,0
949,1765915398022,-347,8303,-433,0,0,0,0,0
950,1765915398123,-346,8300,-429,0,0,0,0,0
951,1765915398357,-344,8301,-441,0,0,0,0,0
952,1765915398439,-343,8288,-454,0,0,0,0,0
953,1765915398657,-344,8301,-445,0,0,0,0,0
954,1765915398739,-348,8296,-382,0,0,0,0,0
955,1765915398974,-345,8288,-452,0,0,0,0,0
956,1765915399057,-362,8308,-459,0,0,0,0,0
957,1765915399257,-339,8279,-435,0,0,0,0,0
958,1765915399289,-354,8304,-443,0,0,0,0,0
959,1765915399357,-336,8280,-454,0,0,0,0,0
960,1765915399575,-352,8314,-447,0,0,0,0,0
961,1765915399674,-350,8300,-442,0,0,0,0,0
962,1765915399874,-351,8290,-430,0,0,0,0,0
963,1765915400190,-350,8298,-433,0,0,0,0,0
964,1765915400290,-351,8290,-432,0,0,0,0,0
965,1765915400491,-346,8305,-454,0,0,0,0,0
966,1765915400624,-359,8300,-452,0,0,0,0,0
967,1765915400807,-331,8312,-442,0,0,0,0,0
968,1765915400907,-345,8283,-446,0,0,0,0,0
969,1765915401091,-341,8294,-441,0,0,0,0,0
970,1765915401224,-350,8299,-456,0,0,0,0,0
971,1765915401407,-346,8288,-419,0,0,0,0,0
972,1765915401524,-348,8292,-448,0,0,0,0,0
973,1765915401707,-352,8296,-472,0,0,0,0,0
974,1765915401856,-340,8298,-464,0,0,0,0,0
975,1765915401990,-345,8298,-419,0,0,0,0,0
976,1765915402157,-339,8292,-448,0,0,0,0,0
977,1765915402307,-348,8294,-458,0,0,0,0,0
978,1765915402491,-370,8310,-460,0,0,0,0,0
979,1765915402607,-344,8266,-437,0,0,0,0,0
980,1765915402774,-352,8296,-440,0,0,0,0,0
981,1765915402924,-355,8298,-456,0,0,0,0,0
982,1765915403141,-348,8290,-445,0,0,0,0,0
983,1765915403224,-338,8298,-432,0,0,0,0,0
984,1765915403541,-344,8286,-463,0,0,0,0,0
985,1765915403757,-332,8284,-466,0,0,0,0,0
986,1765915403824,-320,8321,-438,0,0,0,0,0
987,1765915404074,-372,8266,-420,0,0,0,0,0
988,1765915404141,-354,8284,-442,0,0,0,0,0
989,1765915404389,-335,8306,-450,0,0,0,0,0
990,1765915404440,-352,8276,-429,0,0,0,0,0
991,1765915404688,-340,8306,-422,0,0,0,0,0
992,1765915404790,-345,8302,-456,0,0,0,0,0
993,1765915405007,-323,8314,-469,0,0,0,0,0
994,1765915405073,-346,8358,-432,0,0,0,0,0
995,1765915405290,-368,8196,-448,0,0,0,0,0
996,1765915405389,-336,8317,-444,0,0,0,0,0
997,1765915405607,-330,8316,-429,0,0,0,0,0
998,1765915405705,-352,8278,-446,0,0,0,0,0
999,1765915405891,-359,8284,-460,0,0,0,0,0
1000,1765915406008,-334,8327,-458,0,0,0,0,0
1001,1765915406190,-347,8292,-424,0,0,0,0,0
1002,1765915406256,-347,8306,-458,0,0,0,0,0
1003,1765915406407,-354,8273,-466,0,0,0,0,0
1004,1765915406557,-362,8277,-457,0,0,0,0,0
1005,1765915406724,-319,8337,-444,0,0,0,0,0
1006,1765915406841,-350,8286,-416,0,0,0,0,0
1007,1765915406907,-360,8297,-448,0,0,0,0,0
1008,1765915407091,-350,8290,-444,0,0,0,0,0
1009,1765915407190,-338,8290,-436,0,0,0,0,0
1010,1765915407490,-358,8299,-449,0,0,0,0,0
1011,1765915407757,-338,8314,-444,0,0,0,0,0
1012,1765915407840,-345,8291,-432,0,0,0,0,0
1013,1765915408057,-348,8282,-443,0,0,0,0,0
1014,1765915408140,-344,8303,-443,0,0,0,0,0
1015,1765915408424,-346,8270,-455,0,0,0,0,0
1016,1765915408490,-358,8302,-452,0,0,0,0,0
1017,1765915408707,-332,8318,-413,0,0,0,0,0
1018,1765915408774,-344,8282,-444,0,0,0,0,0
1019,1765915409057,-343,8330,-422,0,0,0,0,0
1020,1765915409124,-333,8303,-468,0,0,0,0,0
1021,1765915409357,-353,8230,-520,0,0,0,0,0
1022,1765915409408,-362,8322,-468,0,0,0,0,0
1023,1765915409706,-329,8289,-433,0,0,0,0,0
1024,1765915409773,-360,8281,-452,0,0,0,0,0
1025,1765915410008,-367,8306,-475,0,0,0,0,0
1026,1765915410057,-334,8288,-484,0,0,0,0,0
1027,1765915410358,-341,8310,-456,0,0,0,0,0
1028,1765915410440,-328,8297,-449,0,0,0,0,0
1029,1765915410640,-356,8268,-464,0,0,0,0,0
1030,1765915410708,-360,8310,-460,0,0,0,0,0
1031,1765915410991,-344,8296,-420,0,0,0,0,0
1032,1765915411757,-346,8290,-460,0,0,0,0,0
1033,1765915411940,-344,8280,-459,0,0,0,0,0
1034,1765915412057,-332,8312,-453,0,0,0,0,0
1035,1765915412223,-359,8296,-405,0,0,0,0,0
1036,1765915412374,-346,8290,-449,0,0,0,0,0
1037,1765915412557,-353,8290,-470,0,0,0,0,0
1038,1765915412657,-344,8287,-474,0,0,0,0,0
1039,1765915412842,-349,8300,-422,0,0,0,0,0
1040,1765915412940,-352,8302,-414,0,0,0,0,0
1041,1765915413191,-366,8306,-441,0,0,0,0,0
1042,1765915413290,-333,8296,-435,0,0,0,0,0
1043,1765915413474,-339,8291,-446,0,0,0,0,0
1044,1765915413574,-348,8296,-434,0,0,0,0,0
1045,1765915413823,-340,8288,-440,0,0,0,0,0
1046,1765915413906,-346,8293,-447,0,0,0,0,0
1047,1765915414107,-339,8295,-440,0,0,0,0,0
1048,1765915414174,-350,8292,-444,0,0,0,0,0
1049,1765915414473,-357,8289,-428,0,0,0,0,0
1050,1765915414541,-358,8284,-476,0,0,0,0,0
1051,1765915414774,-336,8292,-484,0,0,0,0,0
1052,1765915414891,-344,8300,-464,0,0,0,0,0
1053,1765915415090,-353,8281,-417,0,0,0,0,0
1054,1765915415190,-342,8308,-442,0,0,0,0,0
1055,1765915415374,-341,8290,-460,0,0,0,0,0
1056,1765915415524,-350,8286,-454,0,0,0,0,0
1057,1765915415690,-375,8256,-449,0,0,0,0,0
1058,1765915415857,-335,8336,-390,0,0,0,0,0
1059,1765915415990,-309,8304,-373,0,0,0,0,0
1060,1765915416190,-364,8272,-422,0,0,0,0,0
1061,1765915416289,-360,8309,-472,0,0,0,0,0
1062,1765915416539,-326,8347,-441,0,0,0,0,0
1063,1765915416640,-338,8270,-448,0,0,0,0,0
1064,1765915416840,-392,8264,-411,0,0,0,0,0
1065,1765915416972,-302,8331,-380,0,0,0,0,0
1066,1765915417173,-317,8339,-425,0,0,0,0,0
1067,1765915417338,-350,8257,-367,0,0,0,0,0
1068,1765915417457,-392,8324,-509,0,0,0,0,0
1069,1765915417674,-330,8288,-422,0,0,0,0,0
1070,1765915417757,-306,8230,-417,0,0,0,0,0
1071,1765915418022,-341,8266,-428,0,0,0,0,0
1072,1765915418123,-398,8346,-434,0,0,0,0,0
1073,1765915418321,-307,8268,-421,0,0,0,0,0
1074,1765915418455,-331,8325,-462,0,0,0,0,0
1075,1765915418640,-367,8261,-460,0,0,0,0,0
1076,1765915418840,-337,8317,-428,0,0,0,0,0
1077,1765915418940,-358,8281,-356,0,0,0,0,0
1078,1765915419207,-304,8310,-452,0,0,0,0,0
1079,1765915419291,-302,8262,-542,0,0,0,0,0
1080,1765915419506,-431,8268,-559,0,0,0,0,0
1081,1765915419691,-427,8427,1656,0,0,0,0,0
1082,1765915419807,-308,8487,726,0,0,0,0,0
1083,1765915420074,-179,8047,465,0,0,0,0,0
1084,1765915420157,-447,8343,261,0,0,0,0,0
1085,1765915420373,-415,8605,423,0,0,0,0,0
1086,1765915420540,-236,7997,377,0,0,0,0,0
1087,1765915420624,-296,8514,12,0,0,0,0,0
1088,1765915420706,-190,8055,67,0,0,0,0,0
1089,1765915420940,-437,8188,-374,0,0,0,0,0
1090,1765915421006,-384,8490,-488,0,0,0,0,0
1091,1765915421241,-721,8230,-1090,0,0,0,0,0
1092,1765915421474,-598,8086,-1033,0,0,0,0,0
1093,1765915421557,-401,8624,-1092,0,0,0,0,0
1094,1765915421807,-344,8182,-366,0,0,0,0,0
1095,1765915421890,-315,8204,-278,0,0,0,0,0
1096,1765915422140,-366,8344,-732,0,0,0,0,0
1097,1765915422224,-418,8194,-512,0,0,0,0,0
1098,1765915422424,-406,8437,-988,0,0,0,0,0
1099,1765915422590,-78,8210,-267,0,0,0,0,0
1100,1765915422741,-520,8218,-775,0,0,0,0,0
1101,1765915422924,-233,8396,-538,0,0,0,0,0
1102,1765915423039,-238,8231,-694,0,0,0,0,0
1103,1765915423273,-386,8282,-619,0,0,0,0,0
1104,1765915423341,-393,8276,-628,0,0,0,0,0
1105,1765915423891,32429,8220,-554,0,0,0,0,0
1106,1765915424075,-311,8243,-677,0,0,0,0,0
1107,1765915424224,-337,8652,1588,0,0,0,0,0
1108,1765915424457,-424,8417,758,0,0,0,0,0
1109,1765915424508,-362,8121,353,0,0,0,0,0
1110,1765915424757,-243,8070,185,0,0,0,0,0
1111,1765915424907,-433,8084,-992,0,0,0,0,0
1112,1765915425090,-269,8196,-394,0,0,0,0,0
1113,1765915425257,-492,8402,-774,0,0,0,0,0
1114,1765915425374,-230,8438,-435,0,0,0,0,0
1115,1765915425623,-228,8282,-418,0,0,0,0,0
1116,1765915425707,-505,8404,-698,0,0,0,0,0
1117,1765915425941,-319,8232,-828,0,0,0,0,0
1118,1765915426041,-179,8192,-348,0,0,0,0,0
1119,1765915426258,-428,8294,-669,0,0,0,0,0
1120,1765915426391,-330,8178,-661,0,0,0,0,0
1121,1765915426556,-336,8453,-1160,0,0,0,0,0
1122,1765915426740,-366,8121,-1118,0,0,0,0,0
1123,1765915426857,-354,8292,-620,0,0,0,0,0
1124,1765915427089,-317,8285,-465,0,0,0,0,0
1125,1765915427190,24248,4289,-398,0,0,0,0,0
1126,1765915427507,-348,8342,-378,0,0,0,0,0
1127,1765915427740,-349,8272,-440,0,0,0,0,0
1128,1765915427874,-347,8300,-391,0,0,0,0,0
1129,1765915428222,-318,8288,-402,0,0,0,0,0
1130,1765915428357,-374,8294,-416,0,0,0,0,0
1131,1765915428590,-332,8268,-389,0,0,0,0,0
1132,1765915428674,-326,8312,-424,0,0,0,0,0
1133,1765915428891,-378,8287,-423,0,0,0,0,0
1134,1765915429023,-354,8295,-455,0,0,0,0,0
1135,1765915429209,-350,8309,-480,0,0,0,0,0
1136,1765915429390,-367,8268,-448,0,0,0,0,0
1137,1765915429507,-375,8240,-411,0,0,0,0,0
1138,1765915429757,-369,8256,-480,0,0,0,0,0
1139,1765915429840,-296,8276,-438,0,0,0,0,0
1140,1765915430074,-362,8385,-354,0,0,0,0,0
1141,1765915430157,-392,8312,-420,0,0,0,0,0
1142,1765915430357,-330,8247,-438,0,0,0,0,0
1143,1765915430540,-347,8308,-429,0,0,0,0,0
1144,1765915430690,-345,8311,-406,0,0,0,0,0
1145,1765915430873,-353,8282,-418,0,0,0,0,0
1146,1765915430990,-349,8303,-432,0,0,0,0,0
1147,1765915431224,-352,8297,-406,0,0,0,0,0
1148,1765915431307,-343,8292,-424,0,0,0,0,0
1149,1765915431540,-352,8290,-406,0,0,0,0,0
1150,1765915431639,-363,8302,-417,0,0,0,0,0
1151,1765915431879,-334,8283,-412,0,0,0,0,0
1152,1765915432007,-348,8300,-416,0,0,0,0,0
1153,1765915432173,-361,8296,-392,0,0,0,0,0
1154,1765915432357,-340,8301,-420,0,0,0,0,0
1155,1765915432457,-342,8290,-434,0,0,0,0,0
1156,1765915432707,-351,8286,-427,0,0,0,0,0
1157,1765915432790,-348,8290,-439,0,0,0,0,0
1158,1765915433024,-343,8302,-415,0,0,0,0,0
1159,1765915433139,-361,8284,-395,0,0,0,0,0
1160,1765915433338,-357,8308,-400,0,0,0,0,0
1161,1765915433490,-346,8278,-404,0,0,0,0,0
1162,1765915433640,-344,8303,-416,0,0,0,0,0
1163,1765915433823,-351,8302,-424,0,0,0,0,0
1164,1765915433973,-343,8301,-421,0,0,0,0,0
1165,1765915434190,-360,8300,-412,0,0,0,0,0
1166,1765915434257,-348,8274,-414,0,0,0,0,0
1167,1765915434490,-354,8308,-403,0,0,0,0,0
1168,1765915434607,-348,8300,-409,0,0,0,0,0
1169,1765915434823,-340,8300,-422,0,0,0,0,0
1170,1765915434957,-354,8300,-404,0,0,0,0,0
1171,1765915435124,-350,8290,-413,0,0,0,0,0
1172,1765915435307,-345,8289,-420,0,0,0,0,0
1173,1765915435440,-360,8288,-409,0,0,0,0,0
1174,1765915435657,-343,8286,-423,0,0,0,0,0
1175,1765915435740,-344,8309,-412,0,0,0,0,0
1176,1765915435973,-352,8274,-416,0,0,0,0,0
1177,1765915436290,-343,8288,-415,0,0,0,0,0
1178,1765915436423,-358,8300,-417,0,0,0,0,0
1179,1765915436589,-352,8301,-402,0,0,0,0,0
1180,1765915436774,-352,8284,-417,0,0,0,0,0
1181,1765915436924,-341,8306,-422,0,0,0,0,0
1182,1765915437123,-353,8283,-412,0,0,0,0,0
1183,1765915437207,-351,8293,-417,0,0,0,0,0
1184,1765915437473,-356,8279,-420,0,0,0,0,0
1185,1765915437540,-348,8272,-421,0,0,0,0,0
1186,1765915437773,-346,8321,-413,0,0,0,0,0
1187,1765915437890,-361,8288,-413,0,0,0,0,0
1188,1765915438075,-353,8283,-419,0,0,0,0,0
1189,1765915438272,-3417,8288,-415,0,0,0,0,0
1190,1765915438390,-344,8290,-407,0,0,0,0,0
1191,1765915438607,-352,8310,-418,0,0,0,0,0
1192,1765915438690,-352,8275,-411,0,0,0,0,0
1193,1765915439057,-342,8274,-446,0,0,0,0,0
1194,1765915439257,-341,8317,-405,0,0,0,0,0
1195,1765915439390,-354,8298,-378,0,0,0,0,0
1196,1765915439574,-350,8296,-420,0,0,0,0,0
1197,1765915439738,-349,8291,-406,0,0,0,0,0
1198,1765915439857,-348,8293,-414,0,0,0,0,0
1199,1765915440090,-350,8297,-424,0,0,0,0,0
1200,1765915440173,-350,8298,-412,0,0,0,0,0
1201,1765915440390,-356,8292,-416,0,0,0,0,0
1202,1765915440490,-348,8278,-410,0,0,0,0,0
1203,1765915440707,-360,8303,-416,0,0,0,0,0
1204,1765915440806,-355,8281,-415,0,0,0,0,0
1205,1765915440957,-350,8292,-408,0,0,0,0,0
1206,1765915441090,-360,8314,-400,0,0,0,0,0
1207,1765915441256,-352,8268,-407,0,0,0,0,0
1208,1765915441373,-348,8288,-409,0,0,0,0,0
1209,1765915441589,-342,8298,-422,0,0,0,0,0
1210,1765915441673,-350,8288,-413,0,0,0,0,0
1211,1765915441773,-346,8295,-413,0,0,0,0,0
1212,1765915441974,-354,8295,-423,0,0,0,0,0
1213,1765915442074,-344,8292,-426,0,0,0,0,0
1214,1765915442272,-347,8287,-417,0,0,0,0,0
1215,1765915442323,-347,8296,-390,0,0,0,0,0
1216,1765915442507,-347,8302,-439,0,0,0,0,0
1217,1765915442623,-342,8283,-444,0,0,0,0,0
1218,1765915442811,-346,8284,-456,0,0,0,0,0
1219,1765915442923,-342,8317,-390,0,0,0,0,0
1220,1765915442991,-364,8274,-438,0,0,0,0,0
1221,1765915443223,-351,8280,-437,0,0,0,0,0
1222,1765915443306,-353,8314,-407,0,0,0,0,0
1223,1765915443522,-353,8292,-386,0,0,0,0,0
1224,1765915443623,-351,8284,-404,0,0,0,0,0
1225,1765915443723,-346,8297,-404,0,0,0,0,0
1226,1765915443874,-350,8296,-408,0,0,0,0,0
1227,1765915444040,-346,8284,-404,0,0,0,0,0
1228,1765915444323,-347,8298,-423,0,0,0,0,0
1229,1765915444407,-345,8283,-415,0,0,0,0,0
1230,1765915444524,-354,8286,-417,0,0,0,0,0
1231,1765915444706,-353,8311,-416,0,0,0,0,0
1232,1765915444824,-354,8281,-413,0,0,0,0,0
1233,1765915445107,-355,8318,-422,0,0,0,0,0
1234,1765915445173,-361,8194,-468,0,0,0,0,0
1235,1765915445390,-326,8292,-427,0,0,0,0,0
1236,1765915445457,-346,8342,-319,0,0,0,0,0
1237,1765915445755,-332,8297,-397,0,0,0,0,0
1238,1765915445873,-346,8326,-412,0,0,0,0,0
1239,1765915446057,-389,8218,-451,0,0,0,0,0
1240,1765915446173,-380,8380,-394,0,0,0,0,0
1241,1765915446340,-333,8273,-452,0,0,0,0,0
1242,1765915446407,-326,8286,-410,0,0,0,0,0
1243,1765915446557,-345,8294,-413,0,0,0,0,0
1244,1765915446704,-344,8318,-404,0,0,0,0,0
1245,1765915446857,-346,8260,-405,0,0,0,0,0
1246,1765915446990,-372,8293,-440,0,0,0,0,0
1247,1765915447057,-338,8260,-400,0,0,0,0,0
1248,1765915447240,-408,8370,-469,0,0,0,0,0
1249,1765915447340,-296,8324,-420,0,0,0,0,0
1250,1765915447524,-364,8228,-545,0,0,0,0,0
1251,1765915447640,-346,8252,-474,0,0,0,0,0
1252,1765915447906,-389,8273,-394,0,0,0,0,0
1253,1765915447991,-370,8314,-404,0,0,0,0,0
1254,1765915448190,-292,8280,-408,0,0,0,0,0
1255,1765915448290,-348,8297,-444,0,0,0,0,0
1256,1765915448574,-349,8319,-410,0,0,0,0,0
1257,1765915448672,-345,8296,-428,0,0,0,0,0
1258,1765915448873,-352,8260,-427,0,0,0,0,0
1259,1765915448940,-352,8306,-431,0,0,0,0,0
1260,1765915449140,-345,8294,-418,0,0,0,0,0
1261,1765915449239,-351,8279,-393,0,0,0,0,0
1262,1765915449473,-345,8326,-337,0,0,0,0,0
1263,1765915449590,-332,8308,-397,0,0,0,0,0
1264,1765915449807,-316,8334,-619,0,0,0,0,0
1265,1765915450023,-323,8208,414,0,0,0,0,0
1266,1765915450106,-408,8417,1072,0,0,0,0,0
1267,1765915450341,-336,8472,569,0,0,0,0,0
1268,1765915450473,-490,7933,-39,0,0,0,0,0
1269,1765915450507,-284,8100,716,0,0,0,0,0
1270,1765915450673,-394,8532,845,0,0,0,0,0
1271,1765915450856,-479,8433,592,0,0,0,0,0
1272,1765915450974,-218,8350,689,0,0,0,0,0
1273,1765915451240,-191,8848,620,0,0,0,0,0
1274,1765915451373,-199,8096,798,0,0,0,0,0
1275,1765915451540,-654,7954,834,0,0,0,0,0
1276,1765915451739,-532,8798,776,0,0,0,0,0
1277,1765915451840,-303,8064,1254,0,0,0,0,0
1278,1765915452106,-2412,8086,908,0,0,0,0,0
1279,1765915452256,-1979,8182,563,0,0,0,0,0
1280,1765915452407,-2192,8478,644,0,0,0,0,0
1281,1765915452690,-2107,8412,454,0,0,0,0,0
1282,1765915452790,-1262,8274,921,0,0,0,0,0
1283,1765915452973,-2600,7961,740,0,0,0,0,0
1284,1765915453172,-1935,8173,1352,0,0,0,0,0
1285,1765915453273,-1468,7381,237,0,0,0,0,0
1286,1765915453340,-2007,8190,775,0,0,0,0,0
1287,1765915453556,-1849,9427,659,0,0,0,0,0
1288,1765915453690,-2981,7228,420,0,0,0,0,0
1289,1765915453839,-2010,8676,286,0,0,0,0,0
1290,1765915454123,-730,8646,443,0,0,0,0,0
1291,1765915454223,-2001,7807,-296,0,0,0,0,0
1292,1765915454423,-889,8834,1101,0,0,0,0,0
1293,1765915454606,-1288,8156,637,0,0,0,0,0
1294,1765915454724,-1414,8586,265,0,0,0,0,0
1295,1765915454990,-2258,7818,824,0,0,0,0,0
1296,1765915455073,-2164,7768,154,0,0,0,0,0
1297,1765915455290,-1770,7120,190,0,0,0,0,0
1298,1765915455540,-1260,7285,746,0,0,0,0,0
1299,1765915455606,-872,9342,997,0,0,0,0,0
1300,1765915455857,-1375,8697,952,0,0,0,0,0
1301,1765915455957,-814,6828,600,0,0,0,0,0
1302,1765915456190,-862,8983,573,0,0,0,0,0
1303,1765915456423,-1537,8993,833,0,0,0,0,0
1304,1765915456490,199,8054,170,0,0,0,0,0
1305,1765915456725,-286,10002,332,0,0,0,0,0
1306,1765915456840,-1243,7091,395,0,0,0,0,0
1307,1765915456956,424,9022,895,0,0,0,0,0
1308,1765915457056,-81,8850,733,0,0,0,0,0
1309,1765915457290,-556,8309,579,0,0,0,0,0
1310,1765915457373,-443,7903,248,0,0,0,0,0
1311,1765915457623,-100,9762,816,0,0,0,0,0
1312,1765915457840,-550,8872,508,0,0,0,0,0
1313,1765915457923,-1081,6769,1123,0,0,0,0,0
1314,1765915458156,841,8114,1222,0,0,0,0,0
1315,1765915458274,-410,7290,-6,0,0,0,0,0
1316,1765915458374,-619,6824,-258,0,0,0,0,0
1317,1765915458490,1006,8820,740,0,0,0,0,0
1318,1765915458723,958,9170,1873,0,0,0,0,0
1319,1765915458790,-978,8388,587,0,0,0,0,0
1320,1765915459073,142,8300,238,0,0,0,0,0
1321,1765915459240,1248,8808,-440,0,0,0,0,0
1322,1765915459357,-54,7557,-276,0,0,0,0,0
1323,1765915459606,134,7731,-382,0,0,0,0,0
1324,1765915459706,472,9496,-808,0,0,0,0,0
1325,1765915459756,1371,9546,290,0,0,0,0,0
1326,1765915459923,988,9182,599,0,0,0,0,0
1327,1765915460140,637,9838,615,0,0,0,0,0
1328,1765915460240,115,8389,-212,0,0,0,0,0
1329,1765915460507,-176,7270,-310,0,0,0,0,0
1330,1765915460657,-617,7992,-1169,0,0,0,0,0
1331,1765915460807,-437,8561,-1236,0,0,0,0,0
1332,1765915461006,-11,8521,-414,0,0,0,0,0
1333,1765915461107,-1566,9272,-818,0,0,0,0,0
1334,1765915461357,-944,9109,-668,0,0,0,0,0
1335,1765915461455,-864,7000,-764,0,0,0,0,0
1336,1765915461656,-1408,8166,-167,0,0,0,0,0
1337,1765915461774,-390,8906,-705,0,0,0,0,0
1338,1765915461973,-305,8612,-850,0,0,0,0,0
1339,1765915462106,-1353,9516,-1121,0,0,0,0,0
1340,1765915462273,-848,9281,-1462,0,0,0,0,0
1341,1765915462457,-1054,8657,-1600,0,0,0,0,0
1342,1765915462606,-952,7957,-1516,0,0,0,0,0
1343,1765915462807,-1341,8874,-1332,0,0,0,0,0
1344,1765915462890,-59,8176,-1588,0,0,0,0,0
1345,1765915463123,-1441,7604,-1607,0,0,0,0,0
1346,1765915463206,123,8414,-1488,0,0,0,0,0
1347,1765915463456,-576,8140,-2038,0,0,0,0,0
1348,1765915463556,-873,11223,-2069,0,0,0,0,0
1349,1765915463739,235,6382,-1613,0,0,0,0,0
1350,1765915463890,-30,9656,-1792,0,0,0,0,0
1351,1765915464073,-935,7547,-1972,0,0,0,0,0
1352,1765915464240,255,8536,-1203,0,0,0,0,0
1353,1765915464374,-428,7652,-1254,0,0,0,0,0
1354,1765915464589,-753,8276,-2135,0,0,0,0,0
1355,1765915464768,-452,7463,-1828,0,0,0,0,0
1356,1765915464923,827,8076,-2103,0,0,0,0,0
1357,1765915465006,-370,9278,-1683,0,0,0,0,0
1358,1765915465205,-738,7934,-1546,0,0,0,0,0
1359,1765915465323,-719,8560,-2108,0,0,0,0,0
1360,1765915465357,-688,7987,-2127,0,0,0,0,0
1361,1765915465540,-760,9656,-1968,0,0,0,0,0
1362,1765915465690,-280,7907,-2249,0,0,0,0,0
1363,1765915465839,-397,7582,-2144,0,0,0,0,0
1364,1765915466040,-163,7209,-1596,0,0,0,0,0
1365,1765915466155,-304,8958,-1941,0,0,0,0,0
1366,1765915466387,-866,8462,-1986,0,0,0,0,0
1367,1765915466454,-274,7242,-1906,0,0,0,0,0
1368,1765915466690,-750,8699,-1611,0,0,0,0,0
1369,1765915466725,-836,7526,-1076,0,0,0,0,0
1370,1765915466823,-731,8548,-1046,0,0,0,0,0
1371,1765915467007,-589,8585,-1190,0,0,0,0,0
1372,1765915467173,-215,8011,-936,0,0,0,0,0
1373,1765915467306,-458,8577,-1390,0,0,0,0,0
1374,1765915467523,-356,8276,-1143,0,0,0,0,0
1375,1765915467622,-500,8178,-1045,0,0,0,0,0
1376,1765915467857,-592,8185,-1064,0,0,0,0,0
1377,1765915467923,-397,8376,-981,0,0,0,0,0
1378,1765915468173,-600,8453,-1336,0,0,0,0,0
1379,1765915468273,-666,8119,-1346,0,0,0,0,0
1380,1765915468473,-247,8151,-1116,0,0,0,0,0
1381,1765915468623,-761,8333,-1185,0,0,0,0,0
1382,1765915468773,-383,8490,-1227,0,0,0,0,0
1383,1765915468990,-587,8628,-1400,0,0,0,0,0
1384,1765915469090,-629,8078,-1374,0,0,0,0,0
1385,1765915469323,-445,8229,-1297,0,0,0,0,0
1386,1765915469389,-628,8395,-1360,0,0,0,0,0
1387,1765915469656,-466,8117,-1270,0,0,0,0,0
1388,1765915469756,-464,8348,-1268,0,0,0,0,0
1389,1765915469957,-507,8302,-1179,0,0,0,0,0
1390,1765915470107,-452,8098,-1158,0,0,0,0,0
1391,1765915470272,-487,8228,-692,0,0,0,0,0
1392,1765915470440,-376,8213,-588,0,0,0,0,0
1393,1765915470556,-553,8367,-696,0,0,0,0,0
1394,1765915470772,-517,8246,-601,0,0,0,0,0
1395,1765915470856,-477,8301,-669,0,0,0,0,0
1396,1765915471121,-457,8280,-603,0,0,0,0,0
1397,1765915471222,-474,8296,-640,0,0,0,0,0
1398,1765915471421,-500,8235,-636,0,0,0,0,0
1399,1765915471574,-452,8272,-627,0,0,0,0,0
1400,1765915471739,-442,8217,-68,0,0,0,0,0
1401,1765915471957,-510,8344,-295,0,0,0,0,0
1402,1765915472040,-501,8289,-541,0,0,0,0,0
1403,1765915472273,-439,8207,-456,0,0,0,0,0
1404,1765915472374,-460,8256,-428,0,0,0,0,0
1405,1765915472607,-471,8303,-378,0,0,0,0,0
1406,1765915472720,-460,8308,-328,0,0,0,0,0
1407,1765915472907,-470,8260,-356,0,0,0,0,0
1408,1765915473090,-470,8292,-397,0,0,0,0,0
1409,1765915473223,-480,8254,-437,0,0,0,0,0
1410,1765915473440,-440,8305,-397,0,0,0,0,0
1411,1765915473524,-540,8278,-437,0,0,0,0,0
1412,1765915473790,-497,8276,-382,0,0,0,0,0
1413,1765915473857,-418,8236,-362,0,0,0,0,0
1414,1765915474074,-474,8318,-453,0,0,0,0,0
1415,1765915474222,-499,8365,-408,0,0,0,0,0
1416,1765915474373,-463,8206,-429,0,0,0,0,0
1417,1765915474556,-467,8289,-393,0,0,0,0,0
1418,1765915474690,-478,8312,-366,0,0,0,0,0
1419,1765915474890,-458,8286,-408,0,0,0,0,0
1420,1765915474990,-468,8271,-394,0,0,0,0,0
1421,1765915475173,-451,8318,-378,0,0,0,0,0
1422,1765915475308,-468,8232,-393,0,0,0,0,0
1423,1765915475490,-486,8284,-422,0,0,0,0,0
1424,1765915475699,-460,8376,-397,0,0,0,0,0
1425,1765915475907,-765,8338,-530,0,0,0,0,0
1426,1765915476041,-459,8293,-548,0,0,0,0,0
1427,1765915476207,-441,8116,-414,0,0,0,0,0
1428,1765915476324,-448,8451,-400,0,0,0,0,0
1429,1765915476490,-467,8300,-412,0,0,0,0,0
1430,1765915476507,-441,8184,-394,0,0,0,0,0
1431,1765915476589,-468,8357,-403,0,0,0,0,0
1432,1765915476791,-474,8278,-390,0,0,0,0,0
1433,1765915476907,-462,8270,-396,0,0,0,0,0
1434,1765915477090,-465,8308,-391,0,0,0,0,0
1435,1765915477406,-466,8292,-415,0,0,0,0,0
1436,1765915477473,-481,8294,-369,0,0,0,0,0
1437,1765915477690,-489,8254,-257,0,0,0,0,0
1438,1765915477807,-438,8345,-377,0,0,0,0,0
1439,1765915478007,-444,8297,-442,0,0,0,0,0
1440,1765915478090,-592,8318,-611,0,0,0,0,0
1441,1765915478290,-425,8322,524,0,0,0,0,0
1442,1765915478424,-334,8404,1050,0,0,0,0,0
1443,1765915478607,-583,8338,402,0,0,0,0,0
1444,1765915478673,-454,8410,292,0,0,0,0,0
1445,1765915478890,-434,8212,444,0,0,0,0,0
1446,1765915478990,-452,8296,496,0,0,0,0,0
1447,1765915479188,-504,8318,364,0,0,0,0,0
1448,1765915479507,-774,8257,332,0,0,0,0,0
1449,1765915479557,-936,8184,566,0,0,0,0,0
1450,1765915479806,-794,8420,414,0,0,0,0,0
1451,1765915479873,-1094,8065,509,0,0,0,0,0
1452,1765915480073,-944,8078,497,0,0,0,0,0
1453,1765915480174,-824,8248,418,0,0,0,0,0
1454,1765915480406,-1299,8333,634,0,0,0,0,0
1455,1765915480473,-1280,7753,573,0,0,0,0,0
1456,1765915480674,-504,8369,477,0,0,0,0,0
1457,1765915480790,-852,7940,581,0,0,0,0,0
1458,1765915481007,-1125,8217,542,0,0,0,0,0
1459,1765915481070,-1218,8394,596,0,0,0,0,0
1460,1765915481305,-743,8076,520,0,0,0,0,0
1461,1765915481388,-508,8038,680,0,0,0,0,0
1462,1765915481554,-906,8259,261,0,0,0,0,0
1463,1765915481672,-514,8435,761,0,0,0,0,0
1464,1765915481841,-693,8577,560,0,0,0,0,0
1465,1765915481973,-1028,7812,531,0,0,0,0,0
1466,1765915482090,-752,8462,888,0,0,0,0,0
1467,1765915482272,-1642,7942,441,0,0,0,0,0
1468,1765915482406,-1793,7784,933,0,0,0,0,0
1469,1765915482573,-1525,8387,504,0,0,0,0,0
1470,1765915482706,-30,8629,79,0,0,0,0,0
1471,1765915482872,-902,9617,1014,0,0,0,0,0
1472,1765915482939,-532,7135,684,0,0,0,0,0
1473,1765915483173,-1137,8335,136,0,0,0,0,0
1474,1765915483273,-1796,6916,264,0,0,0,0,0
1475,1765915483471,-778,8087,998,0,0,0,0,0
1476,1765915483538,-2320,8150,64,0,0,0,0,0
1477,1765915483774,-682,8530,656,0,0,0,0,0
1478,1765915483840,-2108,6963,990,0,0,0,0,0
1479,1765915484071,-718,9645,494,0,0,0,0,0
1480,1765915484106,-1592,7831,402,0,0,0,0,0
1481,1765915484221,-2214,7997,747,0,0,0,0,0
1482,1765915484388,-2452,8587,14,0,0,0,0,0
1483,1765915484588,-2246,8672,853,0,0,0,0,0
1484,1765915484706,-2620,6812,404,0,0,0,0,0
1485,1765915484972,-3390,7976,476,0,0,0,0,0
1486,1765915485139,-3772,8250,799,0,0,0,0,0
1487,1765915485273,-3143,9077,1264,0,0,0,0,0
1488,1765915485506,-2883,7724,462,0,0,0,0,0
1489,1765915485540,-4144,8367,101,0,0,0,0,0
1490,1765915485674,-3511,7736,490,0,0,0,0,0
1491,1765915485840,-3944,7724,128,0,0,0,0,0
1492,1765915486073,-4218,8783,474,0,0,0,0,0
1493,1765915486138,-4397,8196,291,0,0,0,0,0
1494,1765915486290,-4062,9360,1106,0,0,0,0,0
1495,1765915486424,-4940,7548,1414,0,0,0,0,0
1496,1765915486654,-4667,6008,422,0,0,0,0,0
1497,1765915486740,-2990,8959,305,0,0,0,0,0
1498,1765915486990,-5904,6778,-289,0,0,0,0,0
1499,1765915487239,-3918,10540,1686,0,0,0,0,0
1500,1765915487306,-4570,6610,702,0,0,0,0,0
1501,1765915487538,-5057,7432,-229,0,0,0,0,0
1502,1765915487807,-4753,9212,501,0,0,0,0,0
1503,1765915487873,-4988,7034,-352,0,0,0,0,0
1504,1765915488107,-5254,8730,671,0,0,0,0,0
1505,1765915488255,-4100,9068,214,0,0,0,0,0
1506,1765915488389,-5028,7113,296,0,0,0,0,0
1507,1765915488455,-4810,8043,1086,0,0,0,0,0
1508,1765915488688,-4886,8176,873,0,0,0,0,0
1509,1765915488839,-4583,8175,1033,0,0,0,0,0
1510,1765915488989,-4802,8131,1439,0,0,0,0,0
1511,1765915489256,-3537,8797,1558,0,0,0,0,0
1512,1765915489373,-3808,7438,418,0,0,0,0,0
1513,1765915489555,-3660,8733,278,0,0,0,0,0
1514,1765915489740,-3372,7347,760,0,0,0,0,0
1515,1765915489823,-1602,8074,151,0,0,0,0,0
1516,1765915489890,-939,8488,114,0,0,0,0,0
1517,1765915490123,-2432,9667,767,0,0,0,0,0
1518,1765915490256,-1266,8227,1122,0,0,0,0,0
1519,1765915490423,-597,9677,1262,0,0,0,0,0
1520,1765915490704,1740,9073,1253,0,0,0,0,0
1521,1765915490756,1480,8632,703,0,0,0,0,0
1522,1765915490990,1866,9351,987,0,0,0,0,0
1523,1765915491139,2219,8503,1099,0,0,0,0,0
1524,1765915491238,2293,9266,-1331,0,0,0,0,0
1525,1765915491338,1930,6983,-1023,0,0,0,0,0
1526,1765915491556,3070,8636,-1064,0,0,0,0,0
1527,1765915491674,4054,7620,-1730,0,0,0,0,0
1528,1765915491857,2483,9332,-2149,0,0,0,0,0
1529,1765915492121,5868,5992,-2769,0,0,0,0,0
1530,1765915492189,6349,7412,-2212,0,0,0,0,0
1531,1765915492422,6682,7011,-2969,0,0,0,0,0
1532,1765915492539,6624,9700,-3715,0,0,0,0,0
1533,1765915492755,3196,6592,139,0,0,0,0,0
1534,1765915492890,5623,10112,-1063,0,0,0,0,0
1535,1765915493041,5864,6948,-1667,0,0,0,0,0
1536,1765915493222,6991,9527,-2260,0,0,0,0,0
1537,1765915493372,8466,10530,-829,0,0,0,0,0
1538,1765915493605,8388,7476,-1765,0,0,0,0,0
1539,1765915493674,6904,8120,-4367,0,0,0,0,0
1540,1765915493906,8480,8826,-2216,0,0,0,0,0
1541,1765915494023,8564,9594,-2415,0,0,0,0,0
1542,1765915494222,7024,10405,-612,0,0,0,0,0
1543,1765915494372,2056,8751,-489,0,0,0,0,0
1544,1765915494523,839,7045,-1090,0,0,0,0,0
1545,1765915494708,3846,8232,-526,0,0,0,0,0
1546,1765915494739,5132,8632,-1974,0,0,0,0,0
1547,1765915494857,4718,7668,-1611,0,0,0,0,0
1548,1765915495072,5172,8276,-1184,0,0,0,0,0
1549,1765915495155,5526,8009,-1314,0,0,0,0,0
1550,1765915495373,5327,8768,-1919,0,0,0,0,0
1551,1765915495507,3902,9119,-1156,0,0,0,0,0
1552,1765915495707,3339,7808,-1084,0,0,0,0,0
1553,1765915495874,3751,8171,-1265,0,0,0,0,0
1554,1765915495989,3885,9586,-1370,0,0,0,0,0
1555,1765915496272,3702,8672,111,0,0,0,0,0
1556,1765915496374,3294,8724,-480,0,0,0,0,0
1557,1765915496573,3215,7796,-226,0,0,0,0,0
1558,1765915496756,3699,9129,-430,0,0,0,0,0
1559,1765915496906,-2654,8527,371,0,0,0,0,0
1560,1765915497141,-4265,6405,293,0,0,0,0,0
1561,1765915497256,-3684,8879,894,0,0,0,0,0
1562,1765915497440,-4001,8696,935,0,0,0,0,0
1563,1765915497707,-6342,8296,60,0,0,0,0,0
1564,1765915497772,-5999,6944,-30,0,0,0,0,0
1565,1765915498004,-6232,9470,345,0,0,0,0,0
1566,1765915498156,-5496,6398,1039,0,0,0,0,0
1567,1765915498340,-5224,8752,-50,0,0,0,0,0
1568,1765915498573,-5331,8889,-1003,0,0,0,0,0
1569,1765915498655,-4848,9938,-173,0,0,0,0,0
1570,1765915498872,-4280,9432,-882,0,0,0,0,0
1571,1765915499040,-6714,8461,-1229,0,0,0,0,0
1572,1765915499206,-6426,8828,-944,0,0,0,0,0
1573,1765915499390,-5016,7132,-1097,0,0,0,0,0
1574,1765915499490,-5792,7065,-681,0,0,0,0,0
1575,1765915499771,-4312,8688,1222,0,0,0,0,0
1576,1765915499855,-6026,7150,-252,0,0,0,0,0
1577,1765915500055,-6589,7396,375,0,0,0,0,0
1578,1765915500223,-6165,8228,-56,0,0,0,0,0
1579,1765915500357,-6173,7254,426,0,0,0,0,0
1580,1765915500638,-4806,9256,1656,0,0,0,0,0
1581,1765915500755,-6254,6688,1036,0,0,0,0,0
1582,1765915500923,-2798,7874,1581,0,0,0,0,0
1583,1765915501206,-5575,8070,-12,0,0,0,0,0
1584,1765915501272,-4506,6980,863,0,0,0,0,0
1585,1765915501505,-4092,8616,662,0,0,0,0,0
1586,1765915501655,-4910,8150,713,0,0,0,0,0
1587,1765915501806,-5531,7384,163,0,0,0,0,0
1588,1765915501840,-3617,8376,1268,0,0,0,0,0
1589,1765915502072,-1505,8553,1186,0,0,0,0,0
1590,1765915502205,-1920,8582,604,0,0,0,0,0
1591,1765915502372,-3045,8335,240,0,0,0,0,0
1592,1765915502639,-2460,9240,-37,0,0,0,0,0
1593,1765915502737,-3232,6246,280,0,0,0,0,0
1594,1765915502938,-3282,8386,-247,0,0,0,0,0
1595,1765915503122,-2955,9076,-712,0,0,0,0,0
1596,1765915503273,-170,6954,-1066,0,0,0,0,0
1597,1765915503523,-636,6996,-1791,0,0,0,0,0
1598,1765915503606,170,7157,-938,0,0,0,0,0
1599,1765915503823,-114,7410,-1091,0,0,0,0,0
1600,1765915504006,3440,8473,-1718,0,0,0,0,0
1601,1765915504139,3317,8102,-189,0,0,0,0,0
1602,1765915504356,4157,7756,-225,0,0,0,0,0
1603,1765915504439,5265,9835,-1260,0,0,0,0,0
1604,1765915504689,-1137,7764,-2354,0,0,0,0,0
1605,1765915504789,-4272,10282,-2767,0,0,0,0,0
1606,1765915504989,-4349,7002,-467,0,0,0,0,0
1607,1765915505156,-5669,9013,-1561,0,0,0,0,0
1608,1765915505289,-5966,6536,-194,0,0,0,0,0
1609,1765915505556,-3198,7216,513,0,0,0,0,0
1610,1765915505622,-3275,9199,537,0,0,0,0,0
1611,1765915505855,-3491,7645,1029,0,0,0,0,0
1612,1765915505972,-2831,8882,1284,0,0,0,0,0
1613,1765915506170,-1158,7354,531,0,0,0,0,0
1614,1765915506389,-2082,7206,84,0,0,0,0,0
1615,1765915506471,-1858,8567,172,0,0,0,0,0
1616,1765915506706,-2057,7818,1022,0,0,0,0,0
1617,1765915506856,-954,9230,417,0,0,0,0,0
1618,1765915507038,-2003,7876,134,0,0,0,0,0
1619,1765915507206,-2780,7823,-305,0,0,0,0,0
1620,1765915507338,108,8520,962,0,0,0,0,0
1621,1765915507606,-5814,6648,-382,0,0,0,0,0
1622,1765915507655,-4036,7542,366,0,0,0,0,0
1623,1765915507905,-4836,8814,690,0,0,0,0,0
1624,1765915508040,-4110,8030,250,0,0,0,0,0
1625,1765915508240,-5120,8983,-1293,0,0,0,0,0
1626,1765915508521,-5779,6315,-2353,0,0,0,0,0
1627,1765915508521,-5815,9482,-1542,0,0,0,0,0
1628,1765915508772,-7010,6582,-2385,0,0,0,0,0
1629,1765915508872,-6591,7446,-2053,0,0,0,0,0
1630,1765915509088,-8104,8302,-1357,0,0,0,0,0
1631,1765915509239,-7228,8364,-1868,0,0,0,0,0
1632,1765915509389,-6340,8588,-2276,0,0,0,0,0
1633,1765915509624,-6393,8781,-3840,0,0,0,0,0
1634,1765915509723,-7098,7008,-3517,0,0,0,0,0
1635,1765915509940,-6082,8603,-2174,0,0,0,0,0
1636,1765915510040,-8423,8700,-3416,0,0,0,0,0
1637,1765915510239,-7249,6858,-3412,0,0,0,0,0
1638,1765915510273,-4537,5652,1438,0,0,0,0,0
1639,1765915510356,-6888,7176,-724,0,0,0,0,0
1640,1765915510572,-5075,6078,-550,0,0,0,0,0
1641,1765915510707,-3196,9988,148,0,0,0,0,0
1642,1765915510856,-1593,7854,692,0,0,0,0,0
1643,1765915511039,-1538,8529,-54,0,0,0,0,0
1644,1765915511172,-1242,7441,-110,0,0,0,0,0
1645,1765915511372,-1849,10389,-30,0,0,0,0,0
1646,1765915511472,-2198,7894,-285,0,0,0,0,0
1647,1765915511789,-32,9268,-364,0,0,0,0,0
1648,1765915511990,-760,7285,-477,0,0,0,0,0
1649,1765915512089,-893,7930,26,0,0,0,0,0
1650,1765915512322,-1844,8828,-180,0,0,0,0,0
1651,1765915512407,-1347,6200,-228,0,0,0,0,0
1652,1765915512622,-1088,8566,-199,0,0,0,0,0
1653,1765915512690,-1638,8829,-519,0,0,0,0,0
1654,1765915512923,-596,6299,307,0,0,0,0,0
1655,1765915513022,-1780,8417,-139,0,0,0,0,0
1656,1765915513239,-913,8608,210,0,0,0,0,0
1657,1765915513305,-330,7607,428,0,0,0,0,0
1658,1765915513538,-2460,8930,-138,0,0,0,0,0
1659,1765915513655,-1202,9220,-195,0,0,0,0,0
1660,1765915513822,-1354,7163,-1038,0,0,0,0,0
1661,1765915513906,-1186,8285,-232,0,0,0,0,0
1662,1765915514138,-1088,8884,64,0,0,0,0,0
1663,1765915514223,-728,7457,-150,0,0,0,0,0
1664,1765915514523,-762,8743,285,0,0,0,0,0
1665,1765915514738,-1503,7599,-266,0,0,0,0,0
1666,1765915514806,-24,9296,31,0,0,0,0,0
1667,1765915515056,-446,8294,366,0,0,0,0,0
1668,1765915515122,-784,7416,-410,0,0,0,0,0
1669,1765915515340,-1297,8719,-108,0,0,0,0,0
1670,1765915515423,551,8508,111,0,0,0,0,0
1671,1765915515656,-1206,9400,-376,0,0,0,0,0
1672,1765915515722,566,8099,-256,0,0,0,0,0
1673,1765915515937,-1458,8271,-696,0,0,0,0,0
1674,1765915516039,-523,8044,-51,0,0,0,0,0
1675,1765915516256,-642,6257,-364,0,0,0,0,0
1676,1765915516322,-287,10239,16,0,0,0,0,0
1677,1765915516640,-683,7216,173,0,0,0,0,0
1678,1765915516805,410,8156,18,0,0,0,0,0
1679,1765915516923,937,8044,-1278,0,0,0,0,0
1680,1765915517123,-476,5484,-26,0,0,0,0,0
1681,1765915517222,924,9584,-172,0,0,0,0,0
1682,1765915517306,-1094,6192,-1176,0,0,0,0,0
1683,1765915517522,510,8124,330,0,0,0,0,0
1684,1765915517637,445,8608,-1275,0,0,0,0,0
1685,1765915517806,724,8972,-76,0,0,0,0,0
1686,1765915517889,1263,9221,174,0,0,0,0,0
1687,1765915518106,996,8750,-298,0,0,0,0,0
1688,1765915518189,-909,8905,-98,0,0,0,0,0
1689,1765915518423,202,7246,-432,0,0,0,0,0
1690,1765915518487,-551,8069,-550,0,0,0,0,0
1691,1765915518756,-899,8311,-240,0,0,0,0,0
1692,1765915518922,-738,8626,118,0,0,0,0,0
1693,1765915519040,-1323,7257,-272,0,0,0,0,0
1694,1765915519323,-1222,8566,127,0,0,0,0,0
1695,1765915519488,-1383,8266,-913,0,0,0,0,0
1696,1765915519623,-1494,7685,-62,0,0,0,0,0
1697,1765915519840,-1106,7141,102,0,0,0,0,0
1698,1765915519922,-1362,8579,702,0,0,0,0,0
1699,1765915520056,677,10170,-246,0,0,0,0,0
1700,1765915520204,-488,8874,-1087,0,0,0,0,0
1701,1765915520405,-111,9362,541,0,0,0,0,0
1702,1765915520490,-365,8593,75,0,0,0,0,0
1703,1765915520773,1206,8436,358,0,0,0,0,0
1704,1765915521008,-156,8050,55,0,0,0,0,0
1705,1765915521073,-346,8321,732,0,0,0,0,0
1706,1765915521306,-974,7525,538,0,0,0,0,0
1707,1765915521589,-3850,6288,-930,0,0,0,0,0
1708,1765915521673,-5516,8144,-1133,0,0,0,0,0
1709,1765915521889,-5098,7674,-241,0,0,0,0,0
1710,1765915522056,-6236,8792,-838,0,0,0,0,0
1711,1765915522139,-4137,6893,-244,0,0,0,0,0
1712,1765915522222,-4303,8299,444,0,0,0,0,0
1713,1765915522456,-3136,8028,93,0,0,0,0,0
1714,1765915522589,-3894,8882,679,0,0,0,0,0
1715,1765915522756,-4503,8458,-206,0,0,0,0,0
1716,1765915523023,-6203,4461,772,0,0,0,0,0
1717,1765915523123,-9714,8504,-864,0,0,0,0,0
1718,1765915523323,-3496,10309,674,0,0,0,0,0
1719,1765915523473,-6074,4845,-869,0,0,0,0,0
1720,1765915523656,-2962,8922,116,0,0,0,0,0
1721,1765915523890,-2821,7050,-552,0,0,0,0,0
1722,1765915523973,-3475,9399,-946,0,0,0,0,0
1723,1765915524190,-2300,6827,561,0,0,0,0,0
1724,1765915524420,-6215,8589,-1206,0,0,0,0,0
1725,1765915524523,-6447,7334,-825,0,0,0,0,0
1726,1765915524773,-5898,7104,-476,0,0,0,0,0
1727,1765915524840,-5113,7959,860,0,0,0,0,0
1728,1765915525089,-5564,8654,-1076,0,0,0,0,0
1729,1765915525289,-5284,6047,-432,0,0,0,0,0
1730,1765915525389,-4646,9320,-129,0,0,0,0,0
1731,1765915525622,-6094,8400,-916,0,0,0,0,0
1732,1765915525805,-6179,8762,1191,0,0,0,0,0
1733,1765915525956,-9194,9540,-426,0,0,0,0,0
1734,1765915526173,-7190,8356,-174,0,0,0,0,0
1735,1765915526272,-5380,8412,166,0,0,0,0,0
1736,1765915526523,-7819,9871,-413,0,0,0,0,0
1737,1765915526672,-8358,8437,-967,0,0,0,0,0
1738,1765915526840,-8478,7076,-1377,0,0,0,0,0
1739,1765915527039,-7498,8212,-768,0,0,0,0,0
1740,1765915527156,-5605,9342,-660,0,0,0,0,0
1741,1765915527389,-3319,7152,-908,0,0,0,0,0
1742,1765915527506,-2627,7795,-528,0,0,0,0,0
1743,1765915527705,-1588,6344,26,0,0,0,0,0
1744,1765915527940,-2600,7252,-1153,0,0,0,0,0
1745,1765915528022,-1732,7082,-295,0,0,0,0,0
1746,1765915528239,-2153,7734,-822,0,0,0,0,0
1747,1765915528322,-2951,8436,-178,0,0,0,0,0
1748,1765915528558,-4026,7200,94,0,0,0,0,0
1749,1765915528755,-2536,8636,518,0,0,0,0,0
1750,1765915528873,-3747,7800,-366,0,0,0,0,0
1751,1765915529089,-2911,8762,-798,0,0,0,0,0
1752,1765915529172,-2989,7970,504,0,0,0,0,0
1753,1765915529421,-1693,8414,444,0,0,0,0,0
1754,1765915529556,-1772,8098,181,0,0,0,0,0
1755,1765915529721,-2505,6478,-187,0,0,0,0,0
1756,1765915529989,-349,8637,-386,0,0,0,0,0
1757,1765915530073,-839,7510,138,0,0,0,0,0
1758,1765915530387,1016,8200,-779,0,0,0,0,0
1759,1765915530403,331,8824,-544,0,0,0,0,0
1760,1765915530589,237,8632,-145,0,0,0,0,0
1761,1765915530839,1833,9050,-554,0,0,0,0,0
1762,1765915530923,2816,8609,-690,0,0,0,0,0
1763,1765915531156,2645,7931,-1542,0,0,0,0,0
1764,1765915531256,3430,7460,-2662,0,0,0,0,0
1765,1765915531473,3660,8243,-1134,0,0,0,0,0
1766,1765915531639,3312,8432,-1039,0,0,0,0,0
1767,1765915531773,3147,8224,-1987,0,0,0,0,0
1768,1765915531988,4048,9302,-1485,0,0,0,0,0
1769,1765915532106,3479,8131,-927,0,0,0,0,0
1770,1765915532339,3192,7890,-696,0,0,0,0,0
1771,1765915532406,3579,8592,-1388,0,0,0,0,0
1772,1765915532639,4039,8143,-1208,0,0,0,0,0
1773,1765915532738,4283,8450,-1760,0,0,0,0,0
1774,1765915532773,5181,8975,978,0,0,0,0,0
1775,1765915532956,6310,9866,-746,0,0,0,0,0
1776,1765915533157,4772,6935,-248,0,0,0,0,0
1777,1765915533256,5448,9541,-204,0,0,0,0,0
1778,1765915533521,6530,7624,-1893,0,0,0,0,0
1779,1765915533604,6561,9266,-1438,0,0,0,0,0
1780,1765915533821,6500,8136,-1206,0,0,0,0,0
1781,1765915533956,7160,8386,-2134,0,0,0,0,0
1782,1765915534106,7199,8404,-2136,0,0,0,0,0
1783,1765915534323,6382,8516,-1159,0,0,0,0,0
1784,1765915534439,6616,7984,-1840,0,0,0,0,0
1785,1765915534658,6207,9992,-1906,0,0,0,0,0
1786,1765915534738,5348,7866,-1698,0,0,0,0,0
1787,1765915534988,5511,9633,-1968,0,0,0,0,0
1788,1765915535089,5718,8630,-2200,0,0,0,0,0
1789,1765915535289,5981,7714,-1411,0,0,0,0,0
1790,1765915535439,4955,7906,-1428,0,0,0,0,0
1791,1765915535622,4952,9027,-1670,0,0,0,0,0
1792,1765915535822,4877,8337,-1437,0,0,0,0,0
1793,1765915535922,5127,7798,-937,0,0,0,0,0
1794,1765915536139,4346,8864,-913,0,0,0,0,0
1795,1765915536239,4758,9687,-1754,0,0,0,0,0
1796,1765915536289,-2124,6029,-363,0,0,0,0,0
1797,1765915536489,-2500,7734,-183,0,0,0,0,0
1798,1765915536687,-2531,8264,193,0,0,0,0,0
1799,1765915536771,-3974,6834,250,0,0,0,0,0
1800,1765915537054,-5551,7908,136,0,0,0,0,0
1801,1765915537220,-7034,7476,152,0,0,0,0,0
1802,1765915537338,-7074,8345,-467,0,0,0,0,0
1803,1765915537586,-7383,7070,266,0,0,0,0,0
1804,1765915537653,-7462,7318,-795,0,0,0,0,0
1805,1765915537920,-4848,7550,31,0,0,0,0,0
1806,1765915538020,-4208,8081,-559,0,0,0,0,0
1807,1765915538204,-4741,9184,-1378,0,0,0,0,0
1808,1765915538387,-4924,9382,-1103,0,0,0,0,0
1809,1765915538520,-7210,8069,-1112,0,0,0,0,0
1810,1765915538754,-6699,8409,583,0,0,0,0,0
1811,1765915538837,-3461,8291,1754,0,0,0,0,0
1812,1765915539055,-448,7299,2534,0,0,0,0,0
1813,1765915539221,-4174,8269,587,0,0,0,0,0
1814,1765915539372,-3707,7272,478,0,0,0,0,0
1815,1765915539588,-3550,8606,309,0,0,0,0,0
1816,1765915539688,-6613,8003,-551,0,0,0,0,0
1817,1765915539939,-5418,8875,-160,0,0,0,0,0
1818,1765915540106,-4060,9187,533,0,0,0,0,0
1819,1765915540256,-3758,8827,1466,0,0,0,0,0
1820,1765915540456,-5951,8139,1260,0,0,0,0,0
1821,1765915540573,-5221,7189,646,0,0,0,0,0
1822,1765915540805,-4750,8944,-2,0,0,0,0,0
1823,1765915540889,-4467,8224,1048,0,0,0,0,0
1824,1765915541106,-3626,7787,830,0,0,0,0,0
1825,1765915541327,-2228,7820,1336,0,0,0,0,0
1826,1765915541439,-4133,8596,682,0,0,0,0,0
1827,1765915541656,-3617,9377,74,0,0,0,0,0
1828,1765915541723,-3789,8239,155,0,0,0,0,0
1829,1765915542006,-1852,8199,1286,0,0,0,0,0
1830,1765915542139,-1362,7610,962,0,0,0,0,0
1831,1765915542289,-380,8385,1178,0,0,0,0,0
1832,1765915542506,1232,9030,1087,0,0,0,0,0
1833,1765915542587,190,9455,931,0,0,0,0,0
1834,1765915542872,1289,10120,330,0,0,0,0,0
1835,1765915542939,1630,8338,1900,0,0,0,0,0
1836,1765915543156,249,9158,1223,0,0,0,0,0
1837,1765915543306,-426,10008,801,0,0,0,0,0
1838,1765915543355,-1266,6998,368,0,0,0,0,0
1839,1765915543489,-1981,8032,1128,0,0,0,0,0
1840,1765915543723,-2958,6602,448,0,0,0,0,0
1841,1765915543789,-2532,7968,565,0,0,0,0,0
1842,1765915544022,-2278,9173,648,0,0,0,0,0
1843,1765915544055,-2180,9085,-204,0,0,0,0,0
1844,1765915544205,-2512,10173,594,0,0,0,0,0
1845,1765915544356,-3650,9081,487,0,0,0,0,0
1846,1765915544555,-1718,8546,352,0,0,0,0,0
1847,1765915544639,-3972,7312,176,0,0,0,0,0
1848,1765915544905,-1896,10316,158,0,0,0,0,0
1849,1765915544970,-897,7416,302,0,0,0,0,0
1850,1765915545206,-191,9472,-289,0,0,0,0,0
1851,1765915545306,-682,7493,-930,0,0,0,0,0
1852,1765915545522,-1134,7560,244,0,0,0,0,0
1853,1765915545605,-1780,9153,-23,0,0,0,0,0
1854,1765915545822,-3484,8906,-253,0,0,0,0,0
1855,1765915545955,-3631,9848,-90,0,0,0,0,0
1856,1765915546105,-4218,7094,-943,0,0,0,0,0
1857,1765915546139,-2342,9721,-1333,0,0,0,0,0
1858,1765915546239,-3662,8191,-288,0,0,0,0,0
1859,1765915546422,-2858,8388,-336,0,0,0,0,0
1860,1765915546572,-2406,6635,520,0,0,0,0,0
1861,1765915546721,-1590,7790,-505,0,0,0,0,0
1862,1765915546855,-4999,6732,-1884,0,0,0,0,0
1863,1765915547039,-5771,6194,-1573,0,0,0,0,0
1864,1765915547172,-4986,8706,-2077,0,0,0,0,0
1865,1765915547339,-9510,4629,-2511,0,0,0,0,0
1866,1765915547473,-5352,8207,-723,0,0,0,0,0
1867,1765915547639,-7251,6008,-2148,0,0,0,0,0
1868,1765915547755,-8766,9446,-576,0,0,0,0,0
1869,1765915547939,-9725,6692,-142,0,0,0,0,0
1870,1765915548072,-6475,6750,-1552,0,0,0,0,0
1871,1765915548255,-5864,8651,-436,0,0,0,0,0
1872,1765915548355,-7530,8598,-2874,0,0,0,0,0
1873,1765915548538,-7002,9309,-608,0,0,0,0,0
1874,1765915548672,-8004,7125,-1004,0,0,0,0,0
1875,1765915548823,-10334,8384,-3391,0,0,0,0,0
1876,1765915549139,-8166,8623,-1844,0,0,0,0,0
1877,1765915549239,-8092,7084,-1580,0,0,0,0,0
1878,1765915549438,-8460,7650,-1900,0,0,0,0,0
1879,1765915549555,-9326,8495,-2010,0,0,0,0,0
1880,1765915549722,-3230,8946,-702,0,0,0,0,0
1881,1765915549804,-384,7296,539,0,0,0,0,0
1882,1765915550039,2673,9868,-8,0,0,0,0,0
1883,1765915550103,878,8009,-1626,0,0,0,0,0
1884,1765915550321,-622,8283,-766,0,0,0,0,0
1885,1765915550404,-512,8148,-890,0,0,0,0,0
1886,1765915550605,37,8526,-908,0,0,0,0,0
1887,1765915550706,-738,8063,-516,0,0,0,0,0
1888,1765915550922,-311,7956,-93,0,0,0,0,0
1889,1765915551005,-1159,6423,403,0,0,0,0,0
1890,1765915551155,-633,8564,530,0,0,0,0,0
1891,1765915551306,-431,11031,-92,0,0,0,0,0
1892,1765915551472,255,8259,296,0,0,0,0,0
1893,1765915551587,-677,6342,347,0,0,0,0,0
1894,1765915551706,131,8679,923,0,0,0,0,0
1895,1765915551906,-781,8296,510,0,0,0,0,0
1896,1765915552039,-651,8250,204,0,0,0,0,0
1897,1765915552255,-728,9062,504,0,0,0,0,0
1898,1765915552338,-334,8165,758,0,0,0,0,0
1899,1765915552506,-489,7901,433,0,0,0,0,0
1900,1765915552573,-1136,8146,862,0,0,0,0,0
1901,1765915552805,-1642,7980,589,0,0,0,0,0
1902,1765915552889,-360,8205,548,0,0,0,0,0
1903,1765915553122,-1658,8250,197,0,0,0,0,0
1904,1765915553171,-2088,6385,56,0,0,0,0,0
1905,1765915553406,-1369,8958,981,0,0,0,0,0
1906,1765915553522,153,9049,860,0,0,0,0,0
1907,1765915553705,148,8823,1195,0,0,0,0,0
1908,1765915553973,-1070,8249,-551,0,0,0,0,0
1909,1765915554055,-944,8058,-18,0,0,0,0,0
1910,1765915554289,88,8722,776,0,0,0,0,0
1911,1765915554556,-178,7899,-543,0,0,0,0,0
1912,1765915554605,962,8430,378,0,0,0,0,0
1913,1765915554856,561,8923,-32,0,0,0,0,0
1914,1765915554988,1251,9453,1389,0,0,0,0,0
1915,1765915555156,1009,8537,-2462,0,0,0,0,0
1916,1765915555189,392,10795,-1239,0,0,0,0,0
1917,1765915555439,-433,5296,-826,0,0,0,0,0
1918,1765915555572,310,8846,-748,0,0,0,0,0
1919,1765915555723,182,7435,-833,0,0,0,0,0
1920,1765915556006,-715,9734,-1063,0,0,0,0,0
1921,1765915556105,-544,7450,-316,0,0,0,0,0
1922,1765915556305,-730,8775,-130,0,0,0,0,0
1923,1765915556489,-558,8278,-1325,0,0,0,0,0
1924,1765915556639,-1559,7858,-2127,0,0,0,0,0
1925,1765915556871,-1971,7940,-2071,0,0,0,0,0
1926,1765915557005,-1540,8164,-2518,0,0,0,0,0
1927,1765915557172,-1745,8626,-2402,0,0,0,0,0
1928,1765915557438,676,8224,-1663,0,0,0,0,0
1929,1765915557504,-504,8392,-2249,0,0,0,0,0
1930,1765915557739,-686,8681,-2531,0,0,0,0,0
1931,1765915557872,-263,7317,-2409,0,0,0,0,0
1932,1765915558072,-1259,7068,-2350,0,0,0,0,0
1933,1765915558305,-625,8010,-2549,0,0,0,0,0
1934,1765915558405,-548,9856,-1515,0,0,0,0,0
1935,1765915558622,661,6475,-1496,0,0,0,0,0
1936,1765915558855,376,7498,-888,0,0,0,0,0
1937,1765915558938,1,8310,-776,0,0,0,0,0
1938,1765915559189,-590,9059,-885,0,0,0,0,0
1939,1765915559272,412,7823,-288,0,0,0,0,0
1940,1765915559505,-272,9069,-764,0,0,0,0,0
1941,1765915559738,158,7003,-688,0,0,0,0,0
1942,1765915559805,-751,8116,-802,0,0,0,0,0
1943,1765915560037,-483,8482,-610,0,0,0,0,0
1944,1765915560239,-488,8159,-734,0,0,0,0,0
1945,1765915560372,-658,8744,-990,0,0,0,0,0
1946,1765915560605,152,8859,-727,0,0,0,0,0
1947,1765915560688,-308,7659,-621,0,0,0,0,0
1948,1765915560954,-184,8221,-1318,0,0,0,0,0
1949,1765915561155,-571,7618,-1276,0,0,0,0,0
1950,1765915561239,101,8372,-1346,0,0,0,0,0
1951,1765915561489,-266,9074,-1538,0,0,0,0,0
1952,1765915561655,-1874,8632,-1745,0,0,0,0,0
1953,1765915561824,-1446,8113,-2033,0,0,0,0,0
1954,1765915562037,-1366,7752,-1944,0,0,0,0,0
1955,1765915562103,-1723,8616,-2002,0,0,0,0,0
1956,1765915562388,-910,8301,-1922,0,0,0,0,0
1957,1765915562538,-649,7801,-2099,0,0,0,0,0
1958,1765915562671,-1092,8940,-2153,0,0,0,0,0
1959,1765915562905,-1005,8197,-1961,0,0,0,0,0
1960,1765915562954,-790,8061,-1902,0,0,0,0,0
1961,1765915563055,-424,8332,-2356,0,0,0,0,0
1962,1765915563254,-586,7978,-2338,0,0,0,0,0
1963,1765915563438,-916,7854,-2246,0,0,0,0,0
1964,1765915563555,-572,8443,-2328,0,0,0,0,0
1965,1765915563821,-471,8212,-2324,0,0,0,0,0
1966,1765915563938,-514,8180,-2281,0,0,0,0,0
1967,1765915564122,-535,8080,-2266,0,0,0,0,0
1968,1765915564323,-473,8274,-2075,0,0,0,0,0
1969,1765915564387,-401,8110,-386,0,0,0,0,0
1970,1765915564454,-462,8360,-407,0,0,0,0,0
1971,1765915564688,-457,8250,-425,0,0,0,0,0
1972,1765915564805,-432,8260,-189,0,0,0,0,0
1973,1765915564987,-434,8336,-325,0,0,0,0,0
1974,1765915565238,-460,8278,-445,0,0,0,0,0
1975,1765915565322,-446,8306,-442,0,0,0,0,0
1976,1765915565555,-460,8282,-344,0,0,0,0,0
1977,1765915565655,-446,8288,-323,0,0,0,0,0
1978,1765915565871,-498,8309,-398,0,0,0,0,0
1979,1765915566071,-453,8285,-381,0,0,0,0,0
1980,1765915566171,-452,8271,-405,0,0,0,0,0
1981,1765915566421,-466,8312,-394,0,0,0,0,0
1982,1765915566488,-510,8254,-400,0,0,0,0,0
1983,1765915566572,-563,8542,-544,0,0,0,0,0
1984,1765915566754,-368,7840,-537,0,0,0,0,0
1985,1765915566921,-539,8170,-304,0,0,0,0,0
1986,1765915567054,-363,8810,206,0,0,0,0,0
1987,1765915567305,-412,8288,-424,0,0,0,0,0
1988,1765915567421,-434,8338,-440,0,0,0,0,0
1989,1765915567622,-484,8227,-430,0,0,0,0,0
1990,1765915567788,-460,8242,-432,0,0,0,0,0
1991,1765915567905,-440,8377,-375,0,0,0,0,0
1992,1765915567955,-435,8273,-280,0,0,0,0,0
1993,1765915568188,-510,8336,-405,0,0,0,0,0
1994,1765915568304,-384,8209,-369,0,0,0,0,0
1995,1765915568487,-456,8320,-446,0,0,0,0,0
1996,1765915568704,-473,8307,-370,0,0,0,0,0
1997,1765915568805,-491,8285,-408,0,0,0,0,0
1998,1765915569054,-443,8266,-392,0,0,0,0,0
1999,1765915569121,-410,8285,-344,0,0,0,0,0
2000,1765915569372,-523,8308,-366,0,0,0,0,0
2001,1765915569505,-468,8260,-370,0,0,0,0,0
2002,1765915569672,-429,8282,-368,0,0,0,0,0
2003,1765915569871,-434,8342,-392,0,0,0,0,0
2004,1765915569972,-487,8222,-372,0,0,0,0,0
2005,1765915570238,-407,8268,-340,0,0,0,0,0
2006,1765915570355,-404,8241,-383,0,0,0,0,0
2007,1765915570538,-510,8283,-375,0,0,0,0,0
2008,1765915570705,-511,8331,-350,0,0,0,0,0
2009,1765915570738,-455,8288,-362,0,0,0,0,0
2010,1765915570871,-413,8289,-328,0,0,0,0,0
2011,1765915571088,-494,8317,-363,0,0,0,0,0
2012,1765915571188,-498,8231,-393,0,0,0,0,0
2013,1765915571388,-410,8320,-416,0,0,0,0,0
2014,1765915571587,-487,8275,-341,0,0,0,0,0
2015,1765915571721,-482,8255,-386,0,0,0,0,0
2016,1765915571921,-436,8303,-422,0,0,0,0,0
2017,1765915572020,-461,8274,-406,0,0,0,0,0
2018,1765915572288,-472,8298,-342,0,0,0,0,0
2019,1765915572388,-458,8282,-402,0,0,0,0,0
2020,1765915572587,-446,8294,-420,0,0,0,0,0
2021,1765915572738,-482,8265,-373,0,0,0,0,0
2022,1765915572905,-442,8258,-412,0,0,0,0,0
2023,1765915573138,-454,8338,-350,0,0,0,0,0
2024,1765915573204,-469,8307,-316,0,0,0,0,0
2025,1765915573438,-461,8226,-414,0,0,0,0,0
2026,1765915573555,-464,8346,-420,0,0,0,0,0
2027,1765915573771,-476,8312,-372,0,0,0,0,0
2028,1765915573938,-436,8184,-389,0,0,0,0,0
2029,1765915574125,-468,8340,-420,0,0,0,0,0
2030,1765915574304,-454,8334,-168,0,0,0,0,0
2031,1765915574388,-472,8288,-310,0,0,0,0,0
2032,1765915574621,-448,8261,-417,0,0,0,0,0
2033,1765915574704,-454,8309,-464,0,0,0,0,0
2034,1765915574920,-474,8251,-518,0,0,0,0,0
2035,1765915575071,-454,8275,-444,0,0,0,0,0
2036,1765915575254,-453,8326,-319,0,0,0,0,0
2037,1765915575438,-454,8291,-252,0,0,0,0,0
2038,1765915575538,-426,8286,-403,0,0,0,0,0
2039,1765915575804,-467,8280,-424,0,0,0,0,0
2040,1765915575888,-452,8252,-362,0,0,0,0,0
2041,1765915576105,-470,8323,-352,0,0,0,0,0
2042,1765915576238,-462,8260,-379,0,0,0,0,0
2043,1765915576422,-452,8285,-409,0,0,0,0,0
2044,1765915576638,-464,8292,-385,0,0,0,0,0
2045,1765915576721,-460,8297,-382,0,0,0,0,0
2046,1765915576955,-453,8292,-375,0,0,0,0,0
2047,1765915577022,-465,8282,-389,0,0,0,0,0
2048,1765915577288,-463,8292,-377,0,0,0,0,0
2049,1765915577438,-462,8278,-385,0,0,0,0,0
2050,1765915577586,-460,8296,-384,0,0,0,0,0
2051,1765915577804,-460,8272,-400,0,0,0,0,0
2052,1765915577919,-457,8292,-376,0,0,0,0,0
2053,1765915578138,-448,8297,-355,0,0,0,0,0
2054,1765915578238,-464,8283,-398,0,0,0,0,0
2055,1765915578438,-459,8285,-407,0,0,0,0,0
2056,1765915578605,-454,8293,-405,0,0,0,0,0
2057,1765915578771,-455,8298,-364,0,0,0,0,0
2058,1765915578938,-455,8248,-345,0,0,0,0,0
2059,1765915579054,-452,8330,-420,0,0,0,0,0
2060,1765915579305,-468,8282,-398,0,0,0,0,0
2061,1765915579388,-448,8299,-358,0,0,0,0,0
2062,1765915579621,-465,8310,-380,0,0,0,0,0
2063,1765915579721,-451,8250,-387,0,0,0,0,0
2064,1765915579938,-469,8294,-384,0,0,0,0,0
2065,1765915580021,-456,8300,-353,0,0,0,0,0
2066,1765915580237,-465,8285,-388,0,0,0,0,0
2067,1765915580354,-455,8306,-410,0,0,0,0,0
2068,1765915580521,-472,8269,-420,0,0,0,0,0
2069,1765915580638,-436,8304,-308,0,0,0,0,0
2070,1765915580838,-453,8266,-371,0,0,0,0,0
2071,1765915580971,-454,8284,-401,0,0,0,0,0
2072,1765915581138,-475,8310,-434,0,0,0,0,0
2073,1765915581438,-459,8290,-352,0,0,0,0,0
2074,1765915581521,-476,8294,-398,0,0,0,0,0
2075,1765915581721,-448,8283,-407,0,0,0,0,0
2076,1765915581855,-460,8280,-422,0,0,0,0,0
2077,1765915582038,-462,8282,-346,0,0,0,0,0
2078,1765915582104,-459,8271,-388,0,0,0,0,0
2079,1765915582338,-466,8285,-441,0,0,0,0,0
2080,1765915582421,-466,8292,-432,0,0,0,0,0
2081,1765915582638,-446,8272,-379,0,0,0,0,0
2082,1765915582705,-458,8278,-396,0,0,0,0,0
2083,1765915582938,-452,8302,-395,0,0,0,0,0
2084,1765915583021,-441,8298,-400,0,0,0,0,0
2085,1765915583237,-431,8284,-357,0,0,0,0,0
2086,1765915583337,-454,8275,-384,0,0,0,0,0
2087,1765915583536,-452,8302,-392,0,0,0,0,0
2088,1765915583604,-457,8293,-388,0,0,0,0,0
2089,1765915583837,-464,8271,-387,0,0,0,0,0
2090,1765915583904,-447,8262,-371,0,0,0,0,0
2091,1765915584104,-440,8272,-396,0,0,0,0,0
2092,1765915584222,-500,8334,-417,0,0,0,0,0
2093,1765915584421,-437,8241,-405,0,0,0,0,0
2094,1765915584505,-428,8316,-369,0,0,0,0,0
2095,1765915584821,-452,8292,-405,0,0,0,0,0
2096,1765915585059,-466,8261,-397,0,0,0,0,0
2097,1765915585103,-450,8290,-392,0,0,0,0,0
2098,1765915585271,-461,8300,-392,0,0,0,0,0
2099,1765915585421,-450,8269,-353,0,0,0,0,0
2100,1765915585504,-456,8292,-371,0,0,0,0,0
2101,1765915585705,-430,8321,-397,0,0,0,0,0
2102,1765915585821,-469,8276,-432,0,0,0,0,0
2103,1765915586004,-469,8255,-388,0,0,0,0,0
2104,1765915586304,-488,8264,-435,0,0,0,0,0
2105,1765915586371,-436,8287,-405,0,0,0,0,0
2106,1765915586604,-476,8284,-378,0,0,0,0,0
2107,1765915586688,-427,8280,-349,0,0,0,0,0
2108,1765915586838,-437,8284,-404,0,0,0,0,0
2109,1765915586971,-468,8302,-371,0,0,0,0,0
2110,1765915587121,-435,8261,-374,0,0,0,0,0
2111,1765915587254,-447,8264,-405,0,0,0,0,0
2112,1765915587438,-479,8340,-410,0,0,0,0,0
2113,1765915587555,-478,8252,-426,0,0,0,0,0
2114,1765915587654,-510,8320,-406,0,0,0,0,0
2115,1765915587854,-412,8244,-353,0,0,0,0,0
2116,1765915587954,-456,8280,-404,0,0,0,0,0
2117,1765915588155,-482,8271,-375,0,0,0,0,0
2118,1765915588254,-452,8262,-388,0,0,0,0,0
2119,1765915588471,-458,8322,-404,0,0,0,0,0
2120,1765915588604,-462,8240,-386,0,0,0,0,0
2121,1765915588771,-454,8341,-363,0,0,0,0,0
2122,1765915589021,-457,8298,-388,0,0,0,0,0
2123,1765915589087,-502,8170,-430,0,0,0,0,0
2124,1765915589337,-472,8281,-383,0,0,0,0,0
2125,1765915589454,-424,8286,-360,0,0,0,0,0
2126,1765915589654,-456,8318,-373,0,0,0,0,0
2127,1765915589854,-440,8255,-399,0,0,0,0,0
2128,1765915589954,-445,8288,-427,0,0,0,0,0
2129,1765915590188,-457,8304,-388,0,0,0,0,0
2130,1765915590288,-456,8271,-359,0,0,0,0,0
2131,1765915590322,-454,8343,-398,0,0,0,0,0
2132,1765915590521,-431,8246,-404,0,0,0,0,0
2133,1765915590704,-462,8243,-346,0,0,0,0,0
2134,1765915590822,-450,8337,-436,0,0,0,0,0
2135,1765915591088,-457,8301,-393,0,0,0,0,0
2136,1765915591236,-478,8274,-430,0,0,0,0,0
2137,1765915591388,-441,8296,-419,0,0,0,0,0
2138,1765915591621,-447,8284,-348,0,0,0,0,0
2139,1765915591754,-471,8306,-408,0,0,0,0,0
2140,1765915591955,-452,8289,-390,0,0,0,0,0
2141,1765915592104,-430,8295,-367,0,0,0,0,0
2142,1765915592255,-460,8296,-370,0,0,0,0,0
2143,1765915592521,-436,8318,-379,0,0,0,0,0
2144,1765915592604,-436,8300,-373,0,0,0,0,0
2145,1765915592821,-468,8272,-364,0,0,0,0,0
2146,1765915592955,-462,8316,-398,0,0,0,0,0
2147,1765915593154,-446,8306,-363,0,0,0,0,0
2148,1765915593404,-456,8287,-381,0,0,0,0,0
2149,1765915593455,-448,8271,-396,0,0,0,0,0
2150,1765915593688,-451,8292,-411,0,0,0,0,0
2151,1765915593937,-452,8303,-388,0,0,0,0,0
2152,1765915594021,-454,8256,-387,0,0,0,0,0
2153,1765915594255,-449,8310,-398,0,0,0,0,0
2154,1765915594354,-448,8284,-384,0,0,0,0,0
2155,1765915594588,-452,8315,-378,0,0,0,0,0
2156,1765915594804,-446,8265,-380,0,0,0,0,0
2157,1765915594888,-443,8307,-404,0,0,0,0,0
2158,1765915595121,-458,8276,-385,0,0,0,0,0
2159,1765915595221,-454,8269,-401,0,0,0,0,0
2160,1765915595271,-457,8314,-372,0,0,0,0,0
2161,1765915595454,-450,8266,-414,0,0,0,0,0
2162,1765915595654,-455,8304,-384,0,0,0,0,0
2163,1765915595753,-453,8312,-354,0,0,0,0,0
2164,1765915596019,-450,8300,-374,0,0,0,0,0
2165,1765915596138,-447,8278,-404,0,0,0,0,0
2166,1765915596321,-449,8288,-384,0,0,0,0,0
2167,1765915596504,-458,8288,-394,0,0,0,0,0
2168,1765915596621,-457,8283,-398,0,0,0,0,0
2169,1765915596888,-450,8275,-394,0,0,0,0,0
2170,1765915597021,-454,8296,-393,0,0,0,0,0
2171,1765915597188,-452,8286,-391,0,0,0,0,0
2172,1765915597454,-453,8271,-400,0,0,0,0,0
2173,1765915597554,-442,8286,-383,0,0,0,0,0
2174,1765915597754,-459,8313,-385,0,0,0,0,0
2175,1765915597904,-468,8277,-389,0,0,0,0,0
2176,1765915598088,-444,8297,-388,0,0,0,0,0
2177,1765915598321,-458,8282,-386,0,0,0,0,0
2178,1765915598404,-455,8295,-391,0,0,0,0,0
2179,1765915598621,-455,8295,-389,0,0,0,0,0
2180,1765915598752,-448,8272,-404,0,0,0,0,0
2181,1765915598854,-461,8313,-368,0,0,0,0,0
2182,1765915598955,-462,8288,-402,0,0,0,0,0
2183,1765915599188,-432,8260,-400,0,0,0,0,0
2184,1765915599271,-471,8296,-392,0,0,0,0,0
2185,1765915599521,-456,8303,-392,0,0,0,0,0
2186,1765915599688,-447,8262,-386,0,0,0,0,0
2187,1765915599821,-453,8311,-399,0,0,0,0,0
2188,1765915600021,-464,8298,-389,0,0,0,0,0
2189,1765915600121,-437,8284,-394,0,0,0,0,0
2190,1765915600371,-452,8273,-397,0,0,0,0,0
2191,1765915600436,-457,8275,-378,0,0,0,0,0
2192,1765915600670,-442,8316,-387,0,0,0,0,0
2193,1765915600770,-460,8284,-400,0,0,0,0,0
2194,1765915600988,-462,8307,-364,0,0,0,0,0
2195,1765915601105,-446,8320,-398,0,0,0,0,0
2196,1765915601288,-450,8246,-396,0,0,0,0,0
2197,1765915601454,-454,8313,-409,0,0,0,0,0
2198,1765915601621,-441,8272,-389,0,0,0,0,0
2199,1765915601821,-447,8304,-386,0,0,0,0,0
2200,1765915601904,-450,8278,-408,0,0,0,0,0
2201,1765915602138,-450,8280,-396,0,0,0,0,0
2202,1765915602238,-449,8311,-388,0,0,0,0,0
2203,1765915602471,-441,8310,-392,0,0,0,0,0
2204,1765915602570,-445,8288,-393,0,0,0,0,0
2205,1765915602754,-459,8271,-384,0,0,0,0,0
2206,1765915602920,-473,8310,-390,0,0,0,0,0
2207,1765915603071,-439,8275,-387,0,0,0,0,0
2208,1765915603270,-455,8318,-387,0,0,0,0,0
2209,1765915603371,-457,8273,-401,0,0,0,0,0
2210,1765915603604,-450,8282,-385,0,0,0,0,0
2211,1765915603704,-454,8274,-356,0,0,0,0,0
2212,1765915603937,-482,8271,-418,0,0,0,0,0
2213,1765915604021,-446,8285,-405,0,0,0,0,0
2214,1765915604220,-452,8278,-386,0,0,0,0,0
2215,1765915604371,-471,8286,-357,0,0,0,0,0
2216,1765915604554,-438,8354,-415,0,0,0,0,0
2217,1765915604704,-464,8295,-401,0,0,0,0,0
2218,1765915604854,-458,8248,-495,0,0,0,0,0
2219,1765915605037,-427,8320,-418,0,0,0,0,0
2220,1765915605171,-483,8291,-319,0,0,0,0,0
2221,1765915605388,-479,8288,-398,0,0,0,0,0
2222,1765915605454,-439,8274,-456,0,0,0,0,0
2223,1765915605704,-434,8270,-428,0,0,0,0,0
2224,1765915605788,-448,8295,-358,0,0,0,0,0
2225,1765915606020,-464,8300,-403,0,0,0,0,0
2226,1765915606104,-456,8268,-425,0,0,0,0,0
2227,1765915606305,-462,8295,-413,0,0,0,0,0
2228,1765915606454,-451,8299,-361,0,0,0,0,0
2229,1765915606636,-452,8298,-404,0,0,0,0,0
2230,1765915606941,-449,8300,-377,0,0,0,0,0
2231,1765915606952,-458,8277,-362,0,0,0,0,0
2232,1765915607121,-454,8294,-389,0,0,0,0,0
2233,1765915607254,-443,8294,-378,0,0,0,0,0
2234,1765915607488,-448,8292,-382,0,0,0,0,0
2235,1765915607538,-456,8278,-399,0,0,0,0,0
2236,1765915607787,-466,8295,-407,0,0,0,0,0
2237,1765915607888,-452,8283,-401,0,0,0,0,0
2238,1765915607888,-469,8252,-420,0,0,0,0,0
2239,1765915608106,-422,8344,-386,0,0,0,0,0
2240,1765915608221,-450,8229,-330,0,0,0,0,0
2241,1765915608387,-448,8335,-370,0,0,0,0,0
2242,1765915608555,-450,8232,-354,0,0,0,0,0
2243,1765915608704,-448,8287,-397,0,0,0,0,0
2244,1765915608904,-435,8298,-397,0,0,0,0,0
2245,1765915609004,-474,8295,-364,0,0,0,0,0
2246,1765915609219,-450,8222,-359,0,0,0,0,0
2247,1765915609320,-470,8277,-425,0,0,0,0,0
2248,1765915609538,-436,8229,-353,0,0,0,0,0
2249,1765915609621,-440,8375,-363,0,0,0,0,0
2250,1765915609854,-448,8228,-366,0,0,0,0,0
2251,1765915609971,-466,8266,-410,0,0,0,0,0
2252,1765915610171,-442,8302,-382,0,0,0,0,0
2253,1765915610304,-460,8295,-380,0,0,0,0,0
2254,1765915610470,-452,8276,-386,0,0,0,0,0
2255,1765915610637,-442,8297,-411,0,0,0,0,0
2256,1765915610787,-454,8287,-382,0,0,0,0,0
2257,1765915610971,-464,8279,-422,0,0,0,0,0
2258,1765915611087,-452,8301,-424,0,0,0,0,0
2259,1765915611321,-453,8282,-361,0,0,0,0,0
2260,1765915611405,-453,8267,-418,0,0,0,0,0
2261,1765915611637,-462,8298,-417,0,0,0,0,0
2262,1765915611702,-448,8294,-380,0,0,0,0,0
2263,1765915611937,-448,8284,-352,0,0,0,0,0
2264,1765915612054,-449,8288,-376,0,0,0,0,0
2265,1765915612270,-441,8270,-394,0,0,0,0,0
2266,1765915612387,-444,8310,-378,0,0,0,0,0
2267,1765915612554,-454,8272,-379,0,0,0,0,0
2268,1765915612736,-450,8290,-392,0,0,0,0,0
2269,1765915612869,-455,8294,-391,0,0,0,0,0
2270,1765915613069,-442,8282,-371,0,0,0,0,0
2271,1765915613169,-451,8295,-396,0,0,0,0,0
2272,1765915613404,-450,8298,-397,0,0,0,0,0
2273,1765915613488,-455,8303,-384,0,0,0,0,0
2274,1765915613721,-451,8280,-390,0,0,0,0,0
2275,1765915613805,-448,8295,-401,0,0,0,0,0
2276,1765915614021,-457,8288,-390,0,0,0,0,0
2277,1765915614171,-445,8289,-386,0,0,0,0,0
2278,1765915614337,-445,8269,-386,0,0,0,0,0
2279,1765915614454,-447,8273,-380,0,0,0,0,0
2280,1765915614620,-452,8317,-389,0,0,0,0,0
2281,1765915614770,-455,8286,-385,0,0,0,0,0
2282,1765915614921,-456,8290,-390,0,0,0,0,0
2283,1765915614988,-452,8312,-381,0,0,0,0,0
2284,1765915615220,-454,8269,-386,0,0,0,0,0
2285,1765915615304,-455,8285,-372,0,0,0,0,0
2286,1765915615604,-446,8273,-380,0,0,0,0,0
2287,1765915615737,-455,8306,-382,0,0,0,0,0
2288,1765915615887,-448,8288,-389,0,0,0,0,0
2289,1765915616053,-448,8269,-403,0,0,0,0,0
2290,1765915616170,-451,8297,-407,0,0,0,0,0
2291,1765915616271,-462,8280,-369,0,0,0,0,0
2292,1765915616487,-460,8276,-398,0,0,0,0,0
2293,1765915616571,-458,8312,-420,0,0,0,0,0
2294,1765915616752,-447,8284,-360,0,0,0,0,0
2295,1765915616870,-436,8276,-374,0,0,0,0,0
2296,1765915617004,-458,8281,-388,0,0,0,0,0
2297,1765915617121,-460,8282,-396,0,0,0,0,0
2298,1765915617287,-453,8297,-398,0,0,0,0,0
2299,1765915617404,-445,8285,-410,0,0,0,0,0
2300,1765915617654,-446,8311,-375,0,0,0,0,0
2301,1765915617871,-440,8290,-396,0,0,0,0,0
2302,1765915617954,-456,8276,-411,0,0,0,0,0
2303,1765915618054,-458,8295,-385,0,0,0,0,0
2304,1765915618238,-442,8292,-382,0,0,0,0,0
2305,1765915618321,-460,8286,-394,0,0,0,0,0
2306,1765915618404,-448,8299,-410,0,0,0,0,0
2307,1765915618619,-440,8272,-389,0,0,0,0,0
2308,1765915618704,-448,8292,-382,0,0,0,0,0
2309,1765915618904,-455,8282,-382,0,0,0,0,0
2310,1765915619004,-448,8272,-412,0,0,0,0,0
2311,1765915619054,-448,8270,-414,0,0,0,0,0
2312,1765915619287,-467,8309,-386,0,0,0,0,0
2313,1765915619354,-456,8287,-367,0,0,0,0,0
2314,1765915619571,-442,8281,-384,0,0,0,0,0
2315,1765915619637,-452,8304,-394,0,0,0,0,0
2316,1765915619722,-438,8282,-384,0,0,0,0,0
2317,1765915619921,-457,8290,-407,0,0,0,0,0
2318,1765915620021,-469,8289,-390,0,0,0,0,0
2319,1765915620220,-440,8294,-384,0,0,0,0,0
2320,1765915620288,-443,8279,-398,0,0,0,0,0
2321,1765915620404,-454,8304,-399,0,0,0,0,0
2322,1765915620571,-456,8294,-389,0,0,0,0,0
2323,1765915620687,-453,8284,-384,0,0,0,0,0
2324,1765915620871,-453,8286,-380,0,0,0,0,0
2325,1765915621070,-451,8283,-390,0,0,0,0,0
2326,1765915621221,-457,8288,-380,0,0,0,0,0
2327,1765915621354,-458,8303,-393,0,0,0,0,0
2328,1765915621504,-446,8279,-395,0,0,0,0,0
2329,1765915621687,-462,8287,-392,0,0,0,0,0
2330,1765915621854,-450,8286,-388,0,0,0,0,0
2331,1765915621987,-442,8274,-394,0,0,0,0,0
2332,1765915622154,-449,8313,-394,0,0,0,0,0
2333,1765915622271,-455,8271,-396,0,0,0,0,0
2334,1765915622337,-460,8286,-394,0,0,0,0,0
2335,1765915622504,-451,8290,-388,0,0,0,0,0
2336,1765915622637,-454,8283,-385,0,0,0,0,0
2337,1765915622787,-452,8289,-398,0,0,0,0,0
2338,1765915622904,-448,8290,-397,0,0,0,0,0
2339,1765915623070,-448,8288,-390,0,0,0,0,0
2340,1765915623154,-455,8276,-388,0,0,0,0,0
2341,1765915623387,-460,8293,-385,0,0,0,0,0
2342,1765915623471,-443,8286,-385,0,0,0,0,0
2343,1765915623702,-458,8299,-386,0,0,0,0,0
2344,1765915623770,-447,8287,-396,0,0,0,0,0
2345,1765915624004,-452,8287,-390,0,0,0,0,0
2346,1765915624104,-458,8307,-398,0,0,0,0,0
2347,1765915624304,-448,8283,-376,0,0,0,0,0
2348,1765915624421,-468,8282,-397,0,0,0,0,0
2349,1765915624621,-433,8302,-402,0,0,0,0,0
2350,1765915624737,-457,8269,-383,0,0,0,0,0
2351,1765915624920,-456,8288,-362,0,0,0,0,0
2352,1765915625221,-440,8289,-384,0,0,0,0,0
2353,1765915625371,-460,8302,-378,0,0,0,0,0
2354,1765915625520,-447,8284,-386,0,0,0,0,0
2355,1765915625704,-450,8275,-400,0,0,0,0,0
2356,1765915625838,-450,8281,-385,0,0,0,0,0
2357,1765915625987,-450,8270,-388,0,0,0,0,0
2358,1765915626138,-451,8303,-385,0,0,0,0,0
2359,1765915626337,-450,8286,-388,0,0,0,0,0
2360,1765915626454,-446,8311,-392,0,0,0,0,0
2361,1765915626654,-463,8264,-400,0,0,0,0,0
2362,1765915626754,-450,8297,-400,0,0,0,0,0
2363,1765915626987,-452,8300,-391,0,0,0,0,0
2364,1765915627087,-450,8289,-394,0,0,0,0,0
2365,1765915627321,-446,8293,-394,0,0,0,0,0
2366,1765915627387,-460,8309,-394,0,0,0,0,0
2367,1765915627603,-454,8267,-396,0,0,0,0,0
2368,1765915627721,-454,8294,-388,0,0,0,0,0
2369,1765915627921,-452,8273,-408,0,0,0,0,0
2370,1765915628020,-450,8285,-392,0,0,0,0,0
2371,1765915628205,-452,8311,-393,0,0,0,0,0
2372,1765915628354,-453,8274,-383,0,0,0,0,0
2373,1765915628537,-453,8318,-388,0,0,0,0,0
2374,1765915628654,-450,8266,-394,0,0,0,0,0
2375,1765915628818,-448,8285,-381,0,0,0,0,0
2376,1765915628970,-446,8312,-382,0,0,0,0,0
2377,1765915629102,-458,8274,-389,0,0,0,0,0
2378,1765915629254,-454,8288,-384,0,0,0,0,0
2379,1765915629420,-449,8302,-397,0,0,0,0,0
2380,1765915629604,-454,8276,-392,0,0,0,0,0
2381,1765915629721,-451,8280,-390,0,0,0,0,0
2382,1765915630037,-456,8293,-397,0,0,0,0,0
2383,1765915630254,-454,8292,-392,0,0,0,0,0
2384,1765915630337,-450,8273,-391,0,0,0,0,0
2385,1765915630570,-446,8305,-389,0,0,0,0,0
2386,1765915630653,-453,8276,-396,0,0,0,0,0
2387,1765915630871,-441,8280,-397,0,0,0,0,0
2388,1765915630937,-464,8300,-381,0,0,0,0,0
2389,1765915631188,-448,8262,-384,0,0,0,0,0
2390,1765915631254,-449,8301,-392,0,0,0,0,0
2391,1765915631504,-464,8287,-390,0,0,0,0,0
2392,1765915631554,-450,8274,-392,0,0,0,0,0
2393,1765915631803,-443,8315,-401,0,0,0,0,0
2394,1765915631887,-447,8276,-395,0,0,0,0,0
2395,1765915632120,-453,8285,-393,0,0,0,0,0
2396,1765915632171,-447,8302,-406,0,0,0,0,0
2397,1765915632404,-451,8272,-395,0,0,0,0,0
2398,1765915632521,-451,8296,-386,0,0,0,0,0
2399,1765915632720,-455,8267,-393,0,0,0,0,0
2400,1765915632854,-448,8316,-392,0,0,0,0,0
2401,1765915633021,-468,8268,-376,0,0,0,0,0
2402,1765915633187,-448,8286,-383,0,0,0,0,0
2403,1765915633320,-458,8290,-399,0,0,0,0,0
2404,1765915633471,-441,8272,-373,0,0,0,0,0
2405,1765915633637,-462,8295,-384,0,0,0,0,0
2406,1765915633804,-449,8298,-382,0,0,0,0,0
2407,1765915633919,-455,8280,-396,0,0,0,0,0
2408,1765915634120,-453,8302,-391,0,0,0,0,0
2409,1765915634237,-450,8288,-390,0,0,0,0,0
2410,1765915634454,-458,8279,-390,0,0,0,0,0
2411,1765915634537,-455,8300,-388,0,0,0,0,0
2412,1765915634769,-452,8289,-383,0,0,0,0,0
2413,1765915634854,-472,8294,-397,0,0,0,0,0
2414,1765915635087,-446,8276,-379,0,0,0,0,0
2415,1765915635154,-445,8272,-388,0,0,0,0,0
2416,1765915635387,-452,8293,-401,0,0,0,0,0
2417,1765915635487,-459,8276,-407,0,0,0,0,0
2418,1765915635704,-446,8283,-385,0,0,0,0,0
2419,1765915635804,-442,8284,-400,0,0,0,0,0
2420,1765915636004,-458,8274,-396,0,0,0,0,0
2421,1765915636154,-453,8316,-392,0,0,0,0,0
2422,1765915636320,-469,8292,-421,0,0,0,0,0
2423,1765915636503,-480,8281,-388,0,0,0,0,0
2424,1765915636620,-417,8299,-370,0,0,0,0,0
2425,1765915636820,-452,8262,-388,0,0,0,0,0
2426,1765915636937,-438,8217,-395,0,0,0,0,0
2427,1765915637154,-438,8266,-412,0,0,0,0,0
2428,1765915637220,-448,8342,-393,0,0,0,0,0
2429,1765915637471,-480,8253,-380,0,0,0,0,0
2430,1765915637537,-447,8249,-365,0,0,0,0,0
2431,1765915637787,-466,8308,-417,0,0,0,0,0
2432,1765915637887,-450,8280,-360,0,0,0,0,0
2433,1765915638071,-451,8293,-372,0,0,0,0,0
2434,1765915638203,-453,8332,-365,0,0,0,0,0
2435,1765915638387,-446,8306,-370,0,0,0,0,0
2436,1765915638520,-480,8278,-336,0,0,0,0,0
2437,1765915638687,-451,8299,-394,0,0,0,0,0
2438,1765915638837,-460,8330,-424,0,0,0,0,0
2439,1765915639004,-454,8279,-356,0,0,0,0,0
2440,1765915639187,-465,8286,-394,0,0,0,0,0
2441,1765915639304,-446,8286,-429,0,0,0,0,0
2442,1765915639520,-446,8276,-413,0,0,0,0,0
2443,1765915639732,-468,8282,-364,0,0,0,0,0
2444,1765915639820,-451,8270,-436,0,0,0,0,0
2445,1765915639919,-448,8278,-430,0,0,0,0,0
2446,1765915640137,-458,8299,-361,0,0,0,0,0
2447,1765915640204,-456,8285,-356,0,0,0,0,0
2448,1765915640453,-447,8314,-425,0,0,0,0,0
2449,1765915640537,-432,8317,-393,0,0,0,0,0
2450,1765915640770,-449,8260,-344,0,0,0,0,0
2451,1765915640854,-466,8294,-371,0,0,0,0,0
2452,1765915641087,-440,8269,-388,0,0,0,0,0
2453,1765915641154,-448,8294,-374,0,0,0,0,0
2454,1765915641387,-445,8287,-397,0,0,0,0,0
2455,1765915641504,-454,8263,-401,0,0,0,0,0
2456,1765915641671,-462,8313,-402,0,0,0,0,0
2457,1765915641837,-456,8281,-402,0,0,0,0,0
2458,1765915641970,-443,8275,-382,0,0,0,0,0
2459,1765915642187,-451,8273,-401,0,0,0,0,0
2460,1765915642337,-458,8286,-403,0,0,0,0,0
2461,1765915642470,-453,8300,-394,0,0,0,0,0
2462,1765915642620,-446,8283,-384,0,0,0,0,0
2463,1765915642820,-448,8298,-405,0,0,0,0,0
2464,1765915642953,-453,8279,-387,0,0,0,0,0
2465,1765915643104,-456,8288,-394,0,0,0,0,0
2466,1765915643254,-456,8303,-387,0,0,0,0,0
2467,1765915643387,-454,8279,-381,0,0,0,0,0
2468,1765915643453,-468,8262,-386,0,0,0,0,0
2469,1765915643603,-447,8308,-386,0,0,0,0,0
2470,1765915643735,-444,8292,-402,0,0,0,0,0
2471,1765915643870,-462,8270,-394,0,0,0,0,0
2472,1765915644037,-455,8293,-386,0,0,0,0,0
2473,1765915644104,-443,8314,-398,0,0,0,0,0
2474,1765915644220,-458,8271,-374,0,0,0,0,0
2475,1765915644387,-465,8292,-394,0,0,0,0,0
2476,1765915644503,-450,8300,-394,0,0,0,0,0
2477,1765915644670,-461,8274,-396,0,0,0,0,0
2478,1765915644737,-447,8298,-396,0,0,0,0,0
2479,1765915644787,-468,8298,-384,0,0,0,0,0
2480,1765915645020,-444,8269,-394,0,0,0,0,0
2481,1765915645070,-448,8281,-387,0,0,0,0,0
2482,1765915645303,-443,8311,-377,0,0,0,0,0
2483,1765915645370,-456,8273,-386,0,0,0,0,0
2484,1765915645604,-448,8301,-386,0,0,0,0,0
2485,1765915645704,-452,8300,-396,0,0,0,0,0
2486,1765915645885,-450,8275,-402,0,0,0,0,0
2487,1765915646003,-454,8267,-387,0,0,0,0,0
2488,1765915646204,-460,8298,-402,0,0,0,0,0
2489,1765915646337,-453,8248,-384,0,0,0,0,0
2490,1765915646487,-455,8310,-396,0,0,0,0,0
2491,1765915646636,-466,8291,-410,0,0,0,0,0
2492,1765915646770,-445,8262,-386,0,0,0,0,0
2493,1765915646786,-436,8278,-370,0,0,0,0,0
2494,1765915646987,-457,8294,-393,0,0,0,0,0
2495,1765915647070,-474,8297,-411,0,0,0,0,0
2496,1765915647270,-445,8271,-394,0,0,0,0,0
2497,1765915647371,-444,8286,-394,0,0,0,0,0
2498,1765915647603,-450,8303,-400,0,0,0,0,0
2499,1765915647670,-455,8279,-402,0,0,0,0,0
2500,1765915647887,-454,8278,-399,0,0,0,0,0
2501,1765915647970,-448,8288,-383,0,0,0,0,0
2502,1765915648187,-445,8290,-398,0,0,0,0,0
2503,1765915648305,-450,8279,-395,0,0,0,0,0
2504,1765915648436,-455,8270,-396,0,0,0,0,0
2505,1765915648588,-465,8297,-392,0,0,0,0,0
2506,1765915648720,-450,8291,-384,0,0,0,0,0
2507,1765915648937,-446,8292,-398,0,0,0,0,0
2508,1765915649037,-453,8296,-372,0,0,0,0,0
2509,1765915649221,-466,8288,-391,0,0,0,0,0
2510,1765915649320,-458,8286,-402,0,0,0,0,0
2511,1765915649537,-453,8286,-393,0,0,0,0,0
2512,1765915649637,-458,8294,-383,0,0,0,0,0
2513,1765915649837,-453,8290,-382,0,0,0,0,0
2514,1765915649920,-454,8280,-395,0,0,0,0,0
2515,1765915650220,-460,8282,-393,0,0,0,0,0
2516,1765915650320,-456,8282,-384,0,0,0,0,0
2517,1765915650520,-454,8296,-397,0,0,0,0,0
2518,1765915650675,-450,8296,-391,0,0,0,0,0
2519,1765915650837,-457,8277,-402,0,0,0,0,0
2520,1765915650937,-443,8275,-394,0,0,0,0,0
2521,1765915651120,-453,8306,-379,0,0,0,0,0
2522,1765915651221,-455,8264,-376,0,0,0,0,0
2523,1765915651420,-446,8286,-384,0,0,0,0,0
2524,1765915651521,-456,8299,-385,0,0,0,0,0
2525,1765915651737,-456,8268,-378,0,0,0,0,0
2526,1765915651835,-458,8286,-384,0,0,0,0,0
2527,1765915652021,-450,8298,-391,0,0,0,0,0
2528,1765915652337,-455,8283,-391,0,0,0,0,0
2529,1765915652470,-456,8307,-394,0,0,0,0,0
2530,1765915652637,-445,8270,-396,0,0,0,0,0
2531,1765915652787,-452,8285,-386,0,0,0,0,0
2532,1765915652954,-462,8271,-395,0,0,0,0,0
2533,1765915653103,-451,8280,-401,0,0,0,0,0
2534,1765915653254,-458,8294,-396,0,0,0,0,0
2535,1765915653420,-458,8290,-376,0,0,0,0,0
2536,1765915653569,-457,8283,-401,0,0,0,0,0
2537,1765915653754,-445,8303,-382,0,0,0,0,0
2538,1765915653854,-455,8286,-386,0,0,0,0,0
2539,1765915654086,-451,8278,-394,0,0,0,0,0
2540,1765915654154,-452,8294,-388,0,0,0,0,0
2541,1765915654370,-446,8282,-395,0,0,0,0,0
2542,1765915654470,-450,8277,-384,0,0,0,0,0
2543,1765915654719,-454,8313,-385,0,0,0,0,0
2544,1765915654769,-456,8276,-392,0,0,0,0,0
2545,1765915654985,-446,8296,-394,0,0,0,0,0
2546,1765915655085,-467,8286,-390,0,0,0,0,0
2547,1765915655320,-458,8286,-388,0,0,0,0,0
2548,1765915655371,-445,8289,-388,0,0,0,0,0
2549,1765915655603,-456,8282,-384,0,0,0,0,0
2550,1765915655687,-458,8280,-392,0,0,0,0,0
2551,1765915655920,-449,8278,-391,0,0,0,0,0
2552,1765915656004,-465,8299,-390,0,0,0,0,0
2553,1765915656218,-454,8286,-387,0,0,0,0,0
2554,1765915656553,-460,8304,-388,0,0,0,0,0
2555,1765915656653,-456,8265,-391,0,0,0,0,0
2556,1765915656837,-451,8290,-395,0,0,0,0,0
2557,1765915656970,-465,8289,-392,0,0,0,0,0
2558,1765915657153,-444,8288,-402,0,0,0,0,0
2559,1765915657286,-437,8305,-396,0,0,0,0,0
2560,1765915657437,-465,8275,-384,0,0,0,0,0
2561,1765915657603,-456,8293,-398,0,0,0,0,0
2562,1765915657768,-452,8275,-379,0,0,0,0,0
2563,1765915657904,-448,8303,-387,0,0,0,0,0
2564,1765915658054,-451,8282,-394,0,0,0,0,0
2565,1765915658236,-461,8278,-390,0,0,0,0,0
2566,1765915658354,-451,8298,-383,0,0,0,0,0
2567,1765915658519,-467,8296,-402,0,0,0,0,0
2568,1765915658670,-474,8258,-394,0,0,0,0,0
2569,1765915658853,-441,8307,-392,0,0,0,0,0
2570,1765915658970,-444,8282,-388,0,0,0,0,0
2571,1765915659171,-465,8309,-392,0,0,0,0,0
2572,1765915659287,-462,8300,-391,0,0,0,0,0
2573,1765915659487,-452,8269,-394,0,0,0,0,0
2574,1765915659570,-456,8306,-394,0,0,0,0,0
2575,1765915659787,-448,8289,-387,0,0,0,0,0
2576,1765915659887,-450,8290,-395,0,0,0,0,0
2577,1765915660120,-460,8294,-392,0,0,0,0,0
2578,1765915660204,-451,8298,-396,0,0,0,0,0
2579,1765915660420,-453,8280,-387,0,0,0,0,0
2580,1765915660736,-444,8277,-394,0,0,0,0,0
2581,1765915660836,-458,8276,-387,0,0,0,0,0
2582,1765915661037,-456,8301,-392,0,0,0,0,0
2583,1765915661153,-451,8301,-384,0,0,0,0,0
2584,1765915661354,-454,8304,-407,0,0,0,0,0
2585,1765915661625,-461,8290,-398,0,0,0,0,0
2586,1765915661634,-459,8278,-388,0,0,0,0,0
2587,1765915661820,-450,8287,-394,0,0,0,0,0
2588,1765915661969,-451,8290,-399,0,0,0,0,0
2589,1765915662120,-456,8273,-395,0,0,0,0,0
2590,1765915662270,-456,8300,-390,0,0,0,0,0
2591,1765915662454,-455,8303,-390,0,0,0,0,0
2592,1765915662554,-455,8268,-395,0,0,0,0,0
2593,1765915662588,-454,8300,-372,0,0,0,0,0
2594,1765915662770,-465,8275,-384,0,0,0,0,0
2595,1765915662887,-440,8297,-399,0,0,0,0,0
2596,1765915663086,-448,8276,-414,0,0,0,0,0
2597,1765915663170,-477,8297,-393,0,0,0,0,0
2598,1765915663404,-453,8287,-391,0,0,0,0,0
2599,1765915663487,-448,8298,-394,0,0,0,0,0
2600,1765915663720,-457,8296,-381,0,0,0,0,0
2601,1765915663803,-451,8284,-387,0,0,0,0,0
2602,1765915664054,-450,8284,-382,0,0,0,0,0
2603,1765915664120,-452,8275,-390,0,0,0,0,0
2604,1765915664337,-464,8312,-386,0,0,0,0,0
2605,1765915664470,-453,8286,-391,0,0,0,0,0
2606,1765915664636,-441,8286,-396,0,0,0,0,0
2607,1765915664670,-458,8294,-394,0,0,0,0,0
2608,1765915664769,-455,8301,-387,0,0,0,0,0
2609,1765915664953,-447,8268,-393,0,0,0,0,0
2610,1765915665087,-451,8290,-384,0,0,0,0,0
2611,1765915665237,-461,8300,-402,0,0,0,0,0
2612,1765915665387,-454,8288,-399,0,0,0,0,0
2613,1765915665554,-456,8289,-393,0,0,0,0,0
2614,1765915665720,-457,8295,-382,0,0,0,0,0
2615,1765915665853,-452,8274,-397,0,0,0,0,0
2616,1765915666036,-452,8304,-392,0,0,0,0,0
2617,1765915666185,-456,8270,-386,0,0,0,0,0
2618,1765915666387,-459,8296,-392,0,0,0,0,0
2619,1765915666470,-467,8306,-394,0,0,0,0,0
2620,1765915666703,-446,8270,-395,0,0,0,0,0
2621,1765915666787,-458,8296,-392,0,0,0,0,0
2622,1765915667020,-456,8270,-390,0,0,0,0,0
2623,1765915667087,-451,8282,-382,0,0,0,0,0
2624,1765915667320,-450,8301,-390,0,0,0,0,0
2625,1765915667403,-451,8280,-390,0,0,0,0,0
2626,1765915667636,-458,8297,-384,0,0,0,0,0
2627,1765915667687,-449,8298,-397,0,0,0,0,0
2628,1765915667937,-445,8278,-393,0,0,0,0,0
2629,1765915668020,-460,8278,-396,0,0,0,0,0
2630,1765915668253,-442,8286,-391,0,0,0,0,0
2631,1765915668320,-460,8271,-386,0,0,0,0,0
2632,1765915668537,-458,8314,-390,0,0,0,0,0
2633,1765915668637,-447,8276,-396,0,0,0,0,0
2634,1765915668853,-456,8306,-395,0,0,0,0,0
2635,1765915668920,-472,8324,-365,0,0,0,0,0
2636,1765915669137,-468,8238,-408,0,0,0,0,0
2637,1765915669270,-418,8262,-394,0,0,0,0,0
2638,1765915669436,-458,8341,-394,0,0,0,0,0
2639,1765915669753,-459,8247,-402,0,0,0,0,0
2640,1765915669870,-433,8276,-404,0,0,0,0,0
2641,1765915670054,-473,8295,-389,0,0,0,0,0
2642,1765915670203,-444,8278,-342,0,0,0,0,0
2643,1765915670353,-476,8326,-358,0,0,0,0,0
2644,1765915670537,-450,8274,-355,0,0,0,0,0
2645,1765915670637,-446,8272,-349,0,0,0,0,0
2646,1765915670770,-461,8335,-457,0,0,0,0,0
2647,1765915670820,-451,8236,-450,0,0,0,0,0
2648,1765915670887,-449,8290,-426,0,0,0,0,0
2649,1765915670953,-472,8326,-404,0,0,0,0,0
2650,1765915671020,-454,8272,-360,0,0,0,0,0
2651,1765915671070,-430,8288,-332,0,0,0,0,0
2652,1765915671136,-454,8302,-370,0,0,0,0,0
2653,1765915671187,-466,8334,-382,0,0,0,0,0
2654,1765915671252,-465,8288,-402,0,0,0,0,0
2655,1765915671303,-439,8251,-398,0,0,0,0,0
2656,1765915671370,-453,8311,-423,0,0,0,0,0
2657,1765915671420,-484,8320,-383,0,0,0,0,0
2658,1765915671487,-447,8263,-373,0,0,0,0,0
2659,1765915671553,-434,8277,-398,0,0,0,0,0
2660,1765915671619,-448,8330,-399,0,0,0,0,0
2661,1765915671670,-473,8298,-395,0,0,0,0,0
2662,1765915671737,-478,8255,-419,0,0,0,0,0
2663,1765915671803,-451,8304,-377,0,0,0,0,0
2664,1765915671837,-460,8252,-395,0,0,0,0,0
2665,1765915671903,-474,8329,-414,0,0,0,0,0
2666,1765915671970,-436,8289,-404,0,0,0,0,0
2667,1765915672036,-438,8259,-395,0,0,0,0,0
2668,1765915672087,-454,8298,-394,0,0,0,0,0
2669,1765915672153,-460,8311,-378,0,0,0,0,0
2670,1765915672203,-458,8278,-376,0,0,0,0,0
2671,1765915672269,-445,8280,-392,0,0,0,0,0
2672,1765915672320,-455,8298,-402,0,0,0,0,0
2673,1765915672386,-464,8300,-402,0,0,0,0,0
2674,1765915672545,-458,8261,-401,0,0,0,0,0
2675,1765915672551,-446,8293,-393,0,0,0,0,0
2676,1765915672568,-452,8312,-375,0,0,0,0,0
2677,1765915672636,-460,8280,-374,0,0,0,0,0
2678,1765915672686,-443,8280,-388,0,0,0,0,0
2679,1765915672754,-442,8303,-413,0,0,0,0,0
2680,1765915672803,-454,8286,-395,0,0,0,0,0
2681,1765915672870,-459,8291,-389,0,0,0,0,0
2682,1765915672920,-446,8288,-394,0,0,0,0,0
2683,1765915672986,-444,8287,-376,0,0,0,0,0
2684,1765915673053,-463,8291,-391,0,0,0,0,0
2685,1765915673102,-448,8294,-396,0,0,0,0,0
2686,1765915673170,-442,8284,-404,0,0,0,0,0
2687,1765915673236,-451,8287,-397,0,0,0,0,0
2688,1765915673303,-460,8303,-387,0,0,0,0,0
2689,1765915673353,-468,8273,-382,0,0,0,0,0
2690,1765915673420,-444,8277,-388,0,0,0,0,0
2691,1765915673470,-449,8316,-392,0,0,0,0,0
2692,1765915673537,-444,8282,-412,0,0,0,0,0
2693,1765915673587,-461,8274,-375,0,0,0,0,0
2694,1765915673653,-454,8279,-372,0,0,0,0,0
2695,1765915673704,-447,8321,-406,0,0,0,0,0
2696,1765915673769,-434,8293,-403,0,0,0,0,0
2697,1765915673835,-454,8257,-411,0,0,0,0,0
2698,1765915673903,-490,8275,-403,0,0,0,0,0
2699,1765915673954,-442,8317,-354,0,0,0,0,0
2700,1765915674020,-428,8296,-382,0,0,0,0,0
2701,1765915674070,-453,8283,-406,0,0,0,0,0
2702,1765915674136,-471,8286,-396,0,0,0,0,0
2703,1765915674187,-468,8295,-389,0,0,0,0,0
2704,1765915674253,-437,8284,-389,0,0,0,0,0
2705,1765915674304,-432,8272,-382,0,0,0,0,0
2706,1765915674370,-476,8278,-406,0,0,0,0,0
2707,1765915674437,-454,8295,-370,0,0,0,0,0
2708,1765915674503,-440,8306,-390,0,0,0,0,0
2709,1765915674553,-440,8280,-418,0,0,0,0,0
2710,1765915674620,-487,8245,-425,0,0,0,0,0
2711,1765915674670,-461,8315,-386,0,0,0,0,0
2712,1765915674737,-423,8315,-390,0,0,0,0,0
2713,1765915674787,-430,8278,-366,0,0,0,0,0
2714,1765915674853,-476,8280,-396,0,0,0,0,0
2715,1765915674904,-484,8322,-369,0,0,0,0,0
2716,1765915674970,-448,8341,-421,0,0,0,0,0
2717,1765915675037,-430,8221,-399,0,0,0,0,0
2718,1765915675103,-484,8299,-404,0,0,0,0,0
2719,1765915675154,-457,8332,-380,0,0,0,0,0
2720,1765915675220,-451,8272,-376,0,0,0,0,0
2721,1765915675270,-422,8246,-380,0,0,0,0,0
2722,1765915675336,-470,8344,-396,0,0,0,0,0
2723,1765915675387,-470,8298,-408,0,0,0,0,0
2724,1765915675452,-441,8252,-392,0,0,0,0,0
2725,1765915675503,-451,8308,-400,0,0,0,0,0
2726,1765915675570,-454,8296,-402,0,0,0,0,0
2727,1765915675637,-450,8262,-353,0,0,0,0,0
2728,1765915675703,-460,8288,-403,0,0,0,0,0
2729,1765915675753,-456,8302,-403,0,0,0,0,0
2730,1765915675820,-456,8289,-395,0,0,0,0,0
2731,1765915675870,-455,8276,-408,0,0,0,0,0
2732,1765915675936,-446,8278,-395,0,0,0,0,0
2733,1765915675987,-451,8307,-384,0,0,0,0,0
2734,1765915676054,-460,8298,-385,0,0,0,0,0
2735,1765915676120,-458,8272,-386,0,0,0,0,0
2736,1765915676170,-452,8306,-386,0,0,0,0,0
2737,1765915676237,-453,8301,-376,0,0,0,0,0
2738,1765915676304,-457,8278,-378,0,0,0,0,0
2739,1765915676353,-451,8281,-395,0,0,0,0,0
2740,1765915676420,-466,8292,-391,0,0,0,0,0
2741,1765915676469,-462,8302,-391,0,0,0,0,0
2742,1765915676536,-449,8276,-393,0,0,0,0,0
2743,1765915676586,-453,8272,-382,0,0,0,0,0
2744,1765915676653,-456,8320,-400,0,0,0,0,0
