index,date,GYRO_X,GYRO_Y,GYRO_Z,1,2,3,4,5
0,1765915244808,-8,10,1,0,0,0,0,0
1,1765915245025,-5,11,2,0,0,0,0,0
2,1765915245092,-6,10,1,0,0,0,0,0
3,1765915245309,-6,10,1,0,0,0,0,0
4,1765915245376,-6,11,1,0,0,0,0,0
5,1765915245625,-5,10,1,0,0,0,0,0
6,1765915245708,-5,10,2,0,0,0,0,0
7,1765915245909,-6,9,2,0,0,0,0,0
8,1765915246009,-6,9,2,0,0,0,0,0
9,1765915246208,-7,15,2,0,0,0,0,0
10,1765915246342,-3,15,1,0,0,0,0,0
11,1765915246475,-7,8,0,0,0,0,0,0
12,1765915246625,-2,10,1,0,0,0,0,0
13,1765915246759,-8,11,4,0,0,0,0,0
14,1765915246792,-6,9,0,0,0,0,0,0
15,1765915246975,-6,10,1,0,0,0,0,0
16,1765915247059,-6,12,1,0,0,0,0,0
17,1765915247258,-4,10,1,0,0,0,0,0
18,1765915247342,-6,9,0,0,0,0,0,0
19,1765915247608,-5,11,1,0,0,0,0,0
20,1765915247692,-7,11,2,0,0,0,0,0
21,1765915247908,-6,11,1,0,0,0,0,0
22,1765915248025,-7,11,1,0,0,0,0,0
23,1765915248225,-5,10,0,0,0,0,0,0
24,1765915248292,-6,11,1,0,0,0,0,0
25,1765915248525,-6,8,0,0,0,0,0,0
26,1765915248609,-6,13,1,0,0,0,0,0
27,1765915248841,-8,10,1,0,0,0,0,0
28,1765915248892,-5,9,3,0,0,0,0,0
29,1765915249125,-6,9,0,0,0,0,0,0
30,1765915249242,-5,10,1,0,0,0,0,0
31,1765915249425,-4,10,0,0,0,0,0,0
32,1765915249525,-9,12,1,0,0,0,0,0
33,1765915249742,-5,11,0,0,0,0,0,0
34,1765915249875,-8,12,2,0,0,0,0,0
35,1765915250041,-9,11,1,0,0,0,0,0
36,1765915250342,-6,11,2,0,0,0,0,0
37,1765915250475,-4,7,2,0,0,0,0,0
38,1765915250641,-8,13,0,0,0,0,0,0
39,1765915250792,-6,13,2,0,0,0,0,0
40,1765915250958,-6,9,1,0,0,0,0,0
41,1765915251091,-6,10,0,0,0,0,0,0
42,1765915251242,-6,9,0,0,0,0,0,0
43,1765915251425,-5,12,1,0,0,0,0,0
44,1765915251542,-7,10,3,0,0,0,0,0
45,1765915251559,-6,10,1,0,0,0,0,0
46,1765915251691,-5,10,1,0,0,0,0,0
47,1765915251842,-6,10,1,0,0,0,0,0
48,1765915252008,-6,11,0,0,0,0,0,0
49,1765915252142,-7,11,2,0,0,0,0,0
50,1765915252292,-6,10,1,0,0,0,0,0
51,1765915252458,-5,11,1,0,0,0,0,0
52,1765915252608,-7,9,1,0,0,0,0,0
53,1765915252758,-6,11,1,0,0,0,0,0
54,1765915252942,-6,11,0,0,0,0,0,0
55,1765915253075,-6,10,0,0,0,0,0,0
56,1765915253225,-4,10,0,0,0,0,0,0
57,1765915253375,-6,10,1,0,0,0,0,0
58,1765915253559,-5,10,0,0,0,0,0,0
59,1765915253676,-5,11,1,0,0,0,0,0
60,1765915253808,-7,10,2,0,0,0,0,0
61,1765915253975,-9,12,0,0,0,0,0,0
62,1765915254159,-6,11,0,0,0,0,0,0
63,1765915254258,-7,11,1,0,0,0,0,0
64,1765915254441,-6,9,1,0,0,0,0,0
65,1765915254575,-5,11,2,0,0,0,0,0
66,1765915254808,-6,11,2,0,0,0,0,0
67,1765915254875,-7,10,0,0,0,0,0,0
68,1765915255075,-4,11,1,0,0,0,0,0
69,1765915255192,-7,10,0,0,0,0,0,0
70,1765915255391,-7,11,0,0,0,0,0,0
71,1765915255492,-6,11,2,0,0,0,0,0
72,1765915255808,-6,11,1,0,0,0,0,0
73,1765915256008,-5,11,1,0,0,0,0,0
74,1765915256092,-7,10,2,0,0,0,0,0
75,1765915256325,-6,11,2,0,0,0,0,0
76,1765915256409,-5,11,1,0,0,0,0,0
77,1765915256608,-7,10,1,0,0,0,0,0
78,1765915256693,-6,9,1,0,0,0,0,0
79,1765915256942,-6,11,0,0,0,0,0,0
80,1765915257042,-5,10,0,0,0,0,0,0
81,1765915257258,-8,11,1,0,0,0,0,0
82,1765915257341,-7,12,2,0,0,0,0,0
83,1765915257559,-5,9,1,0,0,0,0,0
84,1765915257658,-6,10,1,0,0,0,0,0
85,1765915257874,-6,10,0,0,0,0,0,0
86,1765915257958,-6,10,1,0,0,0,0,0
87,1765915258159,-8,11,1,0,0,0,0,0
88,1765915258291,-4,12,0,0,0,0,0,0
89,1765915258458,-6,12,-1,0,0,0,0,0
90,1765915258475,-6,12,1,0,0,0,0,0
91,1765915258542,-6,9,1,0,0,0,0,0
92,1765915258775,-6,10,1,0,0,0,0,0
93,1765915258892,-7,11,1,0,0,0,0,0
94,1765915259075,-4,9,1,0,0,0,0,0
95,1765915259375,-6,10,0,0,0,0,0,0
96,1765915259492,-6,10,2,0,0,0,0,0
97,1765915259675,-5,10,2,0,0,0,0,0
98,1765915259825,-5,10,1,0,0,0,0,0
99,1765915259991,-7,10,2,0,0,0,0,0
100,1765915260141,-6,11,0,0,0,0,0,0
101,1765915260291,-6,10,2,0,0,0,0,0
102,1765915260475,-7,12,2,0,0,0,0,0
103,1765915260608,-6,11,2,0,0,0,0,0
104,1765915260775,-5,10,2,0,0,0,0,0
105,1765915260892,-7,11,1,0,0,0,0,0
106,1765915261108,-7,10,2,0,0,0,0,0
107,1765915261191,-7,10,2,0,0,0,0,0
108,1765915261441,-5,9,1,0,0,0,0,0
109,1765915261508,-6,11,2,0,0,0,0,0
110,1765915261742,-5,11,2,0,0,0,0,0
111,1765915261808,-8,10,0,0,0,0,0,0
112,1765915262075,-6,10,1,0,0,0,0,0
113,1765915262125,-7,10,1,0,0,0,0,0
114,1765915262358,-6,11,2,0,0,0,0,0
115,1765915262442,-7,11,2,0,0,0,0,0
116,1765915262674,-5,9,1,0,0,0,0,0
117,1765915262741,-6,9,1,0,0,0,0,0
118,1765915262975,-8,10,1,0,0,0,0,0
119,1765915263091,-7,11,1,0,0,0,0,0
120,1765915263275,-5,11,0,0,0,0,0,0
121,1765915263408,-6,8,1,0,0,0,0,0
122,1765915263596,-5,10,2,0,0,0,0,0
123,1765915263725,-7,10,1,0,0,0,0,0
124,1765915263876,-6,10,1,0,0,0,0,0
125,1765915264193,-6,10,2,0,0,0,0,0
126,1765915264359,-6,11,1,0,0,0,0,0
127,1765915264492,-7,10,1,0,0,0,0,0
128,1765915264692,-6,11,1,0,0,0,0,0
129,1765915264810,-6,11,2,0,0,0,0,0
130,1765915264991,-7,10,2,0,0,0,0,0
131,1765915265111,-6,9,1,0,0,0,0,0
132,1765915265326,-7,9,2,0,0,0,0,0
133,1765915265392,-5,11,1,0,0,0,0,0
134,1765915265625,-6,9,0,0,0,0,0,0
135,1765915265710,-5,9,1,0,0,0,0,0
136,1765915265942,-6,10,0,0,0,0,0,0
137,1765915265993,-6,10,1,0,0,0,0,0
138,1765915266243,-6,11,1,0,0,0,0,0
139,1765915266326,-5,10,2,0,0,0,0,0
140,1765915266559,-6,11,1,0,0,0,0,0
141,1765915266663,-6,11,2,0,0,0,0,0
142,1765915266875,-8,11,1,0,0,0,0,0
143,1765915266943,-7,11,0,0,0,0,0,0
144,1765915267176,-5,9,255,0,0,0,0,0
145,1765915267243,-7,9,2,0,0,0,0,0
146,1765915267458,-4,11,2,0,0,0,0,0
147,1765915267577,-6,8,1,0,0,0,0,0
148,1765915267791,-7,10,2,0,0,0,0,0
149,1765915267891,-5,9,1,0,0,0,0,0
150,1765915268092,-5,9,1,0,0,0,0,0
151,1765915268408,-7,10,2,0,0,0,0,0
152,1765915268541,-7,11,2,0,0,0,0,0
153,1765915268691,-4,8,0,0,0,0,0,0
154,1765915268859,-6,10,2,0,0,0,0,0
155,1765915269010,-7,11,2,0,0,0,0,0
156,1765915269141,-7,10,1,0,0,0,0,0
157,1765915269307,-5,8,1,0,0,0,0,0
158,1765915269491,-6,9,1,0,0,0,0,0
159,1765915269624,-6,10,0,0,0,0,0,0
160,1765915269791,-5,11,1,0,0,0,0,0
161,1765915269924,-7,9,2,0,0,0,0,0
162,1765915270124,-8,10,1,0,0,0,0,0
163,1765915270207,-6,9,2,0,0,0,0,0
164,1765915270408,-5,10,0,0,0,0,0,0
165,1765915270525,-6,11,1,0,0,0,0,0
166,1765915270758,-5,10,1,0,0,0,0,0
167,1765915270809,-6,9,1,0,0,0,0,0
168,1765915271059,-7,9,1,0,0,0,0,0
169,1765915271141,-4,11,1,0,0,0,0,0
170,1765915271375,-5,9,1,0,0,0,0,0
171,1765915271458,-5,11,1,0,0,0,0,0
172,1765915271675,-5,10,2,0,0,0,0,0
173,1765915271758,-6,10,0,0,0,0,0,0
174,1765915271991,-7,10,2,0,0,0,0,0
175,1765915272091,-6,10,0,0,0,0,0,0
176,1765915272275,-5,10,2,0,0,0,0,0
177,1765915272591,-7,10,0,0,0,0,0,0
178,1765915272691,-6,10,0,0,0,0,0,0
179,1765915272892,-6,10,1,0,0,0,0,0
180,1765915273041,-5,9,2,0,0,0,0,0
181,1765915273191,-4,10,1,0,0,0,0,0
182,1765915273291,-7,10,2,0,0,0,0,0
183,1765915273491,-7,10,1,0,0,0,0,0
184,1765915273608,-7,10,0,0,0,0,0,0
185,1765915273758,-8,10,1,0,0,0,0,0
186,1765915273858,-4,9,1,0,0,0,0,0
187,1765915274074,-6,8,2,0,0,0,0,0
188,1765915274158,-7,10,1,0,0,0,0,0
189,1765915274391,-4,10,1,0,0,0,0,0
190,1765915274458,-6,10,2,0,0,0,0,0
191,1765915274576,-6,11,1,0,0,0,0,0
192,1765915274741,-6,8,1,0,0,0,0,0
193,1765915274875,-7,9,1,0,0,0,0,0
194,1765915275041,-4,10,1,0,0,0,0,0
195,1765915275291,-6,11,2,0,0,0,0,0
196,1765915275375,-5,9,2,0,0,0,0,0
197,1765915275558,-6,9,1,0,0,0,0,0
198,1765915275675,-6,9,1,0,0,0,0,0
199,1765915275924,-8,9,2,0,0,0,0,0
200,1765915276026,-4,10,2,0,0,0,0,0
201,1765915276208,-8,13,1,0,0,0,0,0
202,1765915276325,-5,9,-1,0,0,0,0,0
203,1765915276558,-6,10,0,0,0,0,0,0
204,1765915276675,-9,12,-1,0,0,0,0,0
205,1765915276841,-6,11,-2,0,0,0,0,0
206,1765915276958,-4,8,-1,0,0,0,0,0
207,1765915277125,-9,10,2,0,0,0,0,0
208,1765915277209,-4,9,2,0,0,0,0,0
209,1765915277308,-9,11,1,0,0,0,0,0
210,1765915277508,-5,10,2,0,0,0,0,0
211,1765915277624,-8,9,1,0,0,0,0,0
212,1765915277791,-8,13,3,0,0,0,0,0
213,1765915277891,-6,10,2,0,0,0,0,0
214,1765915277958,-7,9,2,0,0,0,0,0
215,1765915278192,-5,13,0,0,0,0,0,0
216,1765915278275,-5,9,1,0,0,0,0,0
217,1765915278558,-7,10,0,0,0,0,0,0
218,1765915278691,-6,9,2,0,0,0,0,0
219,1765915278841,-6,12,1,0,0,0,0,0
220,1765915278991,-6,9,1,0,0,0,0,0
221,1765915279142,-5,10,0,0,0,0,0,0
222,1765915279241,-7,1,5,0,0,0,0,0
223,1765915279441,-2,8,7,0,0,0,0,0
224,1765915279541,7,7,-2,0,0,0,0,0
225,1765915279725,-3,4,-1,0,0,0,0,0
226,1765915279858,-4,12,10,0,0,0,0,0
227,1765915279975,-10,0,10,0,0,0,0,0
228,1765915280108,-16,-6,-1,0,0,0,0,0
229,1765915280308,-10,-14,4,0,0,0,0,0
230,1765915280391,-31,-2,-6,0,0,0,0,0
231,1765915280691,-25,-83,9,0,0,0,0,0
232,1765915280808,46,-61,9,0,0,0,0,0
233,1765915280991,-46,-71,76,0,0,0,0,0
234,1765915281125,41,-84,35,0,0,0,0,0
235,1765915281291,-37,231,19,0,0,0,0,0
236,1765915281358,-64,244,-36,0,0,0,0,0
237,1765915281591,-14,275,-11,0,0,0,0,0
238,1765915281674,9,273,-66,0,0,0,0,0
239,1765915281875,-84,296,-20,0,0,0,0,0
240,1765915281908,11,272,56,0,0,0,0,0
241,1765915281991,28,310,-79,0,0,0,0,0
242,1765915282208,-3,284,20,0,0,0,0,0
243,1765915282358,-63,289,-34,0,0,0,0,0
244,1765915282508,35,299,37,0,0,0,0,0
245,1765915282758,-38,171,-57,0,0,0,0,0
246,1765915282841,-17,184,30,0,0,0,0,0
247,1765915283074,21,111,48,0,0,0,0,0
248,1765915283191,-33,110,-34,0,0,0,0,0
249,1765915283408,-26,-16,2,0,0,0,0,0
250,1765915283625,-2,50,22,0,0,0,0,0
251,1765915283691,9,-15,5,0,0,0,0,0
252,1765915283941,-2,-6,15,0,0,0,0,0
253,1765915284208,0,-406,-33,0,0,0,0,0
254,1765915284274,18,-430,62,0,0,0,0,0
255,1765915284524,54,-397,35,0,0,0,0,0
256,1765915284658,-5,-321,40,0,0,0,0,0
257,1765915284756,-8,-289,34,0,0,0,0,0
258,1765915284842,-12,-296,26,0,0,0,0,0
259,1765915285089,32,-303,4,0,0,0,0,0
260,1765915285189,-236,-297,7,0,0,0,0,0
261,1765915285658,-32,-312,-60,0,0,0,0,0
262,1765915285760,44,-342,-20,0,0,0,0,0
263,1765915285957,-15,-308,-16,0,0,0,0,0
264,1765915286123,-29,-356,-30,0,0,0,0,0
265,1765915286223,-93,-484,32,0,0,0,0,0
266,1765915286291,93,-427,12,0,0,0,0,0
267,1765915286525,6,-450,27,0,0,0,0,0
268,1765915286658,-2,-460,0,0,0,0,0,0
269,1765915286840,2,-449,2,0,0,0,0,0
270,1765915287107,70,-486,86,0,0,0,0,0
271,1765915287225,0,-543,-45,0,0,0,0,0
272,1765915287408,4,-535,95,0,0,0,0,0
273,1765915287558,68,-574,-111,0,0,0,0,0
274,1765915287674,39,-512,71,0,0,0,0,0
275,1765915287741,44,-463,-7,0,0,0,0,0
276,1765915287974,-45,-561,121,0,0,0,0,0
277,1765915288108,-3,-536,100,0,0,0,0,0
278,1765915288274,49,-486,-21,0,0,0,0,0
279,1765915288540,29,-387,48,0,0,0,0,0
280,1765915288624,27,-243,75,0,0,0,0,0
281,1765915288841,-5,-73,97,0,0,0,0,0
282,1765915289008,13,21,93,0,0,0,0,0
283,1765915289091,-52,112,20,0,0,0,0,0
284,1765915289175,-35,111,23,0,0,0,0,0
285,1765915289407,26,71,-23,0,0,0,0,0
286,1765915289524,-40,93,62,0,0,0,0,0
287,1765915289707,-69,78,-20,0,0,0,0,0
288,1765915289975,82,68,20,0,0,0,0,0
289,1765915290058,-98,52,-34,0,0,0,0,0
290,1765915290291,-21,32,43,0,0,0,0,0
291,1765915290442,-46,49,-48,0,0,0,0,0
292,1765915290541,-37,-6,25,0,0,0,0,0
293,1765915290608,48,-53,-11,0,0,0,0,0
294,1765915290858,-82,-11,78,0,0,0,0,0
295,1765915290975,78,-64,-20,0,0,0,0,0
296,1765915291190,-57,275,-5,0,0,0,0,0
297,1765915291357,1,280,35,0,0,0,0,0
298,1765915291474,-113,425,-29,0,0,0,0,0
299,1765915291725,32,336,10,0,0,0,0,0
300,1765915291791,-58,368,-54,0,0,0,0,0
301,1765915292040,-31,656,11,0,0,0,0,0
302,1765915292125,-56,639,-28,0,0,0,0,0
303,1765915292324,-145,661,-93,0,0,0,0,0
304,1765915292476,-68,612,-164,0,0,0,0,0
305,1765915292658,37,371,-18,0,0,0,0,0
306,1765915292827,-59,408,-20,0,0,0,0,0
307,1765915292958,-43,433,39,0,0,0,0,0
308,1765915293158,-8,423,-85,0,0,0,0,0
309,1765915293241,-60,461,-75,0,0,0,0,0
310,1765915293275,-24,573,-24,0,0,0,0,0
311,1765915293508,-76,555,-51,0,0,0,0,0
312,1765915293607,-49,558,-11,0,0,0,0,0
313,1765915293808,-17,554,-14,0,0,0,0,0
314,1765915293990,16383,477,-227,0,0,0,0,0
315,1765915294140,-35,480,-25,0,0,0,0,0
316,1765915294358,-47,419,-30,0,0,0,0,0
317,1765915294440,-66,465,-47,0,0,0,0,0
318,1765915294706,-71,317,13,0,0,0,0,0
319,1765915294857,42,312,-1,0,0,0,0,0
320,1765915295017,8,294,36,0,0,0,0,0
321,1765915295224,-18,293,-71,0,0,0,0,0
322,1765915295309,5,334,14,0,0,0,0,0
323,1765915295558,-50,-203,8,0,0,0,0,0
324,1765915295692,-88,-283,-75,0,0,0,0,0
325,1765915295858,40,-487,62,0,0,0,0,0
326,1765915296040,-28,-587,108,0,0,0,0,0
327,1765915296190,21,-216,104,0,0,0,0,0
328,1765915296391,-29,-224,-104,0,0,0,0,0
329,1765915296475,41,-303,65,0,0,0,0,0
330,1765915296708,-4,-469,21,0,0,0,0,0
331,1765915296841,58,-754,60,0,0,0,0,0
332,1765915297042,-12,-2989,252,0,0,0,0,0
333,1765915297176,71,-497,146,0,0,0,0,0
334,1765915297341,53,-316,45,0,0,0,0,0
335,1765915297525,149,-970,-16,0,0,0,0,0
336,1765915297674,32,-1063,182,0,0,0,0,0
337,1765915297875,13,-1065,-117,0,0,0,0,0
338,1765915297973,131,-1079,172,0,0,0,0,0
339,1765915298224,-4,-305,-26,0,0,0,0,0
340,1765915298308,3,-310,-24,0,0,0,0,0
341,1765915298524,31,-284,28,0,0,0,0,0
342,1765915298658,-2,-273,-5,0,0,0,0,0
343,1765915298826,6,-317,-25,0,0,0,0,0
344,1765915299023,65,-430,48,0,0,0,0,0
345,1765915299141,8,-437,33,0,0,0,0,0
346,1765915299374,-2,-421,26,0,0,0,0,0
347,1765915299464,46,-378,0,0,0,0,0,0
348,1765915299725,-9,-118,23,0,0,0,0,0
349,1765915299841,33,-151,40,0,0,0,0,0
350,1765915300008,-19,-93,-35,0,0,0,0,0
351,1765915300225,16,246,44,0,0,0,0,0
352,1765915300292,25,178,25,0,0,0,0,0
353,1765915300408,38,227,-12,0,0,0,0,0
354,1765915300574,-10,208,0,0,0,0,0,0
355,1765915300758,-49,217,30,0,0,0,0,0
356,1765915300875,-43,139,38,0,0,0,0,0
357,1765915301141,-29,465,-12,0,0,0,0,0
358,1765915301308,9,476,-43,0,0,0,0,0
359,1765915301458,-50,448,15,0,0,0,0,0
360,1765915301658,-36,445,-52,0,0,0,0,0
361,1765915301725,-5,-316,-70,0,0,0,0,0
362,1765915301808,22,-438,52,0,0,0,0,0
363,1765915302025,25,-508,11,0,0,0,0,0
364,1765915302191,35,-566,9,0,0,0,0,0
365,1765915302324,-2,-554,53,0,0,0,0,0
366,1765915302590,25,344,20,0,0,0,0,0
367,1765915302707,-75,389,-14,0,0,0,0,0
368,1765915302892,13,346,-25,0,0,0,0,0
369,1765915303074,-10,147,-132,0,0,0,0,0
370,1765915303141,-22,-26,-6,0,0,0,0,0
371,1765915303225,8,-40,-36,0,0,0,0,0
372,1765915303459,13,-41,19,0,0,0,0,0
373,1765915303557,-25,-29,20,0,0,0,0,0
374,1765915303758,-27,-23,-10,0,0,0,0,0
375,1765915304006,-10,-126,10,0,0,0,0,0
376,1765915304090,3,-141,-70,0,0,0,0,0
377,1765915304323,3,-190,-12,0,0,0,0,0
378,1765915304411,78,-223,41,0,0,0,0,0
379,1765915304641,-33,-146,1,0,0,0,0,0
380,1765915304791,-45,-129,-34,0,0,0,0,0
381,1765915304959,19,-116,40,0,0,0,0,0
382,1765915305177,87,-123,1,0,0,0,0,0
383,1765915305275,18,-262,8,0,0,0,0,0
384,1765915305508,-59,-129,43,0,0,0,0,0
385,1765915305625,31,-90,57,0,0,0,0,0
386,1765915305808,13,-192,-98,0,0,0,0,0
387,1765915306007,-61,-705,-26,0,0,0,0,0
388,1765915306141,67,-533,73,0,0,0,0,0
389,1765915306342,47,-401,-8,0,0,0,0,0
390,1765915306424,64,-264,112,0,0,0,0,0
391,1765915306708,-37,-302,31,0,0,0,0,0
392,1765915306808,71,-372,-11,0,0,0,0,0
393,1765915306991,-14,-435,30,0,0,0,0,0
394,1765915307158,16,-518,-58,0,0,0,0,0
395,1765915307291,43,-569,96,0,0,0,0,0
396,1765915307557,13,-382,50,0,0,0,0,0
397,1765915307624,117,-369,10,0,0,0,0,0
398,1765915307857,37,-372,39,0,0,0,0,0
399,1765915308006,6,-374,25,0,0,0,0,0
400,1765915308173,58,-374,61,0,0,0,0,0
401,1765915308341,20,-391,-54,0,0,0,0,0
402,1765915308474,2,-388,75,0,0,0,0,0
403,1765915308658,-40,-385,21,0,0,0,0,0
404,1765915308791,-28,-274,4,0,0,0,0,0
405,1765915308974,32,-257,-17,0,0,0,0,0
406,1765915309091,-53,-230,62,0,0,0,0,0
407,1765915309291,-33,-156,-19,0,0,0,0,0
408,1765915309374,74,-104,41,0,0,0,0,0
409,1765915309609,-42,-58,-44,0,0,0,0,0
410,1765915309709,11,-45,9,0,0,0,0,0
411,1765915309925,-10,-30,52,0,0,0,0,0
412,1765915309991,19,-49,26,0,0,0,0,0
413,1765915310242,4,-241,9,0,0,0,0,0
414,1765915310308,-13,17,-38,0,0,0,0,0
415,1765915310541,-48,5,-20,0,0,0,0,0
416,1765915310626,-18,-2,-2,0,0,0,0,0
417,1765915310841,35,1,46,0,0,0,0,0
418,1765915310922,-42,4,-14,0,0,0,0,0
419,1765915311156,44,36,19,0,0,0,0,0
420,1765915311240,-26,5,0,0,0,0,0,0
421,1765915311440,27,1,19,0,0,0,0,0
422,1765915311773,42,64,-45,0,0,0,0,0
423,1765915311823,-34,22,70,0,0,0,0,0
424,1765915312056,9,42,20,0,0,0,0,0
425,1765915312156,5,69,41,0,0,0,0,0
426,1765915312358,-22,49,-8,0,0,0,0,0
427,1765915312425,46,53,-18,0,0,0,0,0
428,1765915312658,-110,73,35,0,0,0,0,0
429,1765915312757,22,45,-40,0,0,0,0,0
430,1765915312972,2,22,29,0,0,0,0,0
431,1765915313041,-127,15,-8,0,0,0,0,0
432,1765915313274,76,-13,-40,0,0,0,0,0
433,1765915313358,15,-25,-13,0,0,0,0,0
434,1765915313575,-54,-25,-3,0,0,0,0,0
435,1765915313641,-11,-24,27,0,0,0,0,0
436,1765915313874,-54,-55,-7,0,0,0,0,0
437,1765915313941,-30,5,23,0,0,0,0,0
438,1765915314174,-9,-42,-15,0,0,0,0,0
439,1765915314275,46,-33,32,0,0,0,0,0
440,1765915314458,14,3,10,0,0,0,0,0
441,1765915314541,0,-18,18,0,0,0,0,0
442,1765915314758,-14,-10,-15,0,0,0,0,0
443,1765915314842,-5,-4,30,0,0,0,0,0
444,1765915315125,24,29,4,0,0,0,0,0
445,1765915315275,28,44,28,0,0,0,0,0
446,1765915315425,1,29,-29,0,0,0,0,0
447,1765915315591,-7,32,-1,0,0,0,0,0
448,1765915315725,55,-47,-58,0,0,0,0,0
449,1765915315791,-75,-56,24,0,0,0,0,0
450,1765915316025,28,-142,-73,0,0,0,0,0
451,1765915316108,38,-277,-29,0,0,0,0,0
452,1765915316306,15,-444,-23,0,0,0,0,0
453,1765915316408,73,-451,68,0,0,0,0,0
454,1765915316624,31,-479,56,0,0,0,0,0
455,1765915316739,61,-419,-28,0,0,0,0,0
456,1765915316925,51,-404,62,0,0,0,0,0
457,1765915317158,35,-547,6,0,0,0,0,0
458,1765915317259,-57,-595,-1,0,0,0,0,0
459,1765915317508,-119,-420,96,0,0,0,0,0
460,1765915317607,24,-268,-156,0,0,0,0,0
461,1765915317824,13,-359,20,0,0,0,0,0
462,1765915318075,-8,-375,-40,0,0,0,0,0
463,1765915318141,44,-384,29,0,0,0,0,0
464,1765915318374,-27,-378,-26,0,0,0,0,0
465,1765915318659,20,-468,25,0,0,0,0,0
466,1765915318724,10,-435,-60,0,0,0,0,0
467,1765915318942,12,-564,42,0,0,0,0,0
468,1765915319124,20,-568,-14,0,0,0,0,0
469,1765915319191,22,-580,104,0,0,0,0,0
470,1765915319275,72,-492,-26,0,0,0,0,0
471,1765915319508,94,-505,67,0,0,0,0,0
472,1765915319673,11,-572,53,0,0,0,0,0
473,1765915319806,-1,-552,-41,0,0,0,0,0
474,1765915320073,21,-593,163,0,0,0,0,0
475,1765915320257,-29,-620,-55,0,0,0,0,0
476,1765915320391,51,-502,129,0,0,0,0,0
477,1765915320607,106,-481,35,0,0,0,0,0
478,1765915320656,0,-541,15,0,0,0,0,0
479,1765915320740,120,-552,-93,0,0,0,0,0
480,1765915320957,98,-580,145,0,0,0,0,0
481,1765915321125,31,-619,-88,0,0,0,0,0
482,1765915321258,71,-613,158,0,0,0,0,0
483,1765915321525,31,-596,95,0,0,0,0,0
484,1765915321673,25,-537,-69,0,0,0,0,0
485,1765915321825,62,-580,64,0,0,0,0,0
486,1765915322107,-217,-501,-30,0,0,0,0,0
487,1765915322208,6,-440,148,0,0,0,0,0
488,1765915322390,-8,112,-18,0,0,0,0,0
489,1765915322590,-47,665,106,0,0,0,0,0
490,1765915322689,-61,885,187,0,0,0,0,0
491,1765915322974,71,-112,56,0,0,0,0,0
492,1765915323125,1,144,117,0,0,0,0,0
493,1765915323258,12,171,-62,0,0,0,0,0
494,1765915323540,-168,62,26,0,0,0,0,0
495,1765915323623,11,84,3,0,0,0,0,0
496,1765915323840,-11,67,-91,0,0,0,0,0
497,1765915324007,-26,74,70,0,0,0,0,0
498,1765915324140,18,57,-16,0,0,0,0,0
499,1765915324407,5,56,22,0,0,0,0,0
500,1765915324542,-24,61,4,0,0,0,0,0
501,1765915324706,46,153,20,0,0,0,0,0
502,1765915324972,-67,516,-80,0,0,0,0,0
503,1765915325057,110,448,9,0,0,0,0,0
504,1765915325275,-50,584,-87,0,0,0,0,0
505,1765915325408,23,588,-23,0,0,0,0,0
506,1765915325575,37,661,-86,0,0,0,0,0
507,1765915325842,-70,853,-155,0,0,0,0,0
508,1765915325941,4,887,-77,0,0,0,0,0
509,1765915326141,-92,974,-40,0,0,0,0,0
510,1765915326290,-99,1044,-31,0,0,0,0,0
511,1765915326457,-46,659,-86,0,0,0,0,0
512,1765915326640,-46,651,-8,0,0,0,0,0
513,1765915326756,-16,595,-115,0,0,0,0,0
514,1765915326975,-3,507,-2,0,0,0,0,0
515,1765915327006,-22,-590,-145,0,0,0,0,0
516,1765915327091,-27,12,-7,0,0,0,0,0
517,1765915327308,-38,408,-59,0,0,0,0,0
518,1765915327423,-60,263,-40,0,0,0,0,0
519,1765915327624,-47,283,-33,0,0,0,0,0
520,1765915327840,-12,203,0,0,0,0,0,0
521,1765915327945,-57,240,5,0,0,0,0,0
522,1765915328174,44,191,20,0,0,0,0,0
523,1765915328258,-41,160,-27,0,0,0,0,0
524,1765915328524,-84,87,70,0,0,0,0,0
525,1765915328740,7,83,-89,0,0,0,0,0
526,1765915328808,-46,55,71,0,0,0,0,0
527,1765915329058,-48,85,-14,0,0,0,0,0
528,1765915329174,-22,-60,-134,0,0,0,0,0
529,1765915329375,14,-160,29,0,0,0,0,0
530,1765915329525,73,-192,35,0,0,0,0,0
531,1765915329674,-73,-297,-52,0,0,0,0,0
532,1765915329872,7,-604,7,0,0,0,0,0
533,1765915329991,41,-610,90,0,0,0,0,0
534,1765915330225,87,-594,11,0,0,0,0,0
535,1765915330558,76,-679,68,0,0,0,0,0
536,1765915330842,87,-677,26,0,0,0,0,0
537,1765915330990,82,-638,53,0,0,0,0,0
538,1765915331141,-87,-699,105,0,0,0,0,0
539,1765915331340,61,-652,70,0,0,0,0,0
540,1765915331473,28,-664,29,0,0,0,0,0
541,1765915331675,31,-638,8,0,0,0,0,0
542,1765915331758,65,-613,73,0,0,0,0,0
543,1765915332025,20,-460,12,0,0,0,0,0
544,1765915332107,1,-457,0,0,0,0,0,0
545,1765915332324,51,-444,6,0,0,0,0,0
546,1765915332441,57,-439,39,0,0,0,0,0
547,1765915332641,-13,-200,-18,0,0,0,0,0
548,1765915332792,39,-196,62,0,0,0,0,0
549,1765915332942,-62,-194,36,0,0,0,0,0
550,1765915333125,-37,-192,-8,0,0,0,0,0
551,1765915333240,51,-191,22,0,0,0,0,0
552,1765915333491,-10,-172,-8,0,0,0,0,0
553,1765915333558,-15,-169,16,0,0,0,0,0
554,1765915333791,38,-164,68,0,0,0,0,0
555,1765915333908,12,-161,5,0,0,0,0,0
556,1765915334108,34,69,39,0,0,0,0,0
557,1765915334240,-46,25,-8,0,0,0,0,0
558,1765915334408,18,205,53,0,0,0,0,0
559,1765915334575,-63,258,-78,0,0,0,0,0
560,1765915334706,-42,102,-4,0,0,0,0,0
561,1765915334941,26,196,19,0,0,0,0,0
562,1765915335024,-31,208,-12,0,0,0,0,0
563,1765915335274,-78,181,-25,0,0,0,0,0
564,1765915335358,-11,178,15,0,0,0,0,0
565,1765915335591,21,67,-16,0,0,0,0,0
566,1765915335708,-29,67,22,0,0,0,0,0
567,1765915335874,13,26,-67,0,0,0,0,0
568,1765915336058,9,46,19,0,0,0,0,0
569,1765915336207,-66,37,16,0,0,0,0,0
570,1765915336424,-33,42,12,0,0,0,0,0
571,1765915336508,59,45,-14,0,0,0,0,0
572,1765915336741,-34,39,3,0,0,0,0,0
573,1765915336841,-43,65,-12,0,0,0,0,0
574,1765915336858,7,51,-19,0,0,0,0,0
575,1765915337057,-52,12,5,0,0,0,0,0
576,1765915337191,-23,-66,-35,0,0,0,0,0
577,1765915337357,-9,-97,16,0,0,0,0,0
578,1765915337558,49,-109,3,0,0,0,0,0
579,1765915337691,-26,-108,-37,0,0,0,0,0
580,1765915337891,17,-116,-2,0,0,0,0,0
581,1765915337975,-5,-114,32,0,0,0,0,0
582,1765915338208,14,-95,-17,0,0,0,0,0
583,1765915338241,7,-91,28,0,0,0,0,0
584,1765915338325,24,-92,12,0,0,0,0,0
585,1765915338541,23,-90,8,0,0,0,0,0
586,1765915338675,-27,-90,15,0,0,0,0,0
587,1765915338825,-9,-85,31,0,0,0,0,0
588,1765915339025,15,-76,12,0,0,0,0,0
589,1765915339157,2,-54,16,0,0,0,0,0
590,1765915339375,9,-57,30,0,0,0,0,0
591,1765915339458,6,-53,8,0,0,0,0,0
592,1765915339725,-10,-18,15,0,0,0,0,0
593,1765915339808,-8,-25,1,0,0,0,0,0
594,1765915340008,-17,16,26,0,0,0,0,0
595,1765915340158,11,32,-8,0,0,0,0,0
596,1765915340308,-7,51,31,0,0,0,0,0
597,1765915340341,38,168,-8,0,0,0,0,0
598,1765915340508,-14,161,-10,0,0,0,0,0
599,1765915340640,-21,191,-26,0,0,0,0,0
600,1765915340858,7,214,20,0,0,0,0,0
601,1765915340923,-58,207,-36,0,0,0,0,0
602,1765915341191,-38,289,1,0,0,0,0,0
603,1765915341258,-1,303,4,0,0,0,0,0
604,1765915341490,26,282,-50,0,0,0,0,0
605,1765915341624,-33,324,-1,0,0,0,0,0
606,1765915341808,-73,232,-20,0,0,0,0,0
607,1765915341991,-71,215,-8,0,0,0,0,0
608,1765915342108,35,169,-56,0,0,0,0,0
609,1765915342324,-38,139,-27,0,0,0,0,0
610,1765915342408,-4,91,24,0,0,0,0,0
611,1765915342674,49,24,-4,0,0,0,0,0
612,1765915342757,-30,-16,17,0,0,0,0,0
613,1765915342958,48,-55,-30,0,0,0,0,0
614,1765915343075,-12,-65,21,0,0,0,0,0
615,1765915343274,42,-123,-9,0,0,0,0,0
616,1765915343341,6,-192,-14,0,0,0,0,0
617,1765915343558,-14,-151,16,0,0,0,0,0
618,1765915343658,30,-174,8,0,0,0,0,0
619,1765915343824,-8,-258,24,0,0,0,0,0
620,1765915343941,10,-263,5,0,0,0,0,0
621,1765915344141,-27,-277,6,0,0,0,0,0
622,1765915344225,6,-274,32,0,0,0,0,0
623,1765915344458,28,-285,-9,0,0,0,0,0
624,1765915344541,-3,-276,9,0,0,0,0,0
625,1765915344691,0,-257,14,0,0,0,0,0
626,1765915344823,3,-265,18,0,0,0,0,0
627,1765915345023,-1,-272,17,0,0,0,0,0
628,1765915345123,-10,-268,10,0,0,0,0,0
629,1765915345258,9,-244,11,0,0,0,0,0
630,1765915345425,11,-218,14,0,0,0,0,0
631,1765915345557,-10,-222,-2,0,0,0,0,0
632,1765915345725,14,-231,28,0,0,0,0,0
633,1765915346025,18,-197,5,0,0,0,0,0
634,1765915346091,-3,-187,9,0,0,0,0,0
635,1765915346324,5,-186,19,0,0,0,0,0
636,1765915346391,2,-192,30,0,0,0,0,0
637,1765915346674,-4,-34,13,0,0,0,0,0
638,1765915346792,2,-46,17,0,0,0,0,0
639,1765915346975,38,-25,13,0,0,0,0,0
640,1765915347108,0,-31,14,0,0,0,0,0
641,1765915347257,-17,-7,-8,0,0,0,0,0
642,1765915347341,-8,-9,4,0,0,0,0,0
643,1765915347541,-3,-2,-1,0,0,0,0,0
644,1765915347625,-7,-5,2,0,0,0,0,0
645,1765915347841,-9,1,4,0,0,0,0,0
646,1765915347925,1,13,4,0,0,0,0,0
647,1765915348057,-12,7,-2,0,0,0,0,0
648,1765915348224,0,9,4,0,0,0,0,0
649,1765915348358,-13,10,8,0,0,0,0,0
650,1765915348508,-13,7,-6,0,0,0,0,0
651,1765915348774,-9,9,2,0,0,0,0,0
652,1765915348874,0,8,2,0,0,0,0,0
653,1765915349091,-7,10,1,0,0,0,0,0
654,1765915349175,-8,8,0,0,0,0,0,0
655,1765915349458,-5,8,2,0,0,0,0,0
656,1765915349525,-4,8,3,0,0,0,0,0
657,1765915349741,-8,12,3,0,0,0,0,0
658,1765915349824,-2,11,2,0,0,0,0,0
659,1765915350108,-5,8,2,0,0,0,0,0
660,1765915350191,-6,9,2,0,0,0,0,0
661,1765915350391,-5,8,1,0,0,0,0,0
662,1765915350475,-5,9,0,0,0,0,0,0
663,1765915350759,-6,8,2,0,0,0,0,0
664,1765915350841,-5,10,1,0,0,0,0,0
665,1765915351041,-5,8,2,0,0,0,0,0
666,1765915351141,-5,12,0,0,0,0,0,0
667,1765915351407,-6,8,2,0,0,0,0,0
668,1765915351623,-7,9,1,0,0,0,0,0
669,1765915351708,-5,9,0,0,0,0,0,0
670,1765915351925,-5,11,1,0,0,0,0,0
671,1765915352024,-5,10,3,0,0,0,0,0
672,1765915352258,-7,8,2,0,0,0,0,0
673,1765915352341,-6,9,3,0,0,0,0,0
674,1765915352558,-6,10,3,0,0,0,0,0
675,1765915352674,-6,9,1,0,0,0,0,0
676,1765915352875,-7,8,0,0,0,0,0,0
677,1765915352974,-7,10,0,0,0,0,0,0
678,1765915353158,-7,10,3,0,0,0,0,0
679,1765915353323,-5,10,2,0,0,0,0,0
680,1765915353491,-3,9,1,0,0,0,0,0
681,1765915353641,-3,9,2,0,0,0,0,0
682,1765915353791,-6,11,1,0,0,0,0,0
683,1765915353975,-7,9,1,0,0,0,0,0
684,1765915354184,-6,9,-1,0,0,0,0,0
685,1765915354325,-5,9,0,0,0,0,0,0
686,1765915354390,-6,9,1,0,0,0,0,0
687,1765915354641,-6,8,1,0,0,0,0,0
688,1765915354757,-6,10,1,0,0,0,0,0
689,1765915354974,-6,9,1,0,0,0,0,0
690,1765915355122,-6,8,1,0,0,0,0,0
691,1765915355258,-7,9,1,0,0,0,0,0
692,1765915355457,-7,8,2,0,0,0,0,0
693,1765915355574,-3,10,1,0,0,0,0,0
694,1765915355794,-5,9,2,0,0,0,0,0
695,1765915355873,-4,9,1,0,0,0,0,0
696,1765915356107,-6,10,1,0,0,0,0,0
697,1765915356207,-6,9,1,0,0,0,0,0
698,1765915356441,-4,8,1,0,0,0,0,0
699,1765915356557,-5,9,2,0,0,0,0,0
700,1765915356739,-4,10,2,0,0,0,0,0
701,1765915356875,-6,10,1,0,0,0,0,0
702,1765915357057,-7,9,1,0,0,0,0,0
703,1765915357241,-4,9,2,0,0,0,0,0
704,1765915357341,-6,9,1,0,0,0,0,0
705,1765915357557,-5,9,2,0,0,0,0,0
706,1765915357589,-2,10,1,0,0,0,0,0
707,1765915357658,-8,9,1,0,0,0,0,0
708,1765915357905,-5,9,1,0,0,0,0,0
709,1765915357974,-5,9,2,0,0,0,0,0
710,1765915358205,-5,9,2,0,0,0,0,0
711,1765915358323,-3,9,2,0,0,0,0,0
712,1765915358523,-5,10,1,0,0,0,0,0
713,1765915358674,-5,10,1,0,0,0,0,0
714,1765915358807,-5,9,1,0,0,0,0,0
715,1765915359024,-5,9,2,0,0,0,0,0
716,1765915359141,-4,10,0,0,0,0,0,0
717,1765915359341,-6,10,1,0,0,0,0,0
718,1765915359441,-5,11,1,0,0,0,0,0
719,1765915359690,-4,9,2,0,0,0,0,0
720,1765915359758,-5,9,3,0,0,0,0,0
721,1765915359991,-6,9,1,0,0,0,0,0
722,1765915360108,-5,11,3,0,0,0,0,0
723,1765915360291,-5,8,2,0,0,0,0,0
724,1765915360458,-6,8,1,0,0,0,0,0
725,1765915360608,-6,9,1,0,0,0,0,0
726,1765915360808,-5,10,1,0,0,0,0,0
727,1765915360908,-5,10,0,0,0,0,0,0
728,1765915361174,-4,10,1,0,0,0,0,0
729,1765915361224,-5,9,2,0,0,0,0,0
730,1765915361474,-5,10,2,0,0,0,0,0
731,1765915361591,-4,10,0,0,0,0,0,0
732,1765915361791,-4,8,1,0,0,0,0,0
733,1765915361908,-6,10,1,0,0,0,0,0
734,1765915362075,-5,9,1,0,0,0,0,0
735,1765915362258,-7,9,2,0,0,0,0,0
736,1765915362374,-5,9,1,0,0,0,0,0
737,1765915362591,-4,10,1,0,0,0,0,0
738,1765915362707,-4,9,1,0,0,0,0,0
739,1765915362940,-6,10,2,0,0,0,0,0
740,1765915363007,-6,8,1,0,0,0,0,0
741,1765915363257,-4,9,1,0,0,0,0,0
742,1765915363374,-5,8,1,0,0,0,0,0
743,1765915363556,-8,9,2,0,0,0,0,0
744,1765915363724,-6,9,1,0,0,0,0,0
745,1765915363858,-5,10,1,0,0,0,0,0
746,1765915363874,-3,8,2,0,0,0,0,0
747,1765915364074,-7,8,2,0,0,0,0,0
748,1765915364174,-5,8,1,0,0,0,0,0
749,1765915364405,-6,10,1,0,0,0,0,0
750,1765915364491,-3,8,1,0,0,0,0,0
751,1765915364739,-5,7,1,0,0,0,0,0
752,1765915364858,-5,9,1,0,0,0,0,0
753,1765915365024,-6,9,1,0,0,0,0,0
754,1765915365191,-5,9,1,0,0,0,0,0
755,1765915365357,-6,10,2,0,0,0,0,0
756,1765915365541,-7,9,2,0,0,0,0,0
757,1765915365658,-5,8,1,0,0,0,0,0
758,1765915365874,-7,10,1,0,0,0,0,0
759,1765915365974,-5,9,1,0,0,0,0,0
760,1765915366208,-6,9,0,0,0,0,0,0
761,1765915366291,-5,9,1,0,0,0,0,0
762,1765915366508,-5,9,2,0,0,0,0,0
763,1765915366641,-5,10,1,0,0,0,0,0
764,1765915366824,-7,8,1,0,0,0,0,0
765,1765915366991,-5,9,1,0,0,0,0,0
766,1765915367124,-6,10,2,0,0,0,0,0
767,1765915367341,16379,2313,1,0,0,0,0,0
768,1765915367441,-9,9,1,0,0,0,0,0
769,1765915367691,-5,10,2,0,0,0,0,0
770,1765915367774,-6,10,2,0,0,0,0,0
771,1765915367975,-7,10,1,0,0,0,0,0
772,1765915368124,-4,9,1,0,0,0,0,0
773,1765915368290,-5,9,-8,0,0,0,0,0
774,1765915368457,6,7,-9,0,0,0,0,0
775,1765915368590,-7,9,-2,0,0,0,0,0
776,1765915368807,-3,8,0,0,0,0,0,0
777,1765915368924,-6,10,1,0,0,0,0,0
778,1765915369157,-7,9,3,0,0,0,0,0
779,1765915369224,-5,10,2,0,0,0,0,0
780,1765915369441,-8,8,2,0,0,0,0,0
781,1765915369474,-7,10,2,0,0,0,0,0
782,1765915369558,-8,9,3,0,0,0,0,0
783,1765915369774,-6,10,3,0,0,0,0,0
784,1765915369908,-6,8,4,0,0,0,0,0
785,1765915370074,-4,10,0,0,0,0,0,0
786,1765915370257,0,10,1,0,0,0,0,0
787,1765915370390,-10,7,2,0,0,0,0,0
788,1765915370624,-2,10,1,0,0,0,0,0
789,1765915370674,-7,8,1,0,0,0,0,0
790,1765915370941,-8,10,0,0,0,0,0,0
791,1765915371024,-5,9,1,0,0,0,0,0
792,1765915371240,-5,10,1,0,0,0,0,0
793,1765915371374,-6,9,2,0,0,0,0,0
794,1765915371541,-7,9,2,0,0,0,0,0
795,1765915371741,-7,8,2,0,0,0,0,0
796,1765915371857,-5,9,0,0,0,0,0,0
797,1765915372090,-9,10,3,0,0,0,0,0
798,1765915372157,-1,8,1,0,0,0,0,0
799,1765915372424,-6,10,1,0,0,0,0,0
800,1765915372507,-4,10,0,0,0,0,0,0
801,1765915372708,-6,9,1,0,0,0,0,0
802,1765915372841,-4,10,2,0,0,0,0,0
803,1765915373040,-2,10,1,0,0,0,0,0
804,1765915373207,-6,7,2,0,0,0,0,0
805,1765915373340,-4,10,1,0,0,0,0,0
806,1765915373541,-11,10,11,0,0,0,0,0
807,1765915373640,-14,8,7,0,0,0,0,0
808,1765915373890,-5,9,1,0,0,0,0,0
809,1765915373974,-6,9,1,0,0,0,0,0
810,1765915374191,-6,8,1,0,0,0,0,0
811,1765915374291,-5,8,1,0,0,0,0,0
812,1765915374524,-6,10,1,0,0,0,0,0
813,1765915374674,-4,8,1,0,0,0,0,0
814,1765915374807,-5,9,2,0,0,0,0,0
815,1765915375008,-6,9,2,0,0,0,0,0
816,1765915375124,-6,7,2,0,0,0,0,0
817,1765915375341,-4,10,1,0,0,0,0,0
818,1765915375407,-6,8,0,0,0,0,0,0
819,1765915376590,-7,9,1,0,0,0,0,0
820,1765915376808,-5,10,2,0,0,0,0,0
821,1765915376874,-6,8,2,0,0,0,0,0
822,1765915377091,-6,9,0,0,0,0,0,0
823,1765915377156,-5,9,2,0,0,0,0,0
824,1765915377424,-6,11,1,0,0,0,0,0
825,1765915377490,-7,10,1,0,0,0,0,0
826,1765915377691,-5,9,1,0,0,0,0,0
827,1765915377790,-7,9,2,0,0,0,0,0
828,1765915377990,-6,9,3,0,0,0,0,0
829,1765915378123,-6,9,2,0,0,0,0,0
830,1765915378274,-6,9,1,0,0,0,0,0
831,1765915378407,-5,8,1,0,0,0,0,0
832,1765915378574,-5,10,1,0,0,0,0,0
833,1765915378757,-6,8,2,0,0,0,0,0
834,1765915378841,-8,8,0,0,0,0,0,0
835,1765915379041,-5,10,1,0,0,0,0,0
836,1765915379141,-5,9,2,0,0,0,0,0
837,1765915379357,-7,7,3,0,0,0,0,0
838,1765915379442,-4,10,2,0,0,0,0,0
839,1765915379658,-5,9,0,0,0,0,0,0
840,1765915379739,-4,9,1,0,0,0,0,0
841,1765915380024,-4,10,255,0,0,0,0,0
842,1765915380090,-6,9,2,0,0,0,0,0
843,1765915380324,-6,9,2,0,0,0,0,0
844,1765915380641,-6,9,2,0,0,0,0,0
845,1765915380707,-7,10,1,0,0,0,0,0
846,1765915380941,-5,10,0,0,0,0,0,0
847,1765915381024,-5,9,1,0,0,0,0,0
848,1765915381224,-6,10,1,0,0,0,0,0
849,1765915381308,-6,9,2,0,0,0,0,0
850,1765915381541,-6,8,0,0,0,0,0,0
851,1765915381624,-4,9,1,0,0,0,0,0
852,1765915381824,-5,8,2,0,0,0,0,0
853,1765915381941,-5,9,1,0,0,0,0,0
854,1765915382141,-5,8,2,0,0,0,0,0
855,1765915382240,-6,9,2,0,0,0,0,0
856,1765915382441,-5,8,2,0,0,0,0,0
857,1765915382557,-6,8,2,0,0,0,0,0
858,1765915382757,-4,10,0,0,0,0,0,0
859,1765915382874,-5,10,1,0,0,0,0,0
860,1765915383057,-5,9,1,0,0,0,0,0
861,1765915383190,-5,9,1,0,0,0,0,0
862,1765915383375,-6,9,0,0,0,0,0,0
863,1765915383474,-4,9,2,0,0,0,0,0
864,1765915383658,-7,9,2,0,0,0,0,0
865,1765915383824,-4,11,1,0,0,0,0,0
866,1765915383956,-6,8,2,0,0,0,0,0
867,1765915384107,-5,10,0,0,0,0,0,0
868,1765915384274,-5,10,0,0,0,0,0,0
869,1765915384424,-5,12,2,0,0,0,0,0
870,1765915384574,-4,9,3,0,0,0,0,0
871,1765915384890,-5,8,2,0,0,0,0,0
872,1765915385040,-6,9,2,0,0,0,0,0
873,1765915385190,-3,7,2,0,0,0,0,0
874,1765915385374,-5,9,1,0,0,0,0,0
875,1765915385490,-5,9,2,0,0,0,0,0
876,1765915385624,-6,10,0,0,0,0,0,0
877,1765915385789,-5,10,1,0,0,0,0,0
878,1765915385974,-5,8,3,0,0,0,0,0
879,1765915386074,-6,8,2,0,0,0,0,0
880,1765915386257,-4,10,1,0,0,0,0,0
881,1765915386391,-8,10,1,0,0,0,0,0
882,1765915386624,-5,9,1,0,0,0,0,0
883,1765915386690,-4,10,2,0,0,0,0,0
884,1765915386891,-4,10,2,0,0,0,0,0
885,1765915387007,-6,8,1,0,0,0,0,0
886,1765915387208,-6,10,1,0,0,0,0,0
887,1765915387307,-3,9,1,0,0,0,0,0
888,1765915387490,-6,7,2,0,0,0,0,0
889,1765915387624,-6,9,2,0,0,0,0,0
890,1765915387824,-6,11,0,0,0,0,0,0
891,1765915387981,-6,10,1,0,0,0,0,0
892,1765915388141,-3,10,2,0,0,0,0,0
893,1765915388224,-6,8,2,0,0,0,0,0
894,1765915388424,-3,9,1,0,0,0,0,0
895,1765915388524,-6,9,1,0,0,0,0,0
896,1765915388757,-6,10,2,0,0,0,0,0
897,1765915388824,-4,9,0,0,0,0,0,0
898,1765915389073,-3,8,1,0,0,0,0,0
899,1765915389141,-5,10,1,0,0,0,0,0
900,1765915389374,-5,8,2,0,0,0,0,0
901,1765915389441,-5,8,2,0,0,0,0,0
902,1765915389689,-5,9,2,0,0,0,0,0
903,1765915389757,-6,9,1,0,0,0,0,0
904,1765915389973,-6,9,2,0,0,0,0,0
905,1765915390074,-5,9,1,0,0,0,0,0
906,1765915390290,-6,8,2,0,0,0,0,0
907,1765915390357,-5,10,0,0,0,0,0,0
908,1765915390589,-6,8,2,0,0,0,0,0
909,1765915390691,-5,8,1,0,0,0,0,0
910,1765915390874,-7,10,2,0,0,0,0,0
911,1765915390990,-5,10,2,0,0,0,0,0
912,1765915391190,-6,8,1,0,0,0,0,0
913,1765915391324,-6,9,1,0,0,0,0,0
914,1765915391507,-5,8,2,0,0,0,0,0
915,1765915391656,-5,9,2,0,0,0,0,0
916,1765915391824,-6,8,2,0,0,0,0,0
917,1765915391990,-6,10,2,0,0,0,0,0
918,1765915392108,-5,9,1,0,0,0,0,0
919,1765915392324,-4,9,1,0,0,0,0,0
920,1765915392424,-5,10,1,0,0,0,0,0
921,1765915392622,-7,10,1,0,0,0,0,0
922,1765915392724,-5,9,2,0,0,0,0,0
923,1765915392957,-6,9,1,0,0,0,0,0
924,1765915393025,-5,10,1,0,0,0,0,0
925,1765915393041,-6,9,1,0,0,0,0,0
926,1765915393258,-6,8,2,0,0,0,0,0
927,1765915393338,-5,9,3,0,0,0,0,0
928,1765915393574,-4,9,1,0,0,0,0,0
929,1765915393673,-6,8,1,0,0,0,0,0
930,1765915393890,-3,9,2,0,0,0,0,0
931,1765915393974,-6,10,2,0,0,0,0,0
932,1765915394172,-5,8,2,0,0,0,0,0
933,1765915394307,-5,10,1,0,0,0,0,0
934,1765915394491,-6,9,0,0,0,0,0,0
935,1765915394624,-7,10,1,0,0,0,0,0
936,1765915394791,-5,10,1,0,0,0,0,0
937,1765915394940,-5,9,1,0,0,0,0,0
938,1765915395090,-6,8,2,0,0,0,0,0
939,1765915395223,-6,9,1,0,0,0,0,0
940,1765915395407,-5,9,1,0,0,0,0,0
941,1765915395557,-6,8,2,0,0,0,0,0
942,1765915395690,-6,9,1,0,0,0,0,0
943,1765915395872,-5,9,0,0,0,0,0,0
944,1765915396007,-5,9,2,0,0,0,0,0
945,1765915396224,-5,9,1,0,0,0,0,0
946,1765915396307,-5,9,3,0,0,0,0,0
947,1765915396623,-6,11,3,0,0,0,0,0
948,1765915396840,-5,9,1,0,0,0,0,0
949,1765915396907,-6,9,0,0,0,0,0,0
950,1765915397157,-6,10,1,0,0,0,0,0
951,1765915397224,-5,9,1,0,0,0,0,0
952,1765915397474,-5,9,2,0,0,0,0,0
953,1765915397524,-6,8,1,0,0,0,0,0
954,1765915397773,-6,9,2,0,0,0,0,0
955,1765915397857,-5,8,0,0,0,0,0,0
956,1765915398074,-6,10,2,0,0,0,0,0
957,1765915398141,-6,9,1,0,0,0,0,0
958,1765915398374,-6,8,2,0,0,0,0,0
959,1765915398473,-4,10,1,0,0,0,0,0
960,1765915398690,-4,8,1,0,0,0,0,0
961,1765915398774,-6,10,1,0,0,0,0,0
962,1765915398991,-5,11,1,0,0,0,0,0
963,1765915399092,-6,8,0,0,0,0,0,0
964,1765915399289,-6,8,2,0,0,0,0,0
965,1765915399407,-4,9,3,0,0,0,0,0
966,1765915399590,-7,9,2,0,0,0,0,0
967,1765915399724,-6,9,0,0,0,0,0,0
968,1765915399891,-6,10,1,0,0,0,0,0
969,1765915400024,-6,9,1,0,0,0,0,0
970,1765915400208,-5,9,2,0,0,0,0,0
971,1765915400340,-5,9,2,0,0,0,0,0
972,1765915400491,-5,10,1,0,0,0,0,0
973,1765915400674,-6,9,1,0,0,0,0,0
974,1765915400807,-6,9,1,0,0,0,0,0
975,1765915400974,-6,9,1,0,0,0,0,0
976,1765915401107,-7,9,1,0,0,0,0,0
977,1765915401291,-5,10,0,0,0,0,0,0
978,1765915401424,-5,10,3,0,0,0,0,0
979,1765915401590,-6,10,2,0,0,0,0,0
980,1765915401724,-5,10,2,0,0,0,0,0
981,1765915401924,-8,9,2,0,0,0,0,0
982,1765915402007,-5,10,0,0,0,0,0,0
983,1765915402223,-7,10,1,0,0,0,0,0
984,1765915402324,-5,10,2,0,0,0,0,0
985,1765915402557,-5,9,2,0,0,0,0,0
986,1765915402623,-6,8,2,0,0,0,0,0
987,1765915402841,-5,10,1,0,0,0,0,0
988,1765915402940,-6,12297,161,0,0,0,0,0
989,1765915403174,-6,9,1,0,0,0,0,0
990,1765915403241,-5,9,1,0,0,0,0,0
991,1765915403474,-5,9,2,0,0,0,0,0
992,1765915403555,-4,9,2,0,0,0,0,0
993,1765915403790,-3,10,1,0,0,0,0,0
994,1765915403874,-5,10,0,0,0,0,0,0
995,1765915404074,-6,10,1,0,0,0,0,0
996,1765915404175,-5,9,1,0,0,0,0,0
997,1765915404406,-6,9,2,0,0,0,0,0
998,1765915404506,-5,9,2,0,0,0,0,0
999,1765915404688,-6,9,2,0,0,0,0,0
1000,1765915404840,-5,10,1,0,0,0,0,0
1001,1765915405007,-7,9,1,0,0,0,0,0
1002,1765915405124,-6,9,-1,0,0,0,0,0
1003,1765915405306,-7,8,1,0,0,0,0,0
1004,1765915405456,-7,9,2,0,0,0,0,0
1005,1765915405623,-7,9,2,0,0,0,0,0
1006,1765915405924,-4,8,2,0,0,0,0,0
1007,1765915406274,-5,10,2,0,0,0,0,0
1008,1765915406456,-5,10,-1,0,0,0,0,0
1009,1765915406557,-6,9,1,0,0,0,0,0
1010,1765915406758,-5,8,1,0,0,0,0,0
1011,1765915406858,-5,9,1,0,0,0,0,0
1012,1765915406924,-5,9,1,0,0,0,0,0
1013,1765915407155,-5,9,2,0,0,0,0,0
1014,1765915407223,-6,8,1,0,0,0,0,0
1015,1765915407440,-5,9,0,0,0,0,0,0
1016,1765915407507,-6,10,1,0,0,0,0,0
1017,1765915407791,-6,9,2,0,0,0,0,0
1018,1765915407890,-5,10,1,0,0,0,0,0
1019,1765915408090,-5,10,2,0,0,0,0,0
1020,1765915408173,-6,9,2,0,0,0,0,0
1021,1765915408441,-7,9,1,0,0,0,0,0
1022,1765915408557,-4,9,0,0,0,0,0,0
1023,1765915408740,-7,8,0,0,0,0,0,0
1024,1765915408841,-6,9,1,0,0,0,0,0
1025,1765915409090,-4,9,1,0,0,0,0,0
1026,1765915409174,-6,10,1,0,0,0,0,0
1027,1765915409373,-6,7,2,0,0,0,0,0
1028,1765915409474,-7,9,3,0,0,0,0,0
1029,1765915409723,-6,8,1,0,0,0,0,0
1030,1765915409886,-6,9,2,0,0,0,0,0
1031,1765915410008,-4,10,2,0,0,0,0,0
1032,1765915410124,-7,9,2,0,0,0,0,0
1033,1765915410358,-5,10,1,0,0,0,0,0
1034,1765915410473,-8,9,2,0,0,0,0,0
1035,1765915410657,-5,9,2,0,0,0,0,0
1036,1765915410774,-7,8,1,0,0,0,0,0
1037,1765915411024,-6,9,1,0,0,0,0,0
1038,1765915411657,-5,10,1,0,0,0,0,0
1039,1765915411807,-6,9,2,0,0,0,0,0
1040,1765915411940,-3,9,2,0,0,0,0,0
1041,1765915412107,-5,9,0,0,0,0,0,0
1042,1765915412238,16379,14602,16388,0,0,0,0,0
1043,1765915412424,-5,9,2,0,0,0,0,0
1044,1765915412574,-6,10,1,0,0,0,0,0
1045,1765915412707,-5,9,2,0,0,0,0,0
1046,1765915412857,-7,10,1,0,0,0,0,0
1047,1765915413024,-6,9,2,0,0,0,0,0
1048,1765915413207,-5,9,1,0,0,0,0,0
1049,1765915413341,-7,10,1,0,0,0,0,0
1050,1765915413507,-5,9,1,0,0,0,0,0
1051,1765915413624,-4,9,1,0,0,0,0,0
1052,1765915413657,-7,9,1,0,0,0,0,0
1053,1765915413857,-5,9,2,0,0,0,0,0
1054,1765915413940,-4,9,2,0,0,0,0,0
1055,1765915414141,-6,9,0,0,0,0,0,0
1056,1765915414223,-4,9,1,0,0,0,0,0
1057,1765915414490,-6,8,0,0,0,0,0,0
1058,1765915414608,-6,9,1,0,0,0,0,0
1059,1765915414774,-4,9,1,0,0,0,0,0
1060,1765915414923,-6,8,2,0,0,0,0,0
1061,1765915415090,-5,9,2,0,0,0,0,0
1062,1765915415241,-4,9,1,0,0,0,0,0
1063,1765915415390,-5,10,0,0,0,0,0,0
1064,1765915415574,-6,9,1,0,0,0,0,0
1065,1765915415722,-6,10,0,0,0,0,0,0
1066,1765915415924,-7,8,2,0,0,0,0,0
1067,1765915416007,-6,10,1,0,0,0,0,0
1068,1765915416239,-7,10,1,0,0,0,0,0
1069,1765915416321,-4,8,2,0,0,0,0,0
1070,1765915416573,-10,8,3,0,0,0,0,0
1071,1765915416706,-4,10,1,0,0,0,0,0
1072,1765915416857,-5,8,1,0,0,0,0,0
1073,1765915417039,-1,9,1,0,0,0,0,0
1074,1765915417188,-8,7,1,0,0,0,0,0
1075,1765915417405,-2,12,255,0,0,0,0,0
1076,1765915417490,-6,10,1,0,0,0,0,0
1077,1765915417724,-3,5,3,0,0,0,0,0
1078,1765915417807,-3,6,4,0,0,0,0,0
1079,1765915418040,-9,10,0,0,0,0,0,0
1080,1765915418172,-3,8,0,0,0,0,0,0
1081,1765915418339,-6,10,2,0,0,0,0,0
1082,1765915418572,-5,9,1,0,0,0,0,0
1083,1765915418674,-6,8,1,0,0,0,0,0
1084,1765915418907,-6,10,1,0,0,0,0,0
1085,1765915418990,-8,4,2,0,0,0,0,0
1086,1765915419224,-5,6,2,0,0,0,0,0
1087,1765915419374,-2,16,0,0,0,0,0,0
1088,1765915419524,-11,-3,4,0,0,0,0,0
1089,1765915419757,-27,21,1,0,0,0,0,0
1090,1765915419823,-7,-14,3,0,0,0,0,0
1091,1765915420090,-1,-10,2,0,0,0,0,0
1092,1765915420224,-12,-3,-1,0,0,0,0,0
1093,1765915420391,-13,-9,19,0,0,0,0,0
1094,1765915420657,-3,-23,10,0,0,0,0,0
1095,1765915420740,-13,-18,10,0,0,0,0,0
1096,1765915420957,-8,-17,8,0,0,0,0,0
1097,1765915421090,-8,-30,4,0,0,0,0,0
1098,1765915421257,-3,-22,16,0,0,0,0,0
1099,1765915421507,-31,5,-7,0,0,0,0,0
1100,1765915421590,8,10,5,0,0,0,0,0
1101,1765915421824,-13,-43,6,0,0,0,0,0
1102,1765915421941,-7,-11,-3,0,0,0,0,0
1103,1765915422141,-10,-20,-1,0,0,0,0,0
1104,1765915422290,-12,5,3,0,0,0,0,0
1105,1765915422441,3,-15,6,0,0,0,0,0
1106,1765915422641,-19,-8,0,0,0,0,0,0
1107,1765915422773,-2,-3,-2,0,0,0,0,0
1108,1765915422990,-1,0,2,0,0,0,0,0
1109,1765915423073,-7,5,3,0,0,0,0,0
1110,1765915423290,-3,-2,-2,0,0,0,0,0
1111,1765915423407,-2,3,2,0,0,0,0,0
1112,1765915423625,-8,6,3,0,0,0,0,0
1113,1765915423773,-4,-1,-1,0,0,0,0,0
1114,1765915424158,-7,12,1,0,0,0,0,0
1115,1765915424241,-26,25,-4,0,0,0,0,0
1116,1765915424474,-23,-17,1,0,0,0,0,0
1117,1765915424574,25,8,-2,0,0,0,0,0
1118,1765915424773,-16,3,6,0,0,0,0,0
1119,1765915424974,-14,-15,6,0,0,0,0,0
1120,1765915425107,-1,9,-6,0,0,0,0,0
1121,1765915425324,-2,-7,5,0,0,0,0,0
1122,1765915425407,-1,-21,4,0,0,0,0,0
1123,1765915425658,-9,0,-6,0,0,0,0,0
1124,1765915425741,-4,15,2,0,0,0,0,0
1125,1765915425958,2,-17,8,0,0,0,0,0
1126,1765915426107,-7,0,-4,0,0,0,0,0
1127,1765915426290,-5,4,0,0,0,0,0,0
1128,1765915426457,-7,6,3,0,0,0,0,0
1129,1765915426807,-4,6,1,0,0,0,0,0
1130,1765915426874,-12,11,0,0,0,0,0,0
1131,1765915427141,-7,8,2,0,0,0,0,0
1132,1765915427207,-4,8,3,0,0,0,0,0
1133,1765915427440,-8,8,2,0,0,0,0,0
1134,1765915427574,-3,9,2,0,0,0,0,0
1135,1765915427757,-7,8,1,0,0,0,0,0
1136,1765915427940,-4,9,1,0,0,0,0,0
1137,1765915428057,-6,7,0,0,0,0,0,0
1138,1765915428290,-6,11,0,0,0,0,0,0
1139,1765915428374,-3,9,2,0,0,0,0,0
1140,1765915428607,-6,9,2,0,0,0,0,0
1141,1765915428740,-4,9,1,0,0,0,0,0
1142,1765915428907,-4,8,2,0,0,0,0,0
1143,1765915429106,1,11,1,0,0,0,0,0
1144,1765915429240,-9,7,2,0,0,0,0,0
1145,1765915429440,-2,11,2,0,0,0,0,0
1146,1765915429524,-11,9,2,0,0,0,0,0
1147,1765915429789,-5,10,1,0,0,0,0,0
1148,1765915429874,-7,8,1,0,0,0,0,0
1149,1765915430090,-1,10,1,0,0,0,0,0
1150,1765915430223,-11,9,2,0,0,0,0,0
1151,1765915430389,-4,9,3,0,0,0,0,0
1152,1765915430607,-5,9,1,0,0,0,0,0
1153,1765915430707,-6,8,1,0,0,0,0,0
1154,1765915430940,-5,10,2,0,0,0,0,0
1155,1765915431023,-7,9,2,0,0,0,0,0
1156,1765915431273,-6,9,2,0,0,0,0,0
1157,1765915431373,-4,9,1,0,0,0,0,0
1158,1765915431557,-6,10,0,0,0,0,0,0
1159,1765915431707,-7,9,1,0,0,0,0,0
1160,1765915431888,-7,8,1,0,0,0,0,0
1161,1765915432074,-5,9,0,0,0,0,0,0
1162,1765915432190,-5,9,1,0,0,0,0,0
1163,1765915432424,-5,9,2,0,0,0,0,0
1164,1765915432490,-6,9,2,0,0,0,0,0
1165,1765915432741,-4,9,1,0,0,0,0,0
1166,1765915432857,-7,9,2,0,0,0,0,0
1167,1765915433040,-5,9,1,0,0,0,0,0
1168,1765915433207,-6,9,1,0,0,0,0,0
1169,1765915433373,-6,9,2,0,0,0,0,0
1170,1765915433557,-6,10,1,0,0,0,0,0
1171,1765915433656,-7,9,2,0,0,0,0,0
1172,1765915433889,-6,8,2,0,0,0,0,0
1173,1765915433973,-4,10,1,0,0,0,0,0
1174,1765915434223,-6,8,1,0,0,0,0,0
1175,1765915434324,-6,9,0,0,0,0,0,0
1176,1765915434507,-6,9,1,0,0,0,0,0
1177,1765915434657,-5,8,1,0,0,0,0,0
1178,1765915434840,-6,9,2,0,0,0,0,0
1179,1765915435023,-7,9,1,0,0,0,0,0
1180,1765915435140,-6,9,2,0,0,0,0,0
1181,1765915435357,-6,9,2,0,0,0,0,0
1182,1765915435457,-6,10,2,0,0,0,0,0
1183,1765915435690,-6,8,1,0,0,0,0,0
1184,1765915435790,-6,9,2,0,0,0,0,0
1185,1765915435990,-7,9,0,0,0,0,0,0
1186,1765915436140,-4,8,1,0,0,0,0,0
1187,1765915436307,-3,9,1,0,0,0,0,0
1188,1765915436474,-6,9,2,0,0,0,0,0
1189,1765915436607,-5,10,1,0,0,0,0,0
1190,1765915436840,-5,9,1,0,0,0,0,0
1191,1765915436924,-6,9,1,0,0,0,0,0
1192,1765915437157,-7,10,1,0,0,0,0,0
1193,1765915437240,-4,9,2,0,0,0,0,0
1194,1765915437490,-6,10,2,0,0,0,0,0
1195,1765915437606,-5,8,2,0,0,0,0,0
1196,1765915437790,-5,9,1,0,0,0,0,0
1197,1765915437940,-4,9,0,0,0,0,0,0
1198,1765915438075,-6,9,1,0,0,0,0,0
1199,1765915438406,-5,8,2,0,0,0,0,0
1200,1765915438640,-6,8,2,0,0,0,0,0
1201,1765915439090,-7,9,3,0,0,0,0,0
1202,1765915439257,-5,9,2,0,0,0,0,0
1203,1765915439440,-6,9,2,0,0,0,0,0
1204,1765915439589,-5,8,2,0,0,0,0,0
1205,1765915439790,-5,9,1,0,0,0,0,0
1206,1765915439890,-4,8,1,0,0,0,0,0
1207,1765915440124,-4,9,2,0,0,0,0,0
1208,1765915440207,-5,10,1,0,0,0,0,0
1209,1765915440440,-5,9,2,0,0,0,0,0
1210,1765915440523,-6,9,0,0,0,0,0,0
1211,1765915440740,-6,11,2,0,0,0,0,0
1212,1765915440841,-6,8,1,0,0,0,0,0
1213,1765915441024,-7,9,2,0,0,0,0,0
1214,1765915441090,-5,10,2,0,0,0,0,0
1215,1765915441307,-5,10,1,0,0,0,0,0
1216,1765915441390,-6,9,1,0,0,0,0,0
1217,1765915441690,-6,9,1,0,0,0,0,0
1218,1765915441822,-5,9,1,0,0,0,0,0
1219,1765915441990,-6,9,1,0,0,0,0,0
1220,1765915442124,-6,8,1,0,0,0,0,0
1221,1765915442272,-6,9,1,0,0,0,0,0
1222,1765915442357,-5,8,2,0,0,0,0,0
1223,1765915442556,-4,9,3,0,0,0,0,0
1224,1765915442640,-4,10,2,0,0,0,0,0
1225,1765915442856,-6,8,3,0,0,0,0,0
1226,1765915443057,-5,10,1,0,0,0,0,0
1227,1765915443241,-5,9,2,0,0,0,0,0
1228,1765915443356,-5,8,2,0,0,0,0,0
1229,1765915443522,-7,9,2,0,0,0,0,0
1230,1765915443657,-6,8,2,0,0,0,0,0
1231,1765915443774,-5,10,0,0,0,0,0,0
1232,1765915443890,-5,10,1,0,0,0,0,0
1233,1765915444057,-5,8,1,0,0,0,0,0
1234,1765915444474,-5,9,2,0,0,0,0,0
1235,1765915444540,-6,9,2,0,0,0,0,0
1236,1765915444757,-6,9,1,0,0,0,0,0
1237,1765915444824,-4,10,1,0,0,0,0,0
1238,1765915445124,-6,10,0,0,0,0,0,0
1239,1765915445222,-8,9,1,0,0,0,0,0
1240,1765915445423,-5,9,1,0,0,0,0,0
1241,1765915445507,-4,9,1,0,0,0,0,0
1242,1765915445771,-5,9,1,0,0,0,0,0
1243,1765915445907,-4,8,1,0,0,0,0,0
1244,1765915446057,-3,10,2,0,0,0,0,0
1245,1765915446223,-9,9,2,0,0,0,0,0
1246,1765915446423,-7,10,1,0,0,0,0,0
1247,1765915446605,-4,9,1,0,0,0,0,0
1248,1765915446721,-6,10,2,0,0,0,0,0
1249,1765915446907,-5,9,2,0,0,0,0,0
1250,1765915447007,-5,7,1,0,0,0,0,0
1251,1765915447073,-6,10,2,0,0,0,0,0
1252,1765915447274,-7,9,2,0,0,0,0,0
1253,1765915447356,-8,11,2,0,0,0,0,0
1254,1765915447588,-5,10,1,0,0,0,0,0
1255,1765915447640,-7,8,1,0,0,0,0,0
1256,1765915447940,-6,8,1,0,0,0,0,0
1257,1765915448007,-7,10,2,0,0,0,0,0
1258,1765915448240,-5,11,3,0,0,0,0,0
1259,1765915448290,-9,8,-1,0,0,0,0,0
1260,1765915448422,-5,9,1,0,0,0,0,0
1261,1765915448606,-5,9,1,0,0,0,0,0
1262,1765915448724,-6,8,1,0,0,0,0,0
1263,1765915448890,-5,9,1,0,0,0,0,0
1264,1765915449007,-7,10,2,0,0,0,0,0
1265,1765915449206,-5,9,1,0,0,0,0,0
1266,1765915449273,-7,9,2,0,0,0,0,0
1267,1765915449489,-8,9,1,0,0,0,0,0
1268,1765915449656,-4,11,1,0,0,0,0,0
1269,1765915449823,-2,19,-1,0,0,0,0,0
1270,1765915450057,-27,4,4,0,0,0,0,0
1271,1765915450157,-23,-15,8,0,0,0,0,0
1272,1765915450354,11,28,-3,0,0,0,0,0
1273,1765915450573,-9,-23,11,0,0,0,0,0
1274,1765915450690,-10,-12,5,0,0,0,0,0
1275,1765915450923,-3,-11,3,0,0,0,0,0
1276,1765915450974,-9,-24,11,0,0,0,0,0
1277,1765915451257,-13,-46,-6,0,0,0,0,0
1278,1765915451456,-20,-58,11,0,0,0,0,0
1279,1765915451557,-8,-38,8,0,0,0,0,0
1280,1765915451789,-7,-57,-6,0,0,0,0,0
1281,1765915451873,6,-47,14,0,0,0,0,0
1282,1765915451939,37,-219,1,0,0,0,0,0
1283,1765915452123,-40,-282,9,0,0,0,0,0
1284,1765915452323,29,-324,-35,0,0,0,0,0
1285,1765915452422,25,-380,18,0,0,0,0,0
1286,1765915452690,39,-438,31,0,0,0,0,0
1287,1765915452857,-10,-443,27,0,0,0,0,0
1288,1765915452990,17,-428,26,0,0,0,0,0
1289,1765915453241,-1,-413,23,0,0,0,0,0
1290,1765915453306,3,-437,20,0,0,0,0,0
1291,1765915453390,8,-290,-21,0,0,0,0,0
1292,1765915453574,22,-324,20,0,0,0,0,0
1293,1765915453800,2,-314,42,0,0,0,0,0
1294,1765915453873,-4,-344,-5,0,0,0,0,0
1295,1765915454140,38,-245,-3,0,0,0,0,0
1296,1765915454290,34,-216,59,0,0,0,0,0
1297,1765915454440,-64,-180,-5,0,0,0,0,0
1298,1765915454654,-15,-180,2,0,0,0,0,0
1299,1765915454724,19,-189,25,0,0,0,0,0
1300,1765915454807,-4,-221,8,0,0,0,0,0
1301,1765915455006,-6,-193,38,0,0,0,0,0
1302,1765915455140,54,-204,9,0,0,0,0,0
1303,1765915455290,-44,-210,12,0,0,0,0,0
1304,1765915455573,-25,-177,-10,0,0,0,0,0
1305,1765915455673,22,-136,-66,0,0,0,0,0
1306,1765915455873,-14,-101,81,0,0,0,0,0
1307,1765915456040,-17,-96,-39,0,0,0,0,0
1308,1765915456207,-4,-68,-22,0,0,0,0,0
1309,1765915456439,-19,-48,35,0,0,0,0,0
1310,1765915456574,-75,-68,-30,0,0,0,0,0
1311,1765915456739,54,-54,-39,0,0,0,0,0
1312,1765915457007,24573,-9,-2098,0,0,0,0,0
1313,1765915457089,-32,-9,-26,0,0,0,0,0
1314,1765915457306,12,16,16,0,0,0,0,0
1315,1765915457456,-1,20,-21,0,0,0,0,0
1316,1765915457640,-3,-1,-16,0,0,0,0,0
1317,1765915457873,59,13,1,0,0,0,0,0
1318,1765915457973,-17,41,27,0,0,0,0,0
1319,1765915458174,1,19,-50,0,0,0,0,0
1320,1765915458407,45,24,43,0,0,0,0,0
1321,1765915458506,-19,48,-73,0,0,0,0,0
1322,1765915458757,-2,56,-52,0,0,0,0,0
1323,1765915458856,61,36,26,0,0,0,0,0
1324,1765915459073,17,73,53,0,0,0,0,0
1325,1765915459307,40,41,-50,0,0,0,0,0
1326,1765915459390,-14,59,-12,0,0,0,0,0
1327,1765915459606,-36,31,-9,0,0,0,0,0
1328,1765915459823,68,13,-43,0,0,0,0,0
1329,1765915459957,-41,59,-24,0,0,0,0,0
1330,1765915460190,-28,80,-32,0,0,0,0,0
1331,1765915460257,74,89,-11,0,0,0,0,0
1332,1765915460523,-29,-14,-14,0,0,0,0,0
1333,1765915460706,29,-4,-3,0,0,0,0,0
1334,1765915460807,38,-5,-3,0,0,0,0,0
1335,1765915461057,-45,-3,-25,0,0,0,0,0
1336,1765915461123,31,-3,34,0,0,0,0,0
1337,1765915461373,77,-51,-20,0,0,0,0,0
1338,1765915461490,-28,-33,20,0,0,0,0,0
1339,1765915461673,11,-45,5,0,0,0,0,0
1340,1765915461823,-45,-36,-38,0,0,0,0,0
1341,1765915461823,31,-53,-25,0,0,0,0,0
1342,1765915461990,-8,-44,-18,0,0,0,0,0
1343,1765915462173,-16,-28,41,0,0,0,0,0
1344,1765915462289,-22,-39,0,0,0,0,0,0
1345,1765915462523,17,-21,-9,0,0,0,0,0
1346,1765915462622,-36,-13,13,0,0,0,0,0
1347,1765915462840,29,-9,28,0,0,0,0,0
1348,1765915462940,-3,-15,-17,0,0,0,0,0
1349,1765915463140,-15,-22,27,0,0,0,0,0
1350,1765915463256,36,9,5,0,0,0,0,0
1351,1765915463473,-27,6,-8,0,0,0,0,0
1352,1765915463606,50,6,29,0,0,0,0,0
1353,1765915463773,-82,-2,1,0,0,0,0,0
1354,1765915463956,17,27,52,0,0,0,0,0
1355,1765915464091,18,18,-3,0,0,0,0,0
1356,1765915464307,-24,33,-18,0,0,0,0,0
1357,1765915464374,23,25,-26,0,0,0,0,0
1358,1765915464640,88,45,-26,0,0,0,0,0
1359,1765915464768,-27,60,51,0,0,0,0,0
1360,1765915464940,-67,37,-15,0,0,0,0,0
1361,1765915465073,72,37,-56,0,0,0,0,0
1362,1765915465239,-58,32,-2,0,0,0,0,0
1363,1765915465424,-42,-2,-37,0,0,0,0,0
1364,1765915465556,-45,2,8,0,0,0,0,0
1365,1765915465755,-15,28,37,0,0,0,0,0
1366,1765915465856,-16,3,-4,0,0,0,0,0
1367,1765915466105,-9,4,-21,0,0,0,0,0
1368,1765915466172,-15,15,-9,0,0,0,0,0
1369,1765915466406,14,-5,13,0,0,0,0,0
1370,1765915466506,-49,-8,21,0,0,0,0,0
1371,1765915466725,12,-11,20,0,0,0,0,0
1372,1765915466873,-25,-21,7,0,0,0,0,0
1373,1765915467023,20,-8,16,0,0,0,0,0
1374,1765915467224,-4,-7,6,0,0,0,0,0
1375,1765915467323,-13,-6,-18,0,0,0,0,0
1376,1765915467574,18,-21,-34,0,0,0,0,0
1377,1765915467639,-16,-7,2,0,0,0,0,0
1378,1765915467873,1,-1,-1,0,0,0,0,0
1379,1765915467973,10,-6,-18,0,0,0,0,0
1380,1765915468190,1,-5,-16,0,0,0,0,0
1381,1765915468340,-3,-22,4,0,0,0,0,0
1382,1765915468490,-32,14,-11,0,0,0,0,0
1383,1765915468690,-3,-6,5,0,0,0,0,0
1384,1765915468773,1,-19,13,0,0,0,0,0
1385,1765915469040,-5,-20,4,0,0,0,0,0
1386,1765915469105,-13,-20,6,0,0,0,0,0
1387,1765915469340,2,-17,2,0,0,0,0,0
1388,1765915469440,4,-17,-4,0,0,0,0,0
1389,1765915469673,-11,-3,4,0,0,0,0,0
1390,1765915469806,-5,-4,0,0,0,0,0,0
1391,1765915469957,-1,-1,5,0,0,0,0,0
1392,1765915470140,-8,2,-4,0,0,0,0,0
1393,1765915470288,-3,2,6,0,0,0,0,0
1394,1765915470489,0,4,2,0,0,0,0,0
1395,1765915470590,-5,2,-2,0,0,0,0,0
1396,1765915470821,-1,2,6,0,0,0,0,0
1397,1765915470908,-3,7,3,0,0,0,0,0
1398,1765915471138,-5,7,0,0,0,0,0,0
1399,1765915471287,-7,7,2,0,0,0,0,0
1400,1765915471439,-3,7,3,0,0,0,0,0
1401,1765915471672,-8,11,3,0,0,0,0,0
1402,1765915471756,-5,7,0,0,0,0,0,0
1403,1765915471990,-3,8,0,0,0,0,0,0
1404,1765915472074,-3,9,4,0,0,0,0,0
1405,1765915472290,-9,6,3,0,0,0,0,0
1406,1765915472440,-6,10,2,0,0,0,0,0
1407,1765915472623,-8,8,1,0,0,0,0,0
1408,1765915472774,-6,8,2,0,0,0,0,0
1409,1765915472907,-5,9,2,0,0,0,0,0
1410,1765915473157,-5,11,2,0,0,0,0,0
1411,1765915473239,-6,8,1,0,0,0,0,0
1412,1765915473473,-5,10,1,0,0,0,0,0
1413,1765915473574,-9,8,0,0,0,0,0,0
1414,1765915473790,-10,9,1,0,0,0,0,0
1415,1765915473923,-2,9,1,0,0,0,0,0
1416,1765915474090,-10,7,0,0,0,0,0,0
1417,1765915474258,-4,7,2,0,0,0,0,0
1418,1765915474390,-6,12,1,0,0,0,0,0
1419,1765915474623,-3,8,1,0,0,0,0,0
1420,1765915474707,-8,10,2,0,0,0,0,0
1421,1765915474939,-4,8,1,0,0,0,0,0
1422,1765915475024,-7,9,1,0,0,0,0,0
1423,1765915475223,-5,11,1,0,0,0,0,0
1424,1765915475308,-5,8,2,0,0,0,0,0
1425,1765915475557,-5,9,1,0,0,0,0,0
1426,1765915475699,-7,9,2,0,0,0,0,0
1427,1765915475907,-6,9,2,0,0,0,0,0
1428,1765915476073,-5,10,1,0,0,0,0,0
1429,1765915476207,-3,6,2,0,0,0,0,0
1430,1765915476390,-3,8,1,0,0,0,0,0
1431,1765915476524,-5,8,3,0,0,0,0,0
1432,1765915476640,-5,9,2,0,0,0,0,0
1433,1765915476807,-5,9,2,0,0,0,0,0
1434,1765915476957,-6,9,1,0,0,0,0,0
1435,1765915477107,-5,10,1,0,0,0,0,0
1436,1765915477223,-7,8,1,0,0,0,0,0
1437,1765915477406,-5,8,2,0,0,0,0,0
1438,1765915477541,-5,8,3,0,0,0,0,0
1439,1765915477707,-6,6,2,0,0,0,0,0
1440,1765915477856,-4,14,0,0,0,0,0,0
1441,1765915478024,-5,10,2,0,0,0,0,0
1442,1765915478158,-4,21,0,0,0,0,0,0
1443,1765915478323,-13,-6,3,0,0,0,0,0
1444,1765915478488,-24,0,-1,0,0,0,0,0
1445,1765915478624,-10,5,3,0,0,0,0,0
1446,1765915478724,-2,-7,8,0,0,0,0,0
1447,1765915478924,-12,-4,4,0,0,0,0,0
1448,1765915479040,-3,-6,8,0,0,0,0,0
1449,1765915479221,-3,-6,3,0,0,0,0,0
1450,1765915479307,2,-69,-3,0,0,0,0,0
1451,1765915479523,8,-77,-3,0,0,0,0,0
1452,1765915479623,5,-101,9,0,0,0,0,0
1453,1765915479822,7,-107,11,0,0,0,0,0
1454,1765915479940,-11,-120,9,0,0,0,0,0
1455,1765915480138,-8,-231,-3,0,0,0,0,0
1456,1765915480205,-7,-242,20,0,0,0,0,0
1457,1765915480424,32,-234,33,0,0,0,0,0
1458,1765915480540,34,-244,13,0,0,0,0,0
1459,1765915480725,43,-272,22,0,0,0,0,0
1460,1765915480807,8,-255,20,0,0,0,0,0
1461,1765915481024,18,-257,9,0,0,0,0,0
1462,1765915481122,32,-253,27,0,0,0,0,0
1463,1765915481406,-6,-176,5,0,0,0,0,0
1464,1765915481605,4,-158,14,0,0,0,0,0
1465,1765915481688,-1,-160,-19,0,0,0,0,0
1466,1765915481905,33,-142,21,0,0,0,0,0
1467,1765915481990,-10,-137,-7,0,0,0,0,0
1468,1765915482157,6,-143,-9,0,0,0,0,0
1469,1765915482289,-4,-130,21,0,0,0,0,0
1470,1765915482455,36,-125,18,0,0,0,0,0
1471,1765915482573,-29,-125,16,0,0,0,0,0
1472,1765915482888,30,-116,20,0,0,0,0,0
1473,1765915482989,-37,-141,-6,0,0,0,0,0
1474,1765915483173,14,-150,-9,0,0,0,0,0
1475,1765915483307,66,-171,44,0,0,0,0,0
1476,1765915483505,-65,-139,-13,0,0,0,0,0
1477,1765915483589,68,-157,29,0,0,0,0,0
1478,1765915483790,80,-148,3,0,0,0,0,0
1479,1765915483906,-48,-174,39,0,0,0,0,0
1480,1765915484121,29,-236,1,0,0,0,0,0
1481,1765915484288,55,-266,36,0,0,0,0,0
1482,1765915484421,42,-281,-11,0,0,0,0,0
1483,1765915484639,35,-262,30,0,0,0,0,0
1484,1765915484706,-7,-278,47,0,0,0,0,0
1485,1765915484825,-7,-387,23,0,0,0,0,0
1486,1765915484990,53,-436,-3,0,0,0,0,0
1487,1765915485207,-7,-431,0,0,0,0,0,0
1488,1765915485289,50,-395,33,0,0,0,0,0
1489,1765915485557,66,-296,72,0,0,0,0,0
1490,1765915485756,-19,-354,8,0,0,0,0,0
1491,1765915485857,64,-384,53,0,0,0,0,0
1492,1765915486106,-28,-382,70,0,0,0,0,0
1493,1765915486223,32,-385,-23,0,0,0,0,0
1494,1765915486356,18,-378,-35,0,0,0,0,0
1495,1765915486440,14,-355,31,0,0,0,0,0
1496,1765915486672,47,-338,130,0,0,0,0,0
1497,1765915486806,156,-337,30,0,0,0,0,0
1498,1765915487024,89,-434,78,0,0,0,0,0
1499,1765915487255,-12,-381,16,0,0,0,0,0
1500,1765915487356,-20,-369,36,0,0,0,0,0
1501,1765915487555,46,-384,10,0,0,0,0,0
1502,1765915487823,73,-416,-44,0,0,0,0,0
1503,1765915487938,-30,-397,-41,0,0,0,0,0
1504,1765915488123,59,-395,-31,0,0,0,0,0
1505,1765915488323,27,-418,-56,0,0,0,0,0
1506,1765915488406,34,-422,34,0,0,0,0,0
1507,1765915488522,-228,-402,-3,0,0,0,0,0
1508,1765915488704,89,-356,-7,0,0,0,0,0
1509,1765915488922,-30,-377,48,0,0,0,0,0
1510,1765915489005,-8,-374,-9,0,0,0,0,0
1511,1765915489273,12,-284,8,0,0,0,0,0
1512,1765915489439,13,-284,17,0,0,0,0,0
1513,1765915489571,7,-301,8,0,0,0,0,0
1514,1765915489789,13,-257,26,0,0,0,0,0
1515,1765915489840,69,-46,18,0,0,0,0,0
1516,1765915489955,-44,-69,-19,0,0,0,0,0
1517,1765915490139,25,-39,76,0,0,0,0,0
1518,1765915490322,-41,-37,-75,0,0,0,0,0
1519,1765915490440,74,5,123,0,0,0,0,0
1520,1765915490704,19,149,13,0,0,0,0,0
1521,1765915490823,-21,154,4,0,0,0,0,0
1522,1765915491007,-49,171,41,0,0,0,0,0
1523,1765915491205,-63,163,-22,0,0,0,0,0
1524,1765915491288,7,163,9,0,0,0,0,0
1525,1765915491373,74,188,-37,0,0,0,0,0
1526,1765915491588,-61,236,-57,0,0,0,0,0
1527,1765915491740,-27,270,43,0,0,0,0,0
1528,1765915491873,12,210,-87,0,0,0,0,0
1529,1765915492155,-50,568,-203,0,0,0,0,0
1530,1765915492223,77,607,89,0,0,0,0,0
1531,1765915492439,-134,754,-150,0,0,0,0,0
1532,1765915492588,30,704,-233,0,0,0,0,0
1533,1765915492755,-12,289,54,0,0,0,0,0
1534,1765915492922,-85,501,24,0,0,0,0,0
1535,1765915493073,-2,579,-32,0,0,0,0,0
1536,1765915493289,-40,683,13,0,0,0,0,0
1537,1765915493388,-30,899,7,0,0,0,0,0
1538,1765915493623,-115,1009,-93,0,0,0,0,0
1539,1765915493739,63,1050,-5,0,0,0,0,0
1540,1765915493923,15,986,-80,0,0,0,0,0
1541,1765915494105,-91,-118,76,0,0,0,0,0
1542,1765915494255,-39,-70,-70,0,0,0,0,0
1543,1765915494439,-11,189,-108,0,0,0,0,0
1544,1765915494540,-69,401,-34,0,0,0,0,0
1545,1765915494790,-37,719,-7,0,0,0,0,0
1546,1765915494857,-44,688,-27,0,0,0,0,0
1547,1765915495106,-50,701,6,0,0,0,0,0
1548,1765915495205,-23,692,-45,0,0,0,0,0
1549,1765915495390,-60,663,-43,0,0,0,0,0
1550,1765915495556,44,748,-36,0,0,0,0,0
1551,1765915495721,-23,498,-31,0,0,0,0,0
1552,1765915495923,-5,524,-28,0,0,0,0,0
1553,1765915496022,-86,512,-51,0,0,0,0,0
1554,1765915496288,-37,520,-39,0,0,0,0,0
1555,1765915496440,1,496,-30,0,0,0,0,0
1556,1765915496589,-13,501,-29,0,0,0,0,0
1557,1765915496790,-20,510,-18,0,0,0,0,0
1558,1765915496857,22,-141,-40,0,0,0,0,0
1559,1765915496956,31,-256,4,0,0,0,0,0
1560,1765915497154,-17,-334,20,0,0,0,0,0
1561,1765915497323,-239,-356,13,0,0,0,0,0
1562,1765915497456,50,-329,77,0,0,0,0,0
1563,1765915497723,17,-655,20,0,0,0,0,0
1564,1765915497839,17,-649,34,0,0,0,0,0
1565,1765915498023,71,-601,40,0,0,0,0,0
1566,1765915498223,38,-510,99,0,0,0,0,0
1567,1765915498271,45,-592,37,0,0,0,0,0
1568,1765915498356,56,-538,59,0,0,0,0,0
1569,1765915498590,55,-524,18,0,0,0,0,0
1570,1765915498707,23,-485,-15,0,0,0,0,0
1571,1765915498889,-18,-468,59,0,0,0,0,0
1572,1765915499106,22,-620,32,0,0,0,0,0
1573,1765915499223,17,-616,51,0,0,0,0,0
1574,1765915499456,22,-633,50,0,0,0,0,0
1575,1765915499523,7,-600,-16,0,0,0,0,0
1576,1765915499771,-21,-537,42,0,0,0,0,0
1577,1765915499922,24,-653,7,0,0,0,0,0
1578,1765915500072,106,-640,-14,0,0,0,0,0
1579,1765915500290,-27,-718,38,0,0,0,0,0
1580,1765915500372,61,-685,-34,0,0,0,0,0
1581,1765915500440,124,-629,169,0,0,0,0,0
1582,1765915500655,-98,-622,-99,0,0,0,0,0
1583,1765915500823,28,-550,79,0,0,0,0,0
1584,1765915500956,58,-375,65,0,0,0,0,0
1585,1765915501223,5,-449,32,0,0,0,0,0
1586,1765915501356,47,-467,-10,0,0,0,0,0
1587,1765915501523,220,-474,-1,0,0,0,0,0
1588,1765915501739,44,-447,62,0,0,0,0,0
1589,1765915501889,15,-242,68,0,0,0,0,0
1590,1765915502089,11,-212,26,0,0,0,0,0
1591,1765915502256,-71,-239,-14,0,0,0,0,0
1592,1765915502388,26,-230,28,0,0,0,0,0
1593,1765915502672,42,-228,-18,0,0,0,0,0
1594,1765915502807,-21,-205,49,0,0,0,0,0
1595,1765915502972,-19,-215,-22,0,0,0,0,0
1596,1765915503190,14,-188,28,0,0,0,0,0
1597,1765915503240,74,-41,236,0,0,0,0,0
1598,1765915503323,-6,-58,-42,0,0,0,0,0
1599,1765915503539,87,-33,28,0,0,0,0,0
1600,1765915503672,42,4,-32,0,0,0,0,0
1601,1765915503823,-94,23,-50,0,0,0,0,0
1602,1765915504073,38,326,35,0,0,0,0,0
1603,1765915504172,-11,335,-61,0,0,0,0,0
1604,1765915504390,-25,344,0,0,0,0,0,0
1605,1765915504488,-33,372,-40,0,0,0,0,0
1606,1765915504706,-43,113,-135,0,0,0,0,0
1607,1765915504855,46,-233,-90,0,0,0,0,0
1608,1765915505006,0,-390,4,0,0,0,0,0
1609,1765915505224,-44,-495,-34,0,0,0,0,0
1610,1765915505307,95,-490,-26,0,0,0,0,0
1611,1765915505572,2,-253,5,0,0,0,0,0
1612,1765915505672,-69,-245,25,0,0,0,0,0
1613,1765915505872,-65,-235,-3,0,0,0,0,0
1614,1765915506039,50,-230,35,0,0,0,0,0
1615,1765915506089,-59,-107,247,0,0,0,0,0
1616,1765915506204,-44,-78,1,0,0,0,0,0
1617,1765915506423,70,-93,-28,0,0,0,0,0
1618,1765915506505,-26,-142,-5,0,0,0,0,0
1619,1765915506738,-40,-139,-42,0,0,0,0,0
1620,1765915506923,-73,-55,-58,0,0,0,0,0
1621,1765915507056,87,-62,8,0,0,0,0,0
1622,1765915507272,-52,-67,35,0,0,0,0,0
1623,1765915507354,-26,-38,-23,0,0,0,0,0
1624,1765915507622,-66,-366,30,0,0,0,0,0
1625,1765915507721,-29,-302,-50,0,0,0,0,0
1626,1765915507905,4,-248,-81,0,0,0,0,0
1627,1765915508105,83,-245,26,0,0,0,0,0
1628,1765915508255,39,-457,5,0,0,0,0,0
1629,1765915508521,75,-499,-2,0,0,0,0,0
1630,1765915508572,110,-501,100,0,0,0,0,0
1631,1765915508772,-13,-513,-17,0,0,0,0,0
1632,1765915508954,-102,-850,117,0,0,0,0,0
1633,1765915509104,-57,-858,-113,0,0,0,0,0
1634,1765915509289,223,-727,96,0,0,0,0,0
1635,1765915509405,102,-793,-9,0,0,0,0,0
1636,1765915509672,14,-314,49,0,0,0,0,0
1637,1765915509754,69,-664,-23,0,0,0,0,0
1638,1765915509971,105,-683,87,0,0,0,0,0
1639,1765915510106,47,-765,17,0,0,0,0,0
1640,1765915510256,2,-815,75,0,0,0,0,0
1641,1765915510289,26,-318,-27,0,0,0,0,0
1642,1765915510422,-31,-264,81,0,0,0,0,0
1643,1765915510572,35,-324,89,0,0,0,0,0
1644,1765915510756,19,-247,57,0,0,0,0,0
1645,1765915510872,32,-192,77,0,0,0,0,0
1646,1765915511105,-2,-135,1,0,0,0,0,0
1647,1765915511205,-40,-148,30,0,0,0,0,0
1648,1765915511423,252,-136,3,0,0,0,0,0
1649,1765915511489,14,-110,96,0,0,0,0,0
1650,1765915511722,-27,-54,26,0,0,0,0,0
1651,1765915511806,-90,-48,-34,0,0,0,0,0
1652,1765915512039,-30,-32,17,0,0,0,0,0
1653,1765915512122,-19,-31,-25,0,0,0,0,0
1654,1765915512339,-2,-74,14,0,0,0,0,0
1655,1765915512355,57,-111,-37,0,0,0,0,0
1656,1765915512407,-18,-105,3,0,0,0,0,0
1657,1765915512656,3,-111,-29,0,0,0,0,0
1658,1765915512738,67,-97,75,0,0,0,0,0
1659,1765915512956,-72,-101,-6,0,0,0,0,0
1660,1765915513272,-22,-68,21,0,0,0,0,0
1661,1765915513372,-82,-74,-37,0,0,0,0,0
1662,1765915513555,-76,-63,5,0,0,0,0,0
1663,1765915513706,-20,-51,19,0,0,0,0,0
1664,1765915513873,-44,-35,39,0,0,0,0,0
1665,1765915513956,-7,-70,-38,0,0,0,0,0
1666,1765915514156,6,-66,12,0,0,0,0,0
1667,1765915514290,-73,-33,12,0,0,0,0,0
1668,1765915514456,-1,-16,8,0,0,0,0,0
1669,1765915514540,-7,-33,-11,0,0,0,0,0
1670,1765915514772,-65,-7,59,0,0,0,0,0
1671,1765915514856,-14,-3,-8,0,0,0,0,0
1672,1765915515056,8,-21,-14,0,0,0,0,0
1673,1765915515373,36,-25,17,0,0,0,0,0
1674,1765915515456,5,4,-37,0,0,0,0,0
1675,1765915515673,6,15,3,0,0,0,0,0
1676,1765915515789,3,5,22,0,0,0,0,0
1677,1765915515972,-2,14,-5,0,0,0,0,0
1678,1765915516039,67,21,28,0,0,0,0,0
1679,1765915516272,-51,9,-1,0,0,0,0,0
1680,1765915516356,27,36,-20,0,0,0,0,0
1681,1765915516523,-168,-7,-17,0,0,0,0,0
1682,1765915516640,49,41,0,0,0,0,0,0
1683,1765915516839,81,67,-5,0,0,0,0,0
1684,1765915516939,53,69,-87,0,0,0,0,0
1685,1765915517156,-86,67,86,0,0,0,0,0
1686,1765915517239,30,80,-62,0,0,0,0,0
1687,1765915517390,-74,54,48,0,0,0,0,0
1688,1765915517539,-3,69,-27,0,0,0,0,0
1689,1765915517706,-30,82,-50,0,0,0,0,0
1690,1765915517822,-29,89,14,0,0,0,0,0
1691,1765915517905,-7,84,-30,0,0,0,0,0
1692,1765915518139,12,36,-2,0,0,0,0,0
1693,1765915518223,12,29,6,0,0,0,0,0
1694,1765915518439,-14,26,-10,0,0,0,0,0
1695,1765915518556,-90,60,15,0,0,0,0,0
1696,1765915518589,17,28,-27,0,0,0,0,0
1697,1765915518773,2,7,46,0,0,0,0,0
1698,1765915518989,78,4,0,0,0,0,0,0
1699,1765915519073,44,16,11,0,0,0,0,0
1700,1765915519450,12,-52,21,0,0,0,0,0
1701,1765915519522,18,-29,-17,0,0,0,0,0
1702,1765915519639,2,-27,29,0,0,0,0,0
1703,1765915519873,-22,-62,17,0,0,0,0,0
1704,1765915519990,19,-25,24,0,0,0,0,0
1705,1765915520106,17,-22,-45,0,0,0,0,0
1706,1765915520222,-44,-10,4,0,0,0,0,0
1707,1765915520456,-2,-10,35,0,0,0,0,0
1708,1765915520556,-20,-2,-32,0,0,0,0,0
1709,1765915520789,20,9,-25,0,0,0,0,0
1710,1765915521039,28,3,-3,0,0,0,0,0
1711,1765915521156,-40,-4,-42,0,0,0,0,0
1712,1765915521323,-17,15,10,0,0,0,0,0
1713,1765915521606,58,-322,0,0,0,0,0,0
1714,1765915521756,-29,-435,-15,0,0,0,0,0
1715,1765915521906,6,-457,-2,0,0,0,0,0
1716,1765915522106,60,-486,-37,0,0,0,0,0
1717,1765915522172,15,-342,-20,0,0,0,0,0
1718,1765915522273,37,-296,88,0,0,0,0,0
1719,1765915522473,18,-292,-57,0,0,0,0,0
1720,1765915522639,44,-256,82,0,0,0,0,0
1721,1765915522773,32,-301,24,0,0,0,0,0
1722,1765915523056,-10,-318,48,0,0,0,0,0
1723,1765915523189,-48,-421,109,0,0,0,0,0
1724,1765915523339,80,-460,-136,0,0,0,0,0
1725,1765915523538,143,-477,158,0,0,0,0,0
1726,1765915523605,-4,-263,-29,0,0,0,0,0
1727,1765915523672,11,-227,-17,0,0,0,0,0
1728,1765915523923,45,-235,27,0,0,0,0,0
1729,1765915524006,45,-251,-13,0,0,0,0,0
1730,1765915524206,15,-259,-31,0,0,0,0,0
1731,1765915524489,33,-538,17,0,0,0,0,0
1732,1765915524572,37,-555,0,0,0,0,0,0
1733,1765915524773,-14,-526,90,0,0,0,0,0
1734,1765915524906,-3,-495,-4,0,0,0,0,0
1735,1765915525006,-28,-334,-34,0,0,0,0,0
1736,1765915525122,5,-398,-43,0,0,0,0,0
1737,1765915525339,37,-469,7,0,0,0,0,0
1738,1765915525438,63,-489,-59,0,0,0,0,0
1739,1765915525639,27,-555,23,0,0,0,0,0
1740,1765915525873,3,-784,-82,0,0,0,0,0
1741,1765915525973,215,-684,66,0,0,0,0,0
1742,1765915526205,90,-701,97,0,0,0,0,0
1743,1765915526289,-20,-747,137,0,0,0,0,0
1744,1765915526556,13,-523,73,0,0,0,0,0
1745,1765915526739,58,-580,-85,0,0,0,0,0
1746,1765915526840,58,-578,121,0,0,0,0,0
1747,1765915527090,-34,-664,-104,0,0,0,0,0
1748,1765915527123,-23,-268,36,0,0,0,0,0
1749,1765915527205,79,-211,-2,0,0,0,0,0
1750,1765915527406,35,-162,115,0,0,0,0,0
1751,1765915527588,52,-106,88,0,0,0,0,0
1752,1765915527705,-13,-68,36,0,0,0,0,0
1753,1765915527989,-55,-141,52,0,0,0,0,0
1754,1765915528056,-3,-143,-25,0,0,0,0,0
1755,1765915528255,-1,-154,3,0,0,0,0,0
1756,1765915528356,-8,-158,21,0,0,0,0,0
1757,1765915528589,19,-212,23,0,0,0,0,0
1758,1765915528789,-22,-236,-25,0,0,0,0,0
1759,1765915528873,31,-246,31,0,0,0,0,0
1760,1765915529123,-5,-226,-2,0,0,0,0,0
1761,1765915529223,-59,-222,18,0,0,0,0,0
1762,1765915529257,13,-173,66,0,0,0,0,0
1763,1765915529455,-12,-131,-34,0,0,0,0,0
1764,1765915529639,-26,-121,48,0,0,0,0,0
1765,1765915529738,42,-93,66,0,0,0,0,0
1766,1765915530006,27,12,-19,0,0,0,0,0
1767,1765915530105,-20,69,22,0,0,0,0,0
1768,1765915530387,-6,50,-9,0,0,0,0,0
1769,1765915530489,-20,71,2,0,0,0,0,0
1770,1765915530606,-20,100,59,0,0,0,0,0
1771,1765915530873,-10,229,16,0,0,0,0,0
1772,1765915530989,11,263,6,0,0,0,0,0
1773,1765915531172,68,270,-14,0,0,0,0,0
1774,1765915531325,-71,281,-33,0,0,0,0,0
1775,1765915531506,-13,193,-33,0,0,0,0,0
1776,1765915531689,-32,383,2,0,0,0,0,0
1777,1765915531789,-3,354,-12,0,0,0,0,0
1778,1765915532023,-13,373,-22,0,0,0,0,0
1779,1765915532056,-76,358,-1,0,0,0,0,0
1780,1765915532139,-30,345,-68,0,0,0,0,0
1781,1765915532356,63,363,-24,0,0,0,0,0
1782,1765915532473,33,394,-12,0,0,0,0,0
1783,1765915532639,-61,392,-1,0,0,0,0,0
1784,1765915532855,-112,658,-42,0,0,0,0,0
1785,1765915532972,32,547,13,0,0,0,0,0
1786,1765915533223,-32,565,-112,0,0,0,0,0
1787,1765915533289,-29,501,-12,0,0,0,0,0
1788,1765915533537,-78,627,-63,0,0,0,0,0
1789,1765915533674,-62,653,36,0,0,0,0,0
1790,1765915533836,-128,689,-130,0,0,0,0,0
1791,1765915534022,-84,685,-15,0,0,0,0,0
1792,1765915534139,-27,721,-135,0,0,0,0,0
1793,1765915534388,-40,714,-56,0,0,0,0,0
1794,1765915534455,-22,691,-35,0,0,0,0,0
1795,1765915534688,18,661,-30,0,0,0,0,0
1796,1765915534773,-32,689,-55,0,0,0,0,0
1797,1765915535005,-21,659,-66,0,0,0,0,0
1798,1765915535156,-72,673,-34,0,0,0,0,0
1799,1765915535305,-43,664,-33,0,0,0,0,0
1800,1765915535505,39,620,-65,0,0,0,0,0
1801,1765915535622,-47,611,-13,0,0,0,0,0
1802,1765915535871,18,601,-21,0,0,0,0,0
1803,1765915535939,1,593,-96,0,0,0,0,0
1804,1765915536172,-56,668,9,0,0,0,0,0
1805,1765915536356,-24,38,-57,0,0,0,0,0
1806,1765915536489,-10,-147,-33,0,0,0,0,0
1807,1765915536737,23,-155,33,0,0,0,0,0
1808,1765915536804,23,-226,5,0,0,0,0,0
1809,1765915537054,-2,-602,-17,0,0,0,0,0
1810,1765915537287,55,-613,17,0,0,0,0,0
1811,1765915537371,28,-657,20,0,0,0,0,0
1812,1765915537604,35,-683,59,0,0,0,0,0
1813,1765915537753,-2,-496,52,0,0,0,0,0
1814,1765915537920,21,-442,36,0,0,0,0,0
1815,1765915538087,46,-411,66,0,0,0,0,0
1816,1765915538220,58,-474,3,0,0,0,0,0
1817,1765915538453,84,-1023,80,0,0,0,0,0
1818,1765915538553,54,-1041,55,0,0,0,0,0
1819,1765915538788,44,-937,66,0,0,0,0,0
1820,1765915538871,-19,-574,219,0,0,0,0,0
1821,1765915539087,-2,104,16,0,0,0,0,0
1822,1765915539272,88,-499,63,0,0,0,0,0
1823,1765915539405,17,-520,61,0,0,0,0,0
1824,1765915539622,-21,-520,-8,0,0,0,0,0
1825,1765915539722,62,-512,6,0,0,0,0,0
1826,1765915539972,47,-687,-97,0,0,0,0,0
1827,1765915540156,122,-643,9,0,0,0,0,0
1828,1765915540256,-20,-587,92,0,0,0,0,0
1829,1765915540505,-68,-490,-29,0,0,0,0,0
1830,1765915540539,-5,-429,-21,0,0,0,0,0
1831,1765915540605,-18,-436,-9,0,0,0,0,0
1832,1765915540839,82,-456,-9,0,0,0,0,0
1833,1765915540955,37,-461,-12,0,0,0,0,0
1834,1765915541123,11,-382,57,0,0,0,0,0
1835,1765915541372,19,-301,31,0,0,0,0,0
1836,1765915541455,23,-298,0,0,0,0,0,0
1837,1765915541688,41,-299,18,0,0,0,0,0
1838,1765915541789,-32,-370,38,0,0,0,0,0
1839,1765915542006,14,-172,78,0,0,0,0,0
1840,1765915542203,31,-94,41,0,0,0,0,0
1841,1765915542321,46,-40,24,0,0,0,0,0
1842,1765915542555,-24,9,-24,0,0,0,0,0
1843,1765915542621,-6,69,41,0,0,0,0,0
1844,1765915542872,2,58,-16,0,0,0,0,0
1845,1765915543005,42,52,-53,0,0,0,0,0
1846,1765915543172,-37,22,19,0,0,0,0,0
1847,1765915543439,16,-52,-26,0,0,0,0,0
1848,1765915543506,-56,-90,-24,0,0,0,0,0
1849,1765915543739,28,-141,3,0,0,0,0,0
1850,1765915543856,28,-139,-44,0,0,0,0,0
1851,1765915544072,26,-166,66,0,0,0,0,0
1852,1765915544239,-12,-188,-45,0,0,0,0,0
1853,1765915544356,-16,-162,95,0,0,0,0,0
1854,1765915544605,47,-187,-80,0,0,0,0,0
1855,1765915544689,82,-147,113,0,0,0,0,0
1856,1765915544937,46,-81,-87,0,0,0,0,0
1857,1765915545020,-52,-92,83,0,0,0,0,0
1858,1765915545222,56,-61,-59,0,0,0,0,0
1859,1765915545355,123,-54,21,0,0,0,0,0
1860,1765915545539,-23,-48,25,0,0,0,0,0
1861,1765915545656,-68,-82,15,0,0,0,0,0
1862,1765915545839,64,-86,10,0,0,0,0,0
1863,1765915546005,9,-89,19,0,0,0,0,0
1864,1765915546156,-6,-209,106,0,0,0,0,0
1865,1765915546305,-75,-199,-126,0,0,0,0,0
1866,1765915546453,73,-180,89,0,0,0,0,0
1867,1765915546639,47,-114,-58,0,0,0,0,0
1868,1765915546737,-43,-77,70,0,0,0,0,0
1869,1765915546889,21,-391,8,0,0,0,0,0
1870,1765915547056,-75,-474,119,0,0,0,0,0
1871,1765915547222,47,-523,-40,0,0,0,0,0
1872,1765915547339,16,-531,160,0,0,0,0,0
1873,1765915547656,-54,-772,169,0,0,0,0,0
1874,1765915547822,-60,-732,-14,0,0,0,0,0
1875,1765915547939,115,-541,-3,0,0,0,0,0
1876,1765915548139,47,-596,259,0,0,0,0,0
1877,1765915548255,181,-486,87,0,0,0,0,0
1878,1765915548405,13,-608,102,0,0,0,0,0
1879,1765915548556,-74,-608,27,0,0,0,0,0
1880,1765915548723,55,-523,-7,0,0,0,0,0
1881,1765915548855,108,-533,133,0,0,0,0,0
1882,1765915548972,97,-497,61,0,0,0,0,0
1883,1765915549155,-10,-548,-34,0,0,0,0,0
1884,1765915549289,16,-575,118,0,0,0,0,0
1885,1765915549456,52,-600,-64,0,0,0,0,0
1886,1765915549755,17,-415,79,0,0,0,0,0
1887,1765915549856,63,-334,92,0,0,0,0,0
1888,1765915550055,-91,149,87,0,0,0,0,0
1889,1765915550169,-100,190,-50,0,0,0,0,0
1890,1765915550355,11,39,15,0,0,0,0,0
1891,1765915550420,-58,22,-7,0,0,0,0,0
1892,1765915550655,-1,26,-18,0,0,0,0,0
1893,1765915550737,-81,11,6,0,0,0,0,0
1894,1765915550955,-122,20,-15,0,0,0,0,0
1895,1765915551022,-67,-15,41,0,0,0,0,0
1896,1765915551222,-47,12,24,0,0,0,0,0
1897,1765915551322,7,15,43,0,0,0,0,0
1898,1765915551522,5,21,-9,0,0,0,0,0
1899,1765915551604,-21,-5,2,0,0,0,0,0
1900,1765915551772,-3,3,-24,0,0,0,0,0
1901,1765915551922,3,22,24,0,0,0,0,0
1902,1765915552072,11,19,-16,0,0,0,0,0
1903,1765915552255,-21,10,-70,0,0,0,0,0
1904,1765915552522,-12,-37,4,0,0,0,0,0
1905,1765915552622,-19,-31,-20,0,0,0,0,0
1906,1765915552805,22,13,36,0,0,0,0,0
1907,1765915552939,28,-3,-10,0,0,0,0,0
1908,1765915553122,-12,-28,2,0,0,0,0,0
1909,1765915553239,-5,-33,26,0,0,0,0,0
1910,1765915553422,15,2,19,0,0,0,0,0
1911,1765915553605,-36,-13,13,0,0,0,0,0
1912,1765915553724,-63,-15,16,0,0,0,0,0
1913,1765915553755,17,1,48,0,0,0,0,0
1914,1765915554005,32,-25,26,0,0,0,0,0
1915,1765915554139,16,-20,-43,0,0,0,0,0
1916,1765915554289,-67,-2,0,0,0,0,0,0
1917,1765915554572,-7,-9,6,0,0,0,0,0
1918,1765915554689,-10,-10,-44,0,0,0,0,0
1919,1765915554871,18,-10,-5,0,0,0,0,0
1920,1765915555056,-32,95,-30,0,0,0,0,0
1921,1765915555256,-4,119,1,0,0,0,0,0
1922,1765915555439,1,108,-47,0,0,0,0,0
1923,1765915555638,-31,74,6,0,0,0,0,0
1924,1765915555756,56,97,-5,0,0,0,0,0
1925,1765915556022,108,3,-6,0,0,0,0,0
1926,1765915556173,-15,-2,-32,0,0,0,0,0
1927,1765915556321,-10,29,27,0,0,0,0,0
1928,1765915556556,21,-7,-14,0,0,0,0,0
1929,1765915556588,27,-63,4,0,0,0,0,0
1930,1765915556688,-22,-59,31,0,0,0,0,0
1931,1765915556888,15,-65,49,0,0,0,0,0
1932,1765915557056,9,-112,-25,0,0,0,0,0
1933,1765915557189,9,-113,-18,0,0,0,0,0
1934,1765915557455,2,-13,44,0,0,0,0,0
1935,1765915557572,-1,14,-22,0,0,0,0,0
1936,1765915557755,-12,-12,3,0,0,0,0,0
1937,1765915557955,-44,-2,12,0,0,0,0,0
1938,1765915558039,11,14,1,0,0,0,0,0
1939,1765915558106,16,10,27,0,0,0,0,0
1940,1765915558322,-72,8,-18,0,0,0,0,0
1941,1765915558488,11,31,20,0,0,0,0,0
1942,1765915558622,36,30,-4,0,0,0,0,0
1943,1765915558905,4,31,-21,0,0,0,0,0
1944,1765915558989,-34,16,-19,0,0,0,0,0
1945,1765915559189,19,46,-6,0,0,0,0,0
1946,1765915559339,10,33,14,0,0,0,0,0
1947,1765915559439,-11,55,-20,0,0,0,0,0
1948,1765915559539,11,47,17,0,0,0,0,0
1949,1765915559756,-9,49,-3,0,0,0,0,0
1950,1765915559872,67,63,1,0,0,0,0,0
1951,1765915560070,-31,37,47,0,0,0,0,0
1952,1765915560289,29,33,0,0,0,0,0,0
1953,1765915560389,-24,35,12,0,0,0,0,0
1954,1765915560639,26,45,-39,0,0,0,0,0
1955,1765915560738,-43,39,16,0,0,0,0,0
1956,1765915560838,21,37,-13,0,0,0,0,0
1957,1765915560954,-41,42,20,0,0,0,0,0
1958,1765915561205,-39,43,1,0,0,0,0,0
1959,1765915561288,107,54,-31,0,0,0,0,0
1960,1765915561489,-25,37,-8,0,0,0,0,0
1961,1765915561723,-10,-70,37,0,0,0,0,0
1962,1765915561837,17,-95,16,0,0,0,0,0
1963,1765915562070,-51,-147,-18,0,0,0,0,0
1964,1765915562154,-12,-190,-23,0,0,0,0,0
1965,1765915562405,37,-123,4,0,0,0,0,0
1966,1765915562604,-22,-128,-25,0,0,0,0,0
1967,1765915562704,17,-133,9,0,0,0,0,0
1968,1765915562938,20,-98,35,0,0,0,0,0
1969,1765915562971,-7,-42,17,0,0,0,0,0
1970,1765915563198,6,-46,-6,0,0,0,0,0
1971,1765915563271,-8,-40,-15,0,0,0,0,0
1972,1765915563504,-14,-22,12,0,0,0,0,0
1973,1765915563555,-7,-15,2,0,0,0,0,0
1974,1765915563838,-8,5,-2,0,0,0,0,0
1975,1765915564021,-4,9,2,0,0,0,0,0
1976,1765915564138,-9,6,5,0,0,0,0,0
1977,1765915564371,-8,8,-1,0,0,0,0,0
1978,1765915564421,-9,7,2,0,0,0,0,0
1979,1765915564505,-2,10,1,0,0,0,0,0
1980,1765915564704,-5,9,0,0,0,0,0,0
1981,1765915564888,-7,9,3,0,0,0,0,0
1982,1765915565004,-1,9,2,0,0,0,0,0
1983,1765915565271,-4,9,1,0,0,0,0,0
1984,1765915565354,-3,9,1,0,0,0,0,0
1985,1765915565571,-3,6,2,0,0,0,0,0
1986,1765915565721,-6,8,2,0,0,0,0,0
1987,1765915565904,-2,7,1,0,0,0,0,0
1988,1765915566122,-5,10,4,0,0,0,0,0
1989,1765915566188,-6,10,2,0,0,0,0,0
1990,1765915566438,-6,10,1,0,0,0,0,0
1991,1765915566638,-11,9,3,0,0,0,0,0
1992,1765915566771,-7,11,-8,0,0,0,0,0
1993,1765915566988,-9,3,7,0,0,0,0,0
1994,1765915567054,2,17,3,0,0,0,0,0
1995,1765915567338,-9,8,2,0,0,0,0,0
1996,1765915567489,-2,7,1,0,0,0,0,0
1997,1765915567622,-9,11,0,0,0,0,0,0
1998,1765915567854,-3,9,1,0,0,0,0,0
1999,1765915568004,-6,7,3,0,0,0,0,0
2000,1765915568205,-7,8,3,0,0,0,0,0
2001,1765915568355,-3,10,3,0,0,0,0,0
2002,1765915568487,-8,11,0,0,0,0,0,0
2003,1765915568771,-5,10,2,0,0,0,0,0
2004,1765915568838,-4,10,2,0,0,0,0,0
2005,1765915569054,-7,8,2,0,0,0,0,0
2006,1765915569188,-4,11,1,0,0,0,0,0
2007,1765915569388,-3,8,1,0,0,0,0,0
2008,1765915569571,-4,8,1,0,0,0,0,0
2009,1765915569686,-6,9,2,0,0,0,0,0
2010,1765915569921,-2,10,0,0,0,0,0,0
2011,1765915570005,-6,8,1,0,0,0,0,0
2012,1765915570072,-4,10,0,0,0,0,0,0
2013,1765915570255,-7,7,3,0,0,0,0,0
2014,1765915570421,-6,9,1,0,0,0,0,0
2015,1765915570555,-8,7,0,0,0,0,0,0
2016,1765915570805,-5,9,2,0,0,0,0,0
2017,1765915570871,-6,8,1,0,0,0,0,0
2018,1765915571120,-5,9,0,0,0,0,0,0
2019,1765915571255,-6,8,3,0,0,0,0,0
2020,1765915571405,-6,9,2,0,0,0,0,0
2021,1765915571638,-6,9,1,0,0,0,0,0
2022,1765915571736,-6,9,2,0,0,0,0,0
2023,1765915571971,-4,10,2,0,0,0,0,0
2024,1765915572054,-7,8,2,0,0,0,0,0
2025,1765915572288,-6,9,1,0,0,0,0,0
2026,1765915572422,-6,10,2,0,0,0,0,0
2027,1765915572605,-6,8,0,0,0,0,0,0
2028,1765915572804,-6,7,1,0,0,0,0,0
2029,1765915572838,-6,9,1,0,0,0,0,0
2030,1765915572938,-7,8,1,0,0,0,0,0
2031,1765915573155,-3,8,1,0,0,0,0,0
2032,1765915573254,-4,9,2,0,0,0,0,0
2033,1765915573455,-4,10,1,0,0,0,0,0
2034,1765915573638,-5,8,1,0,0,0,0,0
2035,1765915573788,-5,10,3,0,0,0,0,0
2036,1765915574124,-6,9,2,0,0,0,0,0
2037,1765915574125,-4,8,1,0,0,0,0,0
2038,1765915574338,-5,9,1,0,0,0,0,0
2039,1765915574422,-1,10,1,0,0,0,0,0
2040,1765915574638,-9,8,0,0,0,0,0,0
2041,1765915574771,-5,8,2,0,0,0,0,0
2042,1765915574938,-4,9,1,0,0,0,0,0
2043,1765915575155,-6,8,2,0,0,0,0,0
2044,1765915575254,-8,9,1,0,0,0,0,0
2045,1765915575504,-5,8,2,0,0,0,0,0
2046,1765915575571,-4,10,1,0,0,0,0,0
2047,1765915575822,-4,6,1,0,0,0,0,0
2048,1765915575955,-6,8,1,0,0,0,0,0
2049,1765915576121,-5,8,1,0,0,0,0,0
2050,1765915576305,-4,10,2,0,0,0,0,0
2051,1765915576454,-6,9,0,0,0,0,0,0
2052,1765915576672,-6,8,2,0,0,0,0,0
2053,1765915576754,-7,8,0,0,0,0,0,0
2054,1765915576971,-5,9,2,0,0,0,0,0
2055,1765915577138,-5,9,1,0,0,0,0,0
2056,1765915577305,-6,8,1,0,0,0,0,0
2057,1765915577472,-3,8,2,0,0,0,0,0
2058,1765915577603,-5,9,1,0,0,0,0,0
2059,1765915577871,-6,8,1,0,0,0,0,0
2060,1765915577937,-5,9,1,0,0,0,0,0
2061,1765915578170,-5,9,3,0,0,0,0,0
2062,1765915578288,-5,9,1,0,0,0,0,0
2063,1765915578454,-6,9,1,0,0,0,0,0
2064,1765915578488,-4,9,3,0,0,0,0,0
2065,1765915578672,-6,8,3,0,0,0,0,0
2066,1765915578788,-5,6,3,0,0,0,0,0
2067,1765915579021,-4,10,2,0,0,0,0,0
2068,1765915579088,-7,9,1,0,0,0,0,0
2069,1765915579338,-4,7,2,0,0,0,0,0
2070,1765915579438,-6,10,1,0,0,0,0,0
2071,1765915579637,-5,8,2,0,0,0,0,0
2072,1765915579788,-6,9,1,0,0,0,0,0
2073,1765915579954,-6,7,3,0,0,0,0,0
2074,1765915580087,-5,10,3,0,0,0,0,0
2075,1765915580254,-6,9,2,0,0,0,0,0
2076,1765915580420,-4,9,0,0,0,0,0,0
2077,1765915580554,-5,8,2,0,0,0,0,0
2078,1765915580572,-6,8,2,0,0,0,0,0
2079,1765915580705,-9,8,2,0,0,0,0,0
2080,1765915580871,-3,9,1,0,0,0,0,0
2081,1765915581038,-7,8,0,0,0,0,0,0
2082,1765915581154,-6,9,1,0,0,0,0,0
2083,1765915581454,-7,10,0,0,0,0,0,0
2084,1765915581571,-5,8,2,0,0,0,0,0
2085,1765915581754,-4,9,2,0,0,0,0,0
2086,1765915581905,-6,8,2,0,0,0,0,0
2087,1765915582054,-5,10,1,0,0,0,0,0
2088,1765915582155,-6,9,1,0,0,0,0,0
2089,1765915582355,-4,9,2,0,0,0,0,0
2090,1765915582471,-6,9,3,0,0,0,0,0
2091,1765915582671,-6,8,1,0,0,0,0,0
2092,1765915582737,-5,9,0,0,0,0,0,0
2093,1765915582954,-7,7,1,0,0,0,0,0
2094,1765915583054,-3,9,2,0,0,0,0,0
2095,1765915583254,-7,9,3,0,0,0,0,0
2096,1765915583554,-4,8,1,0,0,0,0,0
2097,1765915583655,-5,9,2,0,0,0,0,0
2098,1765915583854,-5,9,1,0,0,0,0,0
2099,1765915583971,-5,9,1,0,0,0,0,0
2100,1765915584155,-4,9,2,0,0,0,0,0
2101,1765915584222,-6,9,2,0,0,0,0,0
2102,1765915584454,-4,8,3,0,0,0,0,0
2103,1765915584538,-6,7,1,0,0,0,0,0
2104,1765915584721,-5,10,2,0,0,0,0,0
2105,1765915584821,-6,9,1,0,0,0,0,0
2106,1765915585059,-6,9,2,0,0,0,0,0
2107,1765915585120,-4,8,2,0,0,0,0,0
2108,1765915585338,-5,8,2,0,0,0,0,0
2109,1765915585422,-6,9,4,0,0,0,0,0
2110,1765915585571,-4,9,2,0,0,0,0,0
2111,1765915585721,-4,9,1,0,0,0,0,0
2112,1765915585888,-7,9,2,0,0,0,0,0
2113,1765915586021,-3,8,3,0,0,0,0,0
2114,1765915586104,-4,8,1,0,0,0,0,0
2115,1765915586321,-8,9,2,0,0,0,0,0
2116,1765915586437,-3,7,2,0,0,0,0,0
2117,1765915586604,-8,9,2,0,0,0,0,0
2118,1765915586721,-4,8,2,0,0,0,0,0
2119,1765915586888,-3,10,2,0,0,0,0,0
2120,1765915586988,-9,8,2,0,0,0,0,0
2121,1765915587171,-3,9,1,0,0,0,0,0
2122,1765915587271,-5,9,1,0,0,0,0,0
2123,1765915587571,-5,8,1,0,0,0,0,0
2124,1765915587688,-6,9,2,0,0,0,0,0
2125,1765915587871,-6,7,3,0,0,0,0,0
2126,1765915588019,-6,9,1,0,0,0,0,0
2127,1765915588188,-6,9,1,0,0,0,0,0
2128,1765915588321,-5,8,3,0,0,0,0,0
2129,1765915588471,-5,9,2,0,0,0,0,0
2130,1765915588654,-4,8,2,0,0,0,0,0
2131,1765915588771,-8,9,2,0,0,0,0,0
2132,1765915589038,-14,10,7,0,0,0,0,0
2133,1765915589154,3,10,0,0,0,0,0,0
2134,1765915589337,0,8,-2,0,0,0,0,0
2135,1765915589521,-5,8,1,0,0,0,0,0
2136,1765915589671,-5,8,2,0,0,0,0,0
2137,1765915589905,-6,9,1,0,0,0,0,0
2138,1765915589971,-4,9,2,0,0,0,0,0
2139,1765915590204,-5,8,1,0,0,0,0,0
2140,1765915590404,-4,9,2,0,0,0,0,0
2141,1765915590538,-4,9,1,0,0,0,0,0
2142,1765915590771,-3,9,1,0,0,0,0,0
2143,1765915590854,-5,9,2,0,0,0,0,0
2144,1765915591104,-5,9,0,0,0,0,0,0
2145,1765915591305,-6,9,2,0,0,0,0,0
2146,1765915591404,-5,8,2,0,0,0,0,0
2147,1765915591654,-7,9,1,0,0,0,0,0
2148,1765915591688,-4,8,1,0,0,0,0,0
2149,1765915591804,-5,9,1,0,0,0,0,0
2150,1765915591971,-4,9,1,0,0,0,0,0
2151,1765915592154,-4,10,1,0,0,0,0,0
2152,1765915592269,-6,9,1,0,0,0,0,0
2153,1765915592538,-6,8,2,0,0,0,0,0
2154,1765915592671,-6,10,1,0,0,0,0,0
2155,1765915592838,-4,8,1,0,0,0,0,0
2156,1765915593021,-5,8,1,0,0,0,0,0
2157,1765915593105,-5,9,0,0,0,0,0,0
2158,1765915593171,-5,8,1,0,0,0,0,0
2159,1765915593404,-5,8,1,0,0,0,0,0
2160,1765915593538,-5,10,1,0,0,0,0,0
2161,1765915593704,-5,8,0,0,0,0,0,0
2162,1765915593970,-7,9,2,0,0,0,0,0
2163,1765915594055,-6,8,1,0,0,0,0,0
2164,1765915594271,-4,7,2,0,0,0,0,0
2165,1765915594405,-4,8,1,0,0,0,0,0
2166,1765915594604,-5,9,1,0,0,0,0,0
2167,1765915594854,-5,7,2,0,0,0,0,0
2168,1765915594920,-4,9,1,0,0,0,0,0
2169,1765915595137,-5,8,1,0,0,0,0,0
2170,1765915595355,-14,8,2,0,0,0,0,0
2171,1765915595471,-4,10,1,0,0,0,0,0
2172,1765915595687,-7,8,1,0,0,0,0,0
2173,1765915595770,0,8,2,0,0,0,0,0
2174,1765915596037,-3,8,1,0,0,0,0,0
2175,1765915596222,-5,8,1,0,0,0,0,0
2176,1765915596338,-4,9,1,0,0,0,0,0
2177,1765915596571,-3,9,0,0,0,0,0,0
2178,1765915596621,-7,8,0,0,0,0,0,0
2179,1765915596721,-6,9,1,0,0,0,0,0
2180,1765915596904,-4,9,1,0,0,0,0,0
2181,1765915597088,-4,10,1,0,0,0,0,0
2182,1765915597205,-6,9,1,0,0,0,0,0
2183,1765915597487,-5,8,3,0,0,0,0,0
2184,1765915597587,-4,8,2,0,0,0,0,0
2185,1765915597771,-5,10,1,0,0,0,0,0
2186,1765915597955,-5,8,1,0,0,0,0,0
2187,1765915598104,-5,8,1,0,0,0,0,0
2188,1765915598338,-5,9,0,0,0,0,0,0
2189,1765915598487,-5,8,-1,0,0,0,0,0
2190,1765915598637,-5,10,3,0,0,0,0,0
2191,1765915598921,-5,9,1,0,0,0,0,0
2192,1765915598971,-4,9,3,0,0,0,0,0
2193,1765915599204,-5,8,2,0,0,0,0,0
2194,1765915599338,-5,8,1,0,0,0,0,0
2195,1765915599537,-6,9,1,0,0,0,0,0
2196,1765915599738,-4,8,2,0,0,0,0,0
2197,1765915599838,-6,10,2,0,0,0,0,0
2198,1765915600071,-4,10,1,0,0,0,0,0
2199,1765915600154,-5,6,2,0,0,0,0,0
2200,1765915600388,-7,9,1,0,0,0,0,0
2201,1765915600503,-4,8,2,0,0,0,0,0
2202,1765915600688,-6,10,2,0,0,0,0,0
2203,1765915600821,-4,9,1,0,0,0,0,0
2204,1765915601004,-6,7,1,0,0,0,0,0
2205,1765915601171,-5,10,2,0,0,0,0,0
2206,1765915601288,-5,9,1,0,0,0,0,0
2207,1765915601520,-6,9,2,0,0,0,0,0
2208,1765915601621,-5,9,1,0,0,0,0,0
2209,1765915601871,-6,8,1,0,0,0,0,0
2210,1765915601955,-9,8,1,0,0,0,0,0
2211,1765915602154,-4,9,1,0,0,0,0,0
2212,1765915602287,-6,11,2,0,0,0,0,0
2213,1765915602471,-5,9,2,0,0,0,0,0
2214,1765915602636,-6,8,1,0,0,0,0,0
2215,1765915602771,-4,8,0,0,0,0,0,0
2216,1765915602971,-3,9,3,0,0,0,0,0
2217,1765915602971,-6,9,1,0,0,0,0,0
2218,1765915603104,-5,9,0,0,0,0,0,0
2219,1765915603321,-5,9,1,0,0,0,0,0
2220,1765915603404,-6,8,2,0,0,0,0,0
2221,1765915603620,-5,8,2,0,0,0,0,0
2222,1765915603654,-6,9,1,0,0,0,0,0
2223,1765915603737,-5,10,1,0,0,0,0,0
2224,1765915603954,-5,9,2,0,0,0,0,0
2225,1765915604088,-8,9,3,0,0,0,0,0
2226,1765915604254,-6,9,1,0,0,0,0,0
2227,1765915604421,1,12,-1,0,0,0,0,0
2228,1765915604554,-2,5,1,0,0,0,0,0
2229,1765915604771,-7,13,3,0,0,0,0,0
2230,1765915604854,-6,11,2,0,0,0,0,0
2231,1765915605104,-6,7,1,0,0,0,0,0
2232,1765915605187,-2,10,2,0,0,0,0,0
2233,1765915605421,-5,10,3,0,0,0,0,0
2234,1765915605521,-5,10,1,0,0,0,0,0
2235,1765915605704,-5,6,0,0,0,0,0,0
2236,1765915605837,-4,11,1,0,0,0,0,0
2237,1765915606038,-5,9,2,0,0,0,0,0
2238,1765915606171,-5,8,1,0,0,0,0,0
2239,1765915606338,-7,9,0,0,0,0,0,0
2240,1765915606504,-4,7,2,0,0,0,0,0
2241,1765915606653,-6,9,2,0,0,0,0,0
2242,1765915606942,-6,9,2,0,0,0,0,0
2243,1765915606952,-6,8,1,0,0,0,0,0
2244,1765915607188,-6,7,2,0,0,0,0,0
2245,1765915607271,-5,8,3,0,0,0,0,0
2246,1765915607503,-4,8,1,0,0,0,0,0
2247,1765915607604,-5,10,2,0,0,0,0,0
2248,1765915607787,-5,9,1,0,0,0,0,0
2249,1765915607954,-7,9,2,0,0,0,0,0
2250,1765915608121,-5,8,3,0,0,0,0,0
2251,1765915608288,-7,9,2,0,0,0,0,0
2252,1765915608420,-4,10,1,0,0,0,0,0
2253,1765915608604,-7,9,1,0,0,0,0,0
2254,1765915608720,-5,8,0,0,0,0,0,0
2255,1765915608938,-5,9,1,0,0,0,0,0
2256,1765915609021,-2,7,1,0,0,0,0,0
2257,1765915609271,-9,10,1,0,0,0,0,0
2258,1765915609337,-4,8,2,0,0,0,0,0
2259,1765915609571,-8,9,3,0,0,0,0,0
2260,1765915609688,-4,9,2,0,0,0,0,0
2261,1765915609871,-5,9,1,0,0,0,0,0
2262,1765915610021,-6,7,2,0,0,0,0,0
2263,1765915610187,-5,9,1,0,0,0,0,0
2264,1765915610354,-5,8,2,0,0,0,0,0
2265,1765915610486,-6,10,1,0,0,0,0,0
2266,1765915610688,-7,10,2,0,0,0,0,0
2267,1765915610804,-5,9,1,0,0,0,0,0
2268,1765915611022,-3,9,0,0,0,0,0,0
2269,1765915611104,-5,8,2,0,0,0,0,0
2270,1765915611338,-6,8,2,0,0,0,0,0
2271,1765915611371,-5,8,2,0,0,0,0,0
2272,1765915611421,-7,9,0,0,0,0,0,0
2273,1765915611669,-5,8,1,0,0,0,0,0
2274,1765915611752,-5,8,2,0,0,0,0,0
2275,1765915611953,-5,10,2,0,0,0,0,0
2276,1765915612103,-7,7,1,0,0,0,0,0
2277,1765915612270,-4,8,1,0,0,0,0,0
2278,1765915612437,-5,9,1,0,0,0,0,0
2279,1765915612571,-4,9,1,0,0,0,0,0
2280,1765915612802,-6,10,2,0,0,0,0,0
2281,1765915612886,-5,8,0,0,0,0,0,0
2282,1765915613119,-4,9,2,0,0,0,0,0
2283,1765915613186,-4,8,2,0,0,0,0,0
2284,1765915613420,-5,8,2,0,0,0,0,0
2285,1765915613536,-3,9,1,0,0,0,0,0
2286,1765915613737,-3,8,2,0,0,0,0,0
2287,1765915613871,-7,9,2,0,0,0,0,0
2288,1765915614038,-4,8,1,0,0,0,0,0
2289,1765915614188,-5,7,2,0,0,0,0,0
2290,1765915614353,-5,10,1,0,0,0,0,0
2291,1765915614504,-5,8,2,0,0,0,0,0
2292,1765915614638,-3,8,2,0,0,0,0,0
2293,1765915614821,-4,9,2,0,0,0,0,0
2294,1765915614954,-5,8,2,0,0,0,0,0
2295,1765915615054,-6,9,1,0,0,0,0,0
2296,1765915615237,-5,9,0,0,0,0,0,0
2297,1765915615370,-4,9,1,0,0,0,0,0
2298,1765915615604,-6,8,3,0,0,0,0,0
2299,1765915615787,-6,8,1,0,0,0,0,0
2300,1765915615904,-5,8,2,0,0,0,0,0
2301,1765915616104,-5,9,2,0,0,0,0,0
2302,1765915616187,-5,8,2,0,0,0,0,0
2303,1765915616204,-4,9,2,0,0,0,0,0
2304,1765915616321,-4,9,1,0,0,0,0,0
2305,1765915616487,-4,10,2,0,0,0,0,0
2306,1765915616620,-5,8,1,0,0,0,0,0
2307,1765915616771,-5,8,1,0,0,0,0,0
2308,1765915617037,-4,9,0,0,0,0,0,0
2309,1765915617137,-5,8,1,0,0,0,0,0
2310,1765915617337,-6,8,2,0,0,0,0,0
2311,1765915617438,-3,9,2,0,0,0,0,0
2312,1765915617687,-6,9,2,0,0,0,0,0
2313,1765915617871,-6,11,2,0,0,0,0,0
2314,1765915618004,-5,9,1,0,0,0,0,0
2315,1765915618071,-5,9,2,0,0,0,0,0
2316,1765915618354,-3,10,1,0,0,0,0,0
2317,1765915618437,-5,8,2,0,0,0,0,0
2318,1765915618653,-5,9,2,0,0,0,0,0
2319,1765915618720,-4,8,1,0,0,0,0,0
2320,1765915619004,-6,10,2,0,0,0,0,0
2321,1765915619104,-5,9,1,0,0,0,0,0
2322,1765915619304,-5,8,1,0,0,0,0,0
2323,1765915619387,-5,9,2,0,0,0,0,0
2324,1765915619654,-8,9,2,0,0,0,0,0
2325,1765915619771,-7,9,0,0,0,0,0,0
2326,1765915619954,-6,8,2,0,0,0,0,0
2327,1765915620070,-4,9,1,0,0,0,0,0
2328,1765915620237,-6,9,2,0,0,0,0,0
2329,1765915620303,-5,9,1,0,0,0,0,0
2330,1765915620437,-5,9,3,0,0,0,0,0
2331,1765915620587,-5,8,1,0,0,0,0,0
2332,1765915620754,-6,8,2,0,0,0,0,0
2333,1765915620871,-5,10,1,0,0,0,0,0
2334,1765915621088,-5,8,1,0,0,0,0,0
2335,1765915621237,-4,8,2,0,0,0,0,0
2336,1765915621404,-6,10,1,0,0,0,0,0
2337,1765915621520,-4,8,2,0,0,0,0,0
2338,1765915621737,-5,9,1,0,0,0,0,0
2339,1765915621887,-5,8,2,0,0,0,0,0
2340,1765915622018,-5,9,1,0,0,0,0,0
2341,1765915622171,-5,8,1,0,0,0,0,0
2342,1765915622387,-5,10,2,0,0,0,0,0
2343,1765915622521,-5,9,1,0,0,0,0,0
2344,1765915622671,-7,8,2,0,0,0,0,0
2345,1765915622804,-6,9,2,0,0,0,0,0
2346,1765915623121,-4,8,2,0,0,0,0,0
2347,1765915623203,-4,7,1,0,0,0,0,0
2348,1765915623404,-4,7,2,0,0,0,0,0
2349,1765915623537,-4,9,1,0,0,0,0,0
2350,1765915623737,-6,9,1,0,0,0,0,0
2351,1765915623837,-5,9,2,0,0,0,0,0
2352,1765915624021,-5,9,2,0,0,0,0,0
2353,1765915624170,-6,9,1,0,0,0,0,0
2354,1765915624321,-6,9,1,0,0,0,0,0
2355,1765915624487,-4,8,2,0,0,0,0,0
2356,1765915624638,-5,9,1,0,0,0,0,0
2357,1765915624804,-4,9,1,0,0,0,0,0
2358,1765915624937,-7,9,1,0,0,0,0,0
2359,1765915625087,-4,9,1,0,0,0,0,0
2360,1765915625254,-6,8,2,0,0,0,0,0
2361,1765915625436,-6,10,1,0,0,0,0,0
2362,1765915625538,-5,8,1,0,0,0,0,0
2363,1765915625854,-6,9,2,0,0,0,0,0
2364,1765915626038,-5,9,1,0,0,0,0,0
2365,1765915626154,-7,8,1,0,0,0,0,0
2366,1765915626387,-5,9,1,0,0,0,0,0
2367,1765915626470,-6,9,2,0,0,0,0,0
2368,1765915626704,-3,8,2,0,0,0,0,0
2369,1765915626787,-5,9,1,0,0,0,0,0
2370,1765915627004,-5,8,1,0,0,0,0,0
2371,1765915627321,-6,8,2,0,0,0,0,0
2372,1765915627454,-4,9,2,0,0,0,0,0
2373,1765915627620,-5,8,1,0,0,0,0,0
2374,1765915627787,-5,9,1,0,0,0,0,0
2375,1765915627937,-6,9,0,0,0,0,0,0
2376,1765915628085,-5,9,1,0,0,0,0,0
2377,1765915628237,-6,9,2,0,0,0,0,0
2378,1765915628421,-5,9,2,0,0,0,0,0
2379,1765915628554,-5,9,2,0,0,0,0,0
2380,1765915628801,-6,8,2,0,0,0,0,0
2381,1765915628836,-4,10,2,0,0,0,0,0
2382,1765915629037,-6,9,1,0,0,0,0,0
2383,1765915629137,-5,9,1,0,0,0,0,0
2384,1765915629320,-6,7,2,0,0,0,0,0
2385,1765915629437,-6,9,1,0,0,0,0,0
2386,1765915629669,-5,9,1,0,0,0,0,0
2387,1765915629737,-5,8,1,0,0,0,0,0
2388,1765915629971,-7,10,1,0,0,0,0,0
2389,1765915630054,-6,8,2,0,0,0,0,0
2390,1765915630287,-3,9,1,0,0,0,0,0
2391,1765915630370,-6,8,1,0,0,0,0,0
2392,1765915630587,-5,10,1,0,0,0,0,0
2393,1765915630603,-4,10,1,0,0,0,0,0
2394,1765915630671,-4,8,1,0,0,0,0,0
2395,1765915630904,-4,8,2,0,0,0,0,0
2396,1765915630987,-5,8,0,0,0,0,0,0
2397,1765915631188,-6,9,1,0,0,0,0,0
2398,1765915631504,-6,8,1,0,0,0,0,0
2399,1765915631620,-8,8,2,0,0,0,0,0
2400,1765915631803,-8,9,2,0,0,0,0,0
2401,1765915631954,-6,9,1,0,0,0,0,0
2402,1765915632120,-6,9,2,0,0,0,0,0
2403,1765915632236,-5,8,2,0,0,0,0,0
2404,1765915632421,-5,8,2,0,0,0,0,0
2405,1765915632586,-6,9,1,0,0,0,0,0
2406,1765915632738,-7,8,2,0,0,0,0,0
2407,1765915632904,-6,8,2,0,0,0,0,0
2408,1765915633021,-5,9,2,0,0,0,0,0
2409,1765915633254,-6,9,1,0,0,0,0,0
2410,1765915633320,-3,8,1,0,0,0,0,0
2411,1765915633520,-5,10,2,0,0,0,0,0
2412,1765915633637,-6,7,2,0,0,0,0,0
2413,1765915633871,-6,8,2,0,0,0,0,0
2414,1765915633936,-6,9,2,0,0,0,0,0
2415,1765915634171,-6,7,1,0,0,0,0,0
2416,1765915634253,-5,9,2,0,0,0,0,0
2417,1765915634487,-6,8,3,0,0,0,0,0
2418,1765915634554,-4,10,2,0,0,0,0,0
2419,1765915634804,-5,8,1,0,0,0,0,0
2420,1765915634870,-5,9,2,0,0,0,0,0
2421,1765915635104,-5,9,1,0,0,0,0,0
2422,1765915635187,-4,8,1,0,0,0,0,0
2423,1765915635404,-5,8,0,0,0,0,0,0
2424,1765915635537,-6,8,0,0,0,0,0,0
2425,1765915635720,-3,9,2,0,0,0,0,0
2426,1765915635871,-4,9,2,0,0,0,0,0
2427,1765915636021,-5,9,2,0,0,0,0,0
2428,1765915636220,-6,10,1,0,0,0,0,0
2429,1765915636337,-6,8,1,0,0,0,0,0
2430,1765915636554,-6,10,2,0,0,0,0,0
2431,1765915636637,-6,9,2,0,0,0,0,0
2432,1765915636871,-4,6,5,0,0,0,0,0
2433,1765915636954,-6,9,-1,0,0,0,0,0
2434,1765915637187,-7,9,0,0,0,0,0,0
2435,1765915637271,-4,8,2,0,0,0,0,0
2436,1765915637471,-5,8,3,0,0,0,0,0
2437,1765915637587,-5,8,1,0,0,0,0,0
2438,1765915637804,-5,9,1,0,0,0,0,0
2439,1765915637921,-7,9,2,0,0,0,0,0
2440,1765915638104,-5,8,2,0,0,0,0,0
2441,1765915638420,-7,9,1,0,0,0,0,0
2442,1765915638587,-6,8,1,0,0,0,0,0
2443,1765915638704,-7,10,2,0,0,0,0,0
2444,1765915638904,-4,9,2,0,0,0,0,0
2445,1765915639020,-4,8,2,0,0,0,0,0
2446,1765915639237,-4,8,0,0,0,0,0,0
2447,1765915639320,-6,10,2,0,0,0,0,0
2448,1765915639553,-5,8,2,0,0,0,0,0
2449,1765915639733,-4,8,1,0,0,0,0,0
2450,1765915639870,-6,10,1,0,0,0,0,0
2451,1765915639937,-5,7,1,0,0,0,0,0
2452,1765915640170,-6,8,1,0,0,0,0,0
2453,1765915640271,-5,9,2,0,0,0,0,0
2454,1765915640487,-5,8,2,0,0,0,0,0
2455,1765915640571,-5,8,2,0,0,0,0,0
2456,1765915640787,-5,9,2,0,0,0,0,0
2457,1765915640904,-5,8,0,0,0,0,0,0
2458,1765915641087,-8,9,2,0,0,0,0,0
2459,1765915641221,-6,9,2,0,0,0,0,0
2460,1765915641404,-4,10,2,0,0,0,0,0
2461,1765915641571,-5,11,2,0,0,0,0,0
2462,1765915641704,-5,8,2,0,0,0,0,0
2463,1765915641904,-5,8,2,0,0,0,0,0
2464,1765915641987,-7,9,1,0,0,0,0,0
2465,1765915642087,-6,10,2,0,0,0,0,0
2466,1765915642205,-5,9,3,0,0,0,0,0
2467,1765915642371,-6,9,2,0,0,0,0,0
2468,1765915642487,-5,8,1,0,0,0,0,0
2469,1765915642687,-5,8,2,0,0,0,0,0
2470,1765915642837,-6,8,1,0,0,0,0,0
2471,1765915642987,-6,9,1,0,0,0,0,0
2472,1765915643121,-6,9,1,0,0,0,0,0
2473,1765915643287,-3,7,1,0,0,0,0,0
2474,1765915643470,-5,8,2,0,0,0,0,0
2475,1765915643637,-5,9,1,0,0,0,0,0
2476,1765915643770,-6,9,2,0,0,0,0,0
2477,1765915643920,-5,9,1,0,0,0,0,0
2478,1765915644054,-5,9,1,0,0,0,0,0
2479,1765915644120,-4,9,2,0,0,0,0,0
2480,1765915644270,-6,10,1,0,0,0,0,0
2481,1765915644404,-5,9,1,0,0,0,0,0
2482,1765915644554,-5,9,1,0,0,0,0,0
2483,1765915644687,-7,11,2,0,0,0,0,0
2484,1765915644753,-6,10,2,0,0,0,0,0
2485,1765915644854,-5,9,2,0,0,0,0,0
2486,1765915645035,-7,9,1,0,0,0,0,0
2487,1765915645135,-6,9,2,0,0,0,0,0
2488,1765915645320,-6,7,2,0,0,0,0,0
2489,1765915645420,-5,9,1,0,0,0,0,0
2490,1765915645454,-6,10,1,0,0,0,0,0
2491,1765915645654,-4,10,1,0,0,0,0,0
2492,1765915645737,-6,9,2,0,0,0,0,0
2493,1765915645920,-6,10,1,0,0,0,0,0
2494,1765915646020,-5,8,2,0,0,0,0,0
2495,1765915646237,-6,9,2,0,0,0,0,0
2496,1765915646370,-5,9,2,0,0,0,0,0
2497,1765915646520,-5,9,3,0,0,0,0,0
2498,1765915646654,-5,10,1,0,0,0,0,0
2499,1765915646837,-5,9,1,0,0,0,0,0
2500,1765915647004,-5,9,1,0,0,0,0,0
2501,1765915647136,-6,9,2,0,0,0,0,0
2502,1765915647286,-5,9,1,0,0,0,0,0
2503,1765915647420,-5,10,1,0,0,0,0,0
2504,1765915647437,-5,8,1,0,0,0,0,0
2505,1765915647637,-5,8,2,0,0,0,0,0
2506,1765915647720,-5,8,0,0,0,0,0,0
2507,1765915647921,-5,9,2,0,0,0,0,0
2508,1765915648004,-6,7,1,0,0,0,0,0
2509,1765915648220,-6,9,2,0,0,0,0,0
2510,1765915648320,-6,9,1,0,0,0,0,0
2511,1765915648487,-6,9,0,0,0,0,0,0
2512,1765915648620,-6,8,1,0,0,0,0,0
2513,1765915648803,-5,9,1,0,0,0,0,0
2514,1765915648953,-5,8,2,0,0,0,0,0
2515,1765915649070,-5,10,1,0,0,0,0,0
2516,1765915649253,-6,10,2,0,0,0,0,0
2517,1765915649354,-4,9,2,0,0,0,0,0
2518,1765915649586,-6,9,1,0,0,0,0,0
2519,1765915649653,-6,8,1,0,0,0,0,0
2520,1765915649887,-6,7,1,0,0,0,0,0
2521,1765915649954,-5,7,1,0,0,0,0,0
2522,1765915650237,-5,10,2,0,0,0,0,0
2523,1765915650387,-6,9,1,0,0,0,0,0
2524,1765915650673,-5,8,1,0,0,0,0,0
2525,1765915650719,-5,8,2,0,0,0,0,0
2526,1765915650853,-4,8,2,0,0,0,0,0
2527,1765915650969,-6,7,2,0,0,0,0,0
2528,1765915651136,-4,9,1,0,0,0,0,0
2529,1765915651287,-5,9,2,0,0,0,0,0
2530,1765915651437,-6,10,0,0,0,0,0,0
2531,1765915651570,-4,9,2,0,0,0,0,0
2532,1765915651754,-6,9,2,0,0,0,0,0
2533,1765915651903,-5,8,2,0,0,0,0,0
2534,1765915652054,-6,9,2,0,0,0,0,0
2535,1765915652204,-5,8,3,0,0,0,0,0
2536,1765915652370,-6,9,1,0,0,0,0,0
2537,1765915652520,-4,9,1,0,0,0,0,0
2538,1765915652654,-6,8,1,0,0,0,0,0
2539,1765915652970,-5,10,2,0,0,0,0,0
2540,1765915653153,-4,7,2,0,0,0,0,0
2541,1765915653271,-4,9,2,0,0,0,0,0
2542,1765915653487,-5,10,2,0,0,0,0,0
2543,1765915653588,-6,10,2,0,0,0,0,0
2544,1765915653803,-5,7,2,0,0,0,0,0
2545,1765915653887,-5,9,2,0,0,0,0,0
2546,1765915654104,-5,8,0,0,0,0,0,0
2547,1765915654187,-6,9,1,0,0,0,0,0
2548,1765915654419,-6,9,1,0,0,0,0,0
2549,1765915654487,-5,8,1,0,0,0,0,0
2550,1765915654719,-5,9,2,0,0,0,0,0
2551,1765915654835,-5,9,3,0,0,0,0,0
2552,1765915655035,-7,8,2,0,0,0,0,0
2553,1765915655119,-5,10,2,0,0,0,0,0
2554,1765915655337,-6,11,1,0,0,0,0,0
2555,1765915655437,-6,9,1,0,0,0,0,0
2556,1765915655654,-5,8,1,0,0,0,0,0
2557,1765915655735,-6,9,2,0,0,0,0,0
2558,1765915655953,-5,9,2,0,0,0,0,0
2559,1765915656071,-6,9,1,0,0,0,0,0
2560,1765915656235,-5,9,2,0,0,0,0,0
2561,1765915656387,-5,8,1,0,0,0,0,0
2562,1765915656553,-4,8,1,0,0,0,0,0
2563,1765915656720,-5,9,1,0,0,0,0,0
2564,1765915656853,-5,10,1,0,0,0,0,0
2565,1765915657170,-7,9,2,0,0,0,0,0
2566,1765915657337,-5,8,1,0,0,0,0,0
2567,1765915657470,-5,9,2,0,0,0,0,0
2568,1765915657670,-6,9,1,0,0,0,0,0
2569,1765915657786,-5,9,2,0,0,0,0,0
2570,1765915657954,-7,8,3,0,0,0,0,0
2571,1765915658070,-5,8,1,0,0,0,0,0
2572,1765915658303,-5,8,1,0,0,0,0,0
2573,1765915658370,-6,9,1,0,0,0,0,0
2574,1765915658585,-6,8,1,0,0,0,0,0
2575,1765915658670,-5,8,1,0,0,0,0,0
2576,1765915658920,-6,8,3,0,0,0,0,0
2577,1765915658970,-5,9,1,0,0,0,0,0
2578,1765915659220,-6,8,1,0,0,0,0,0
2579,1765915659304,-4,10,2,0,0,0,0,0
2580,1765915659537,-6,8,3,0,0,0,0,0
2581,1765915659603,-6,9,1,0,0,0,0,0
2582,1765915659853,-6,8,1,0,0,0,0,0
2583,1765915659920,-6,8,1,0,0,0,0,0
2584,1765915660137,-5,8,1,0,0,0,0,0
2585,1765915660270,-7,10,2,0,0,0,0,0
2586,1765915660436,-5,9,1,0,0,0,0,0
2587,1765915660554,-6,8,2,0,0,0,0,0
2588,1765915660753,-7,9,1,0,0,0,0,0
2589,1765915660886,-5,8,1,0,0,0,0,0
2590,1765915661053,-5,9,1,0,0,0,0,0
2591,1765915661203,-5,9,1,0,0,0,0,0
2592,1765915661370,-5,9,2,0,0,0,0,0
2593,1765915661626,-5,9,2,0,0,0,0,0
2594,1765915661668,-5,9,2,0,0,0,0,0
2595,1765915661870,-6,8,1,0,0,0,0,0
2596,1765915661986,-6,9,2,0,0,0,0,0
2597,1765915662170,-6,9,2,0,0,0,0,0
2598,1765915662270,-7,8,2,0,0,0,0,0
2599,1765915662487,-3,8,2,0,0,0,0,0
2600,1765915662603,-5,8,2,0,0,0,0,0
2601,1765915662803,-5,10,2,0,0,0,0,0
2602,1765915662887,-3,9,2,0,0,0,0,0
2603,1765915663120,-4,10,1,0,0,0,0,0
2604,1765915663204,-7,9,2,0,0,0,0,0
2605,1765915663453,-5,9,1,0,0,0,0,0
2606,1765915663520,-5,9,2,0,0,0,0,0
2607,1765915663737,-6,8,2,0,0,0,0,0
2608,1765915663837,-5,7,2,0,0,0,0,0
2609,1765915664054,-5,9,2,0,0,0,0,0
2610,1765915664186,-5,9,1,0,0,0,0,0
2611,1765915664353,-5,10,2,0,0,0,0,0
2612,1765915664519,-5,9,2,0,0,0,0,0
2613,1765915664653,-5,8,2,0,0,0,0,0
2614,1765915664670,-5,9,3,0,0,0,0,0
2615,1765915664820,-5,8,1,0,0,0,0,0
2616,1765915664970,-5,9,2,0,0,0,0,0
2617,1765915665153,-5,7,1,0,0,0,0,0
2618,1765915665270,-5,8,0,0,0,0,0,0
2619,1765915665453,-5,9,1,0,0,0,0,0
2620,1765915665586,-6,8,2,0,0,0,0,0
2621,1765915665770,-7,8,1,0,0,0,0,0
2622,1765915665870,-7,9,1,0,0,0,0,0
2623,1765915666087,-6,9,2,0,0,0,0,0
2624,1765915666185,-6,10,2,0,0,0,0,0
2625,1765915666420,-6,9,2,0,0,0,0,0
2626,1765915666503,-5,7,1,0,0,0,0,0
2627,1765915666720,-5,8,2,0,0,0,0,0
2628,1765915666753,-4,9,1,0,0,0,0,0
2629,1765915666803,-5,9,2,0,0,0,0,0
2630,1765915667035,-5,7,2,0,0,0,0,0
2631,1765915667120,-6,10,2,0,0,0,0,0
2632,1765915667336,-6,9,2,0,0,0,0,0
2633,1765915667653,-6,9,1,0,0,0,0,0
2634,1765915667753,-6,8,0,0,0,0,0,0
2635,1765915667937,-6,8,2,0,0,0,0,0
2636,1765915668087,-5,8,2,0,0,0,0,0
2637,1765915668253,-7,7,2,0,0,0,0,0
2638,1765915668386,-6,8,1,0,0,0,0,0
2639,1765915668553,-6,9,2,0,0,0,0,0
2640,1765915668704,-6,9,1,0,0,0,0,0
2641,1765915668870,-5,10,2,0,0,0,0,0
2642,1765915668987,-5,8,2,0,0,0,0,0
2643,1765915669170,-5,9,3,0,0,0,0,0
2644,1765915669320,-5,8,1,0,0,0,0,0
2645,1765915669454,-6,10,0,0,0,0,0,0
2646,1765915669603,-6,11,1,0,0,0,0,0
2647,1765915669770,-4,8,3,0,0,0,0,0
2648,1765915669936,-9,10,1,0,0,0,0,0
2649,1765915670070,-2,9,2,0,0,0,0,0
2650,1765915670254,-9,8,2,0,0,0,0,0
2651,1765915670370,-2,8,2,0,0,0,0,0
2652,1765915670603,-6,8,3,0,0,0,0,0
2653,1765915670670,-5,8,1,0,0,0,0,0
2654,1765915670786,-4,9,2,0,0,0,0,0
2655,1765915670853,-4,9,1,0,0,0,0,0
2656,1765915670903,-4,9,2,0,0,0,0,0
2657,1765915670970,-4,9,2,0,0,0,0,0
2658,1765915671020,-6,8,2,0,0,0,0,0
2659,1765915671087,-6,9,2,0,0,0,0,0
2660,1765915671136,-8,11,2,0,0,0,0,0
2661,1765915671204,-6,8,3,0,0,0,0,0
2662,1765915671269,-6,10,2,0,0,0,0,0
2663,1765915671336,-5,11,1,0,0,0,0,0
2664,1765915671387,-5,9,2,0,0,0,0,0
2665,1765915671453,-7,7,1,0,0,0,0,0
2666,1765915671503,-4,9,3,0,0,0,0,0
2667,1765915671571,-6,9,2,0,0,0,0,0
2668,1765915671619,-4,9,2,0,0,0,0,0
2669,1765915671687,-5,9,1,0,0,0,0,0
2670,1765915671753,-8,10,2,0,0,0,0,0
2671,1765915671870,-6,10,1,0,0,0,0,0
2672,1765915671920,-5,8,2,0,0,0,0,0
2673,1765915671987,-6,8,3,0,0,0,0,0
2674,1765915672036,-5,10,1,0,0,0,0,0
2675,1765915672101,-7,8,1,0,0,0,0,0
2676,1765915672153,-5,9,0,0,0,0,0,0
2677,1765915672220,-6,9,3,0,0,0,0,0
2678,1765915672287,-5,8,1,0,0,0,0,0
2679,1765915672353,-5,10,1,0,0,0,0,0
2680,1765915672543,-6,9,1,0,0,0,0,0
2681,1765915672545,-6,8,3,0,0,0,0,0
2682,1765915672551,-4,9,2,0,0,0,0,0
2683,1765915672586,-5,9,1,0,0,0,0,0
2684,1765915672636,-5,10,2,0,0,0,0,0
2685,1765915672703,-6,8,3,0,0,0,0,0
2686,1765915672754,-6,8,2,0,0,0,0,0
2687,1765915672820,-6,9,1,0,0,0,0,0
2688,1765915672887,-5,8,1,0,0,0,0,0
2689,1765915672953,-7,9,2,0,0,0,0,0
2690,1765915673004,-4,8,1,0,0,0,0,0
2691,1765915673070,-5,10,1,0,0,0,0,0
2692,1765915673136,-5,9,2,0,0,0,0,0
2693,1765915673187,-4,9,2,0,0,0,0,0
2694,1765915673253,-6,10,0,0,0,0,0,0
2695,1765915673303,-5,8,1,0,0,0,0,0
2696,1765915673370,-5,10,1,0,0,0,0,0
2697,1765915673420,-6,9,1,0,0,0,0,0
2698,1765915673487,-7,8,2,0,0,0,0,0
2699,1765915673553,-5,8,1,0,0,0,0,0
2700,1765915673603,-6,9,1,0,0,0,0,0
2701,1765915673670,-7,9,2,0,0,0,0,0
2702,1765915673736,-5,9,1,0,0,0,0,0
2703,1765915673786,-5,8,2,0,0,0,0,0
2704,1765915673853,-4,10,1,0,0,0,0,0
2705,1765915673903,-5,9,2,0,0,0,0,0
2706,1765915673970,-7,8,2,0,0,0,0,0
2707,1765915674020,-6,9,2,0,0,0,0,0
2708,1765915674087,-6,8,0,0,0,0,0,0
2709,1765915674153,-6,9,2,0,0,0,0,0
2710,1765915674220,-6,10,1,0,0,0,0,0
2711,1765915674270,-5,8,1,0,0,0,0,0
2712,1765915674337,-5,9,2,0,0,0,0,0
2713,1765915674386,-4,9,2,0,0,0,0,0
2714,1765915674453,-5,8,2,0,0,0,0,0
2715,1765915674503,-6,9,2,0,0,0,0,0
2716,1765915674570,-5,10,2,0,0,0,0,0
2717,1765915674620,-6,7,2,0,0,0,0,0
2718,1765915674685,-5,7,2,0,0,0,0,0
2719,1765915674753,-5,11,2,0,0,0,0,0
2720,1765915674820,-5,8,1,0,0,0,0,0
2721,1765915674870,-6,10,0,0,0,0,0,0
2722,1765915674937,-6,9,3,0,0,0,0,0
2723,1765915674987,-7,9,2,0,0,0,0,0
2724,1765915675053,-3,10,1,0,0,0,0,0
2725,1765915675103,-6,7,2,0,0,0,0,0
2726,1765915675169,-5,10,2,0,0,0,0,0
2727,1765915675220,-3,9,2,0,0,0,0,0
2728,1765915675287,-7,8,1,0,0,0,0,0
2729,1765915675353,-5,10,1,0,0,0,0,0
2730,1765915675420,-3,8,2,0,0,0,0,0
2731,1765915675470,-7,9,2,0,0,0,0,0
2732,1765915675535,-5,10,1,0,0,0,0,0
2733,1765915675586,-5,7,1,0,0,0,0,0
2734,1765915675653,-8,9,1,0,0,0,0,0
2735,1765915675703,-5,10,1,0,0,0,0,0
2736,1765915675770,-6,10,0,0,0,0,0,0
2737,1765915675820,-6,8,2,0,0,0,0,0
2738,1765915675887,-5,9,1,0,0,0,0,0
2739,1765915675953,-6,8,2,0,0,0,0,0
2740,1765915676020,-7,9,2,0,0,0,0,0
2741,1765915676070,-6,9,2,0,0,0,0,0
2742,1765915676137,-7,9,2,0,0,0,0,0
2743,1765915676186,-6,10,2,0,0,0,0,0
2744,1765915676253,-6,7,1,0,0,0,0,0
2745,1765915676304,-6,10,2,0,0,0,0,0
2746,1765915676369,-5,9,2,0,0,0,0,0
2747,1765915676420,-4,9,2,0,0,0,0,0
2748,1765915676487,-5,9,2,0,0,0,0,0
2749,1765915676553,-6,7,2,0,0,0,0,0
2750,1765915676620,-6,9,1,0,0,0,0,0
2751,1765915676670,-6,10,2,0,0,0,0,0
2752,1765915676903,-6,10,1,0,0,0,0,0
2753,1765915677003,-5,8,2,0,0,0,0,0
2754,1765915677169,-7,8,3,0,0,0,0,0
2755,1765915677286,-5,9,1,0,0,0,0,0
2756,1765915677486,-7,8,2,0,0,0,0,0
2757,1765915677603,-5,9,3,0,0,0,0,0
2758,1765915677670,-7,10,2,0,0,0,0,0
2759,1765915677720,-5,10,0,0,0,0,0,0
2760,1765915677787,-5,9,1,0,0,0,0,0
2761,1765915677853,-5,9,2,0,0,0,0,0
2762,1765915677903,-6,10,1,0,0,0,0,0
2763,1765915677970,-6,6,2,0,0,0,0,0
2764,1765915678020,-5,10,2,0,0,0,0,0
2765,1765915678084,-4,10,2,0,0,0,0,0
2766,1765915678135,-6,7,2,0,0,0,0,0
2767,1765915678202,-5,9,1,0,0,0,0,0
2768,1765915678269,-5,11,2,0,0,0,0,0
2769,1765915678320,-7,9,1,0,0,0,0,0
2770,1765915678387,-5,8,0,0,0,0,0,0
2771,1765915678453,-6,9,2,0,0,0,0,0
2772,1765915678502,-7,9,3,0,0,0,0,0
2773,1765915678570,-5,8,1,0,0,0,0,0
2774,1765915678620,-5,10,0,0,0,0,0,0
2775,1765915678686,-6,9,2,0,0,0,0,0
2776,1765915678736,-5,8,2,0,0,0,0,0
2777,1765915678803,-6,9,2,0,0,0,0,0
2778,1765915678870,-5,9,1,0,0,0,0,0
2779,1765915678936,-5,11,0,0,0,0,0,0
2780,1765915678987,-6,9,3,0,0,0,0,0
2781,1765915679053,-5,9,2,0,0,0,0,0
2782,1765915679103,-6,9,3,0,0,0,0,0
2783,1765915679170,-6,7,1,0,0,0,0,0
2784,1765915679220,-6,8,2,0,0,0,0,0
2785,1765915679287,-5,10,3,0,0,0,0,0
2786,1765915679337,-6,9,3,0,0,0,0,0
2787,1765915679403,-4,10,0,0,0,0,0,0
2788,1765915679470,-4,9,1,0,0,0,0,0
2789,1765915679536,-6,10,2,0,0,0,0,0
2790,1765915679585,-3,8,2,0,0,0,0,0
2791,1765915679654,-8,8,0,0,0,0,0,0
2792,1765915679721,-5,10,3,0,0,0,0,0
2793,1765915679770,-5,8,1,0,0,0,0,0
2794,1765915679837,-5,8,1,0,0,0,0,0
2795,1765915679886,-6,8,2,0,0,0,0,0
2796,1765915679953,-6,9,1,0,0,0,0,0
2797,1765915680004,-4,8,2,0,0,0,0,0
2798,1765915680068,-5,9,2,0,0,0,0,0
2799,1765915680137,-5,9,1,0,0,0,0,0
2800,1765915680187,-4,9,1,0,0,0,0,0
2801,1765915680253,-7,7,2,0,0,0,0,0
2802,1765915680320,-6,9,2,0,0,0,0,0
2803,1765915680370,-5,8,2,0,0,0,0,0
2804,1765915680436,-6,9,1,0,0,0,0,0
2805,1765915680486,-6,9,2,0,0,0,0,0
2806,1765915680553,-8,9,1,0,0,0,0,0
2807,1765915680602,-6,10,1,0,0,0,0,0
2808,1765915680670,-5,10,1,0,0,0,0,0
2809,1765915680736,-6,8,1,0,0,0,0,0
2810,1765915680786,-6,9,2,0,0,0,0,0
2811,1765915680853,-5,8,3,0,0,0,0,0
2812,1765915680919,-5,10,1,0,0,0,0,0
2813,1765915680970,-5,9,1,0,0,0,0,0
2814,1765915681037,-6,9,2,0,0,0,0,0
2815,1765915681086,-6,9,1,0,0,0,0,0
2816,1765915681153,-5,9,2,0,0,0,0,0
2817,1765915681203,-4,9,3,0,0,0,0,0
2818,1765915681269,-5,10,2,0,0,0,0,0
2819,1765915681336,-6,9,2,0,0,0,0,0
2820,1765915681386,-5,9,3,0,0,0,0,0
2821,1765915681451,-6,10,2,0,0,0,0,0
2822,1765915681520,-6,9,2,0,0,0,0,0
2823,1765915681569,-5,9,2,0,0,0,0,0
2824,1765915681637,-5,9,1,0,0,0,0,0
2825,1765915681686,-7,9,1,0,0,0,0,0
2826,1765915681753,-4,8,1,0,0,0,0,0
2827,1765915681803,-6,10,2,0,0,0,0,0
2828,1765915681870,-6,8,1,0,0,0,0,0
2829,1765915681936,-6,9,1,0,0,0,0,0
2830,1765915682003,-6,10,1,0,0,0,0,0
2831,1765915682053,-5,10,2,0,0,0,0,0
2832,1765915682120,-6,9,0,0,0,0,0,0
2833,1765915682170,-5,8,2,0,0,0,0,0
2834,1765915682236,-6,8,1,0,0,0,0,0
2835,1765915682286,-7,9,3,0,0,0,0,0
2836,1765915682353,-4,9,2,0,0,0,0,0
2837,1765915682403,-6,9,1,0,0,0,0,0
2838,1765915682469,-5,7,2,0,0,0,0,0
2839,1765915682536,-5,9,2,0,0,0,0,0
2840,1765915682587,-5,8,1,0,0,0,0,0
2841,1765915682653,-5,7,2,0,0,0,0,0
2842,1765915682703,-6,8,2,0,0,0,0,0
2843,1765915682770,-4,7,1,0,0,0,0,0
2844,1765915682820,-7,10,1,0,0,0,0,0
2845,1765915682886,-5,11,2,0,0,0,0,0
2846,1765915682937,-6,9,0,0,0,0,0,0
2847,1765915683003,-7,10,1,0,0,0,0,0
2848,1765915683070,-6,10,2,0,0,0,0,0
2849,1765915683136,-6,9,1,0,0,0,0,0
2850,1765915683186,-5,9,2,0,0,0,0,0
2851,1765915683253,-5,10,1,0,0,0,0,0
2852,1765915683303,-6,9,1,0,0,0,0,0
2853,1765915683458,-6,9,2,0,0,0,0,0
2854,1765915683468,-5,8,1,0,0,0,0,0
2855,1765915683484,-6,9,1,0,0,0,0,0
2856,1765915683552,-5,9,1,0,0,0,0,0
2857,1765915683603,-5,9,1,0,0,0,0,0
2858,1765915683670,-5,9,1,0,0,0,0,0
2859,1765915683736,-5,8,1,0,0,0,0,0
2860,1765915683786,-4,10,2,0,0,0,0,0
2861,1765915683854,-5,9,1,0,0,0,0,0
2862,1765915683902,-6,9,1,0,0,0,0,0
2863,1765915683970,-6,9,2,0,0,0,0,0
2864,1765915684019,-7,8,2,0,0,0,0,0
2865,1765915684086,-5,9,1,0,0,0,0,0
2866,1765915684153,-4,9,2,0,0,0,0,0
2867,1765915684220,-6,9,1,0,0,0,0,0
2868,1765915684270,-5,10,2,0,0,0,0,0
2869,1765915684337,-5,10,2,0,0,0,0,0
2870,1765915684386,-6,9,3,0,0,0,0,0
2871,1765915684453,-4,9,2,0,0,0,0,0
2872,1765915684503,-6,8,1,0,0,0,0,0
2873,1765915684569,-6,10,1,0,0,0,0,0
2874,1765915684619,-5,9,2,0,0,0,0,0
2875,1765915684687,-5,9,2,0,0,0,0,0
2876,1765915684753,-6,8,2,0,0,0,0,0
2877,1765915684819,-6,10,1,0,0,0,0,0
2878,1765915684869,-4,9,1,0,0,0,0,0
2879,1765915684937,-4,9,1,0,0,0,0,0
2880,1765915684986,-7,8,2,0,0,0,0,0
2881,1765915685053,-4,10,2,0,0,0,0,0
2882,1765915685103,-5,9,1,0,0,0,0,0
2883,1765915685170,-6,9,2,0,0,0,0,0
2884,1765915685220,-5,9,2,0,0,0,0,0
2885,1765915685286,-6,9,2,0,0,0,0,0
2886,1765915685354,-5,8,2,0,0,0,0,0
2887,1765915685419,-7,10,1,0,0,0,0,0
2888,1765915685470,-6,10,2,0,0,0,0,0
2889,1765915685536,-5,9,1,0,0,0,0,0
2890,1765915685585,-5,9,2,0,0,0,0,0
2891,1765915685653,-5,8,0,0,0,0,0,0
2892,1765915685718,-6,9,1,0,0,0,0,0
2893,1765915685770,-6,9,1,0,0,0,0,0
2894,1765915685837,-5,8,2,0,0,0,0,0
2895,1765915685887,-6,10,2,0,0,0,0,0
2896,1765915685953,-5,9,2,0,0,0,0,0
2897,1765915686020,-5,8,1,0,0,0,0,0
2898,1765915686086,-7,10,2,0,0,0,0,0
2899,1765915686137,-5,9,1,0,0,0,0,0
2900,1765915686203,-6,10,1,0,0,0,0,0
2901,1765915686253,-4,9,2,0,0,0,0,0
2902,1765915686320,-6,8,1,0,0,0,0,0
2903,1765915686369,-5,8,1,0,0,0,0,0
2904,1765915686436,-5,8,2,0,0,0,0,0
2905,1765915686487,-4,9,1,0,0,0,0,0
2906,1765915686553,-7,9,3,0,0,0,0,0
2907,1765915686619,-5,10,2,0,0,0,0,0
2908,1765915686686,-6,8,2,0,0,0,0,0
2909,1765915686737,-4,8,1,0,0,0,0,0
2910,1765915686803,-5,10,1,0,0,0,0,0
2911,1765915686853,-5,10,3,0,0,0,0,0
2912,1765915686920,-4,7,2,0,0,0,0,0
2913,1765915686970,-6,11,2,0,0,0,0,0
2914,1765915687036,-7,10,1,0,0,0,0,0
2915,1765915687087,-7,9,2,0,0,0,0,0
2916,1765915687153,-5,9,1,0,0,0,0,0
2917,1765915687220,-7,8,2,0,0,0,0,0
2918,1765915687286,-6,8,3,0,0,0,0,0
2919,1765915687337,-5,9,2,0,0,0,0,0
2920,1765915687401,-5,8,1,0,0,0,0,0
2921,1765915687453,-7,8,2,0,0,0,0,0
2922,1765915687519,-7,8,0,0,0,0,0,0
2923,1765915687570,-5,9,2,0,0,0,0,0
2924,1765915687636,-5,8,1,0,0,0,0,0
2925,1765915687687,-5,9,1,0,0,0,0,0
2926,1765915687753,-5,9,1,0,0,0,0,0
2927,1765915687820,-7,10,2,0,0,0,0,0
2928,1765915687887,-5,8,2,0,0,0,0,0
2929,1765915687937,-5,9,2,0,0,0,0,0
2930,1765915688004,-6,10,2,0,0,0,0,0
2931,1765915688053,-6,8,1,0,0,0,0,0
2932,1765915688120,-5,9,1,0,0,0,0,0
2933,1765915688170,-7,7,1,0,0,0,0,0
2934,1765915688237,-4,9,3,0,0,0,0,0
2935,1765915688303,-6,10,1,0,0,0,0,0
2936,1765915688354,-5,9,1,0,0,0,0,0
2937,1765915688420,-6,9,2,0,0,0,0,0
2938,1765915688470,-6,7,1,0,0,0,0,0
2939,1765915688536,-6,9,2,0,0,0,0,0
2940,1765915688587,-5,10,0,0,0,0,0,0
2941,1765915688653,-5,8,2,0,0,0,0,0
2942,1765915688703,-5,8,0,0,0,0,0,0
2943,1765915688770,-5,8,2,0,0,0,0,0
2944,1765915688837,-4,9,0,0,0,0,0,0
2945,1765915688903,-5,9,2,0,0,0,0,0
2946,1765915688953,-4,8,2,0,0,0,0,0
2947,1765915689020,-5,8,1,0,0,0,0,0
2948,1765915689069,-6,11,2,0,0,0,0,0
2949,1765915689136,-4,7,1,0,0,0,0,0
2950,1765915689186,-5,8,0,0,0,0,0,0
2951,1765915689252,-6,9,2,0,0,0,0,0
2952,1765915689303,-5,8,1,0,0,0,0,0
2953,1765915689370,-5,9,1,0,0,0,0,0
2954,1765915689437,-6,10,1,0,0,0,0,0
2955,1765915689503,-5,9,1,0,0,0,0,0
2956,1765915689553,-5,8,2,0,0,0,0,0
2957,1765915689620,-6,10,3,0,0,0,0,0
2958,1765915689669,-5,9,1,0,0,0,0,0
2959,1765915689736,-7,9,1,0,0,0,0,0
2960,1765915689786,-5,10,2,0,0,0,0,0
2961,1765915689853,-6,9,1,0,0,0,0,0
2962,1765915689903,-7,9,3,0,0,0,0,0
2963,1765915689969,-6,7,2,0,0,0,0,0
2964,1765915690037,-5,9,2,0,0,0,0,0
2965,1765915690103,-6,10,1,0,0,0,0,0
2966,1765915690153,-6,8,1,0,0,0,0,0
2967,1765915690220,-6,10,2,0,0,0,0,0
2968,1765915690270,-7,9,2,0,0,0,0,0
2969,1765915690336,-5,9,2,0,0,0,0,0
2970,1765915690386,-5,8,2,0,0,0,0,0
2971,1765915690453,-5,8,2,0,0,0,0,0
2972,1765915690519,-6,9,2,0,0,0,0,0
2973,1765915690570,-6,8,2,0,0,0,0,0
2974,1765915690636,-7,9,2,0,0,0,0,0
2975,1765915690703,-6,8,3,0,0,0,0,0
2976,1765915690753,-5,9,1,0,0,0,0,0
2977,1765915690820,-5,8,1,0,0,0,0,0
2978,1765915690887,-5,8,2,0,0,0,0,0
2979,1765915690936,-6,9,2,0,0,0,0,0
2980,1765915691003,-6,9,3,0,0,0,0,0
2981,1765915691053,-4,9,1,0,0,0,0,0
2982,1765915691119,-5,9,1,0,0,0,0,0
2983,1765915691170,-6,10,2,0,0,0,0,0
2984,1765915691237,-6,8,2,0,0,0,0,0
2985,1765915691303,-5,8,1,0,0,0,0,0
2986,1765915691370,-5,10,2,0,0,0,0,0
2987,1765915691420,-6,8,2,0,0,0,0,0
2988,1765915691487,-6,9,1,0,0,0,0,0
2989,1765915691536,-7,10,1,0,0,0,0,0
2990,1765915691603,-4,7,1,0,0,0,0,0
2991,1765915691653,-7,8,3,0,0,0,0,0
2992,1765915691720,-5,10,1,0,0,0,0,0
2993,1765915691770,-5,9,2,0,0,0,0,0
2994,1765915691836,-6,9,3,0,0,0,0,0
2995,1765915691903,-5,10,2,0,0,0,0,0
2996,1765915691970,-6,9,2,0,0,0,0,0
2997,1765915692020,-7,10,2,0,0,0,0,0
2998,1765915692087,-4,8,2,0,0,0,0,0
2999,1765915692136,-8,9,2,0,0,0,0,0
3000,1765915692203,-6,10,3,0,0,0,0,0
3001,1765915692253,-7,8,1,0,0,0,0,0
3002,1765915692320,-6,10,2,0,0,0,0,0
3003,1765915692370,-5,11,1,0,0,0,0,0
3004,1765915692436,-6,9,2,0,0,0,0,0
3005,1765915692501,-5,9,1,0,0,0,0,0
3006,1765915692570,-6,10,2,0,0,0,0,0
3007,1765915692620,-7,9,2,0,0,0,0,0
3008,1765915692686,-6,8,1,0,0,0,0,0
3009,1765915692736,-5,9,2,0,0,0,0,0
3010,1765915692802,-8,9,1,0,0,0,0,0
3011,1765915692853,-6,9,1,0,0,0,0,0
3012,1765915692920,-7,8,2,0,0,0,0,0
3013,1765915692986,-5,8,2,0,0,0,0,0
3014,1765915693036,-6,8,2,0,0,0,0,0
3015,1765915693103,-7,9,2,0,0,0,0,0
3016,1765915693169,-4,9,1,0,0,0,0,0
3017,1765915693219,-4,8,2,0,0,0,0,0
3018,1765915693287,-5,9,2,0,0,0,0,0
3019,1765915693336,-7,9,0,0,0,0,0,0
3020,1765915693403,-6,10,1,0,0,0,0,0
3021,1765915693453,-5,9,1,0,0,0,0,0
3022,1765915693519,-6,9,2,0,0,0,0,0
3023,1765915693586,-6,9,1,0,0,0,0,0
3024,1765915693637,-6,9,2,0,0,0,0,0
3025,1765915693703,-6,10,1,0,0,0,0,0
3026,1765915693770,-5,9,0,0,0,0,0,0
3027,1765915693836,-4,9,2,0,0,0,0,0
3028,1765915693886,-6,9,1,0,0,0,0,0
3029,1765915693953,-6,9,1,0,0,0,0,0
3030,1765915694053,-5,9,2,0,0,0,0,0
3031,1765915694120,-5,8,2,0,0,0,0,0
3032,1765915694186,-5,10,3,0,0,0,0,0
3033,1765915694376,-5,9,2,0,0,0,0,0
3034,1765915694377,-5,8,2,0,0,0,0,0
3035,1765915694384,-4,9,1,0,0,0,0,0
3036,1765915694419,-7,9,1,0,0,0,0,0
3037,1765915694470,-6,8,2,0,0,0,0,0
3038,1765915694537,-4,8,2,0,0,0,0,0
3039,1765915694603,-6,8,1,0,0,0,0,0
3040,1765915694669,-7,9,1,0,0,0,0,0
3041,1765915694720,-4,8,1,0,0,0,0,0
3042,1765915694786,-3,10,1,0,0,0,0,0
3043,1765915694836,-6,8,1,0,0,0,0,0
3044,1765915694902,-4,9,1,0,0,0,0,0
3045,1765915694953,-5,9,2,0,0,0,0,0
3046,1765915695019,-7,10,2,0,0,0,0,0
3047,1765915695086,-6,9,2,0,0,0,0,0
3048,1765915695137,-5,9,1,0,0,0,0,0
3049,1765915695203,-4,9,1,0,0,0,0,0
3050,1765915695270,-7,8,1,0,0,0,0,0
3051,1765915695320,-5,8,1,0,0,0,0,0
3052,1765915695386,-6,10,1,0,0,0,0,0
3053,1765915695453,-4,8,1,0,0,0,0,0
3054,1765915695503,-6,8,2,0,0,0,0,0
3055,1765915695570,-6,8,1,0,0,0,0,0
3056,1765915695618,-4,9,0,0,0,0,0,0
3057,1765915695685,-7,8,0,0,0,0,0,0
3058,1765915695737,-5,9,2,0,0,0,0,0
3059,1765915695803,-7,9,3,0,0,0,0,0
3060,1765915695869,-6,8,2,0,0,0,0,0
3061,1765915695920,-6,8,1,0,0,0,0,0
3062,1765915695986,-5,9,2,0,0,0,0,0
3063,1765915696053,-6,9,2,0,0,0,0,0
3064,1765915696102,-5,7,1,0,0,0,0,0
3065,1765915696170,-5,9,2,0,0,0,0,0
3066,1765915696220,-5,9,1,0,0,0,0,0
3067,1765915696286,-6,9,1,0,0,0,0,0
3068,1765915696337,-5,10,1,0,0,0,0,0
3069,1765915696403,-6,7,1,0,0,0,0,0
3070,1765915696469,-4,9,2,0,0,0,0,0
3071,1765915696520,-7,10,3,0,0,0,0,0
3072,1765915696587,-3,9,2,0,0,0,0,0
3073,1765915696653,-6,10,2,0,0,0,0,0
3074,1765915696703,-5,9,3,0,0,0,0,0
3075,1765915696768,-5,9,2,0,0,0,0,0
3076,1765915696819,-6,9,2,0,0,0,0,0
3077,1765915696886,-5,10,2,0,0,0,0,0
3078,1765915696937,-5,9,1,0,0,0,0,0
3079,1765915697003,-6,8,0,0,0,0,0,0
3080,1765915697069,-3,8,3,0,0,0,0,0
3081,1765915697136,-7,9,1,0,0,0,0,0
3082,1765915697186,-6,8,1,0,0,0,0,0
3083,1765915697252,-6,9,2,0,0,0,0,0
3084,1765915697303,-5,9,1,0,0,0,0,0
3085,1765915697370,-5,8,1,0,0,0,0,0
3086,1765915697420,-5,8,2,0,0,0,0,0
3087,1765915697486,-6,9,2,0,0,0,0,0
3088,1765915697536,-5,9,1,0,0,0,0,0
3089,1765915697603,-5,8,1,0,0,0,0,0
3090,1765915697669,-6,8,3,0,0,0,0,0
3091,1765915697720,-5,7,2,0,0,0,0,0
3092,1765915697786,-5,9,1,0,0,0,0,0
3093,1765915697853,-6,8,1,0,0,0,0,0
3094,1765915697903,-6,8,2,0,0,0,0,0
3095,1765915697969,-6,7,3,0,0,0,0,0
3096,1765915698036,-6,8,2,0,0,0,0,0
3097,1765915698086,-4,9,2,0,0,0,0,0
3098,1765915698137,-5,10,1,0,0,0,0,0
3099,1765915698204,-5,9,1,0,0,0,0,0
3100,1765915698270,-5,9,-1,0,0,0,0,0
3101,1765915698336,-6,10,2,0,0,0,0,0
3102,1765915698387,-5,9,1,0,0,0,0,0
3103,1765915698451,-5,8,2,0,0,0,0,0
3104,1765915698519,-5,9,3,0,0,0,0,0
3105,1765915698570,-7,10,1,0,0,0,0,0
3106,1765915698636,-5,8,2,0,0,0,0,0
3107,1765915698686,-8,10,1,0,0,0,0,0
3108,1765915698752,-7,8,1,0,0,0,0,0
3109,1765915698803,-6,8,2,0,0,0,0,0
3110,1765915698870,-6,8,2,0,0,0,0,0
3111,1765915698936,-5,8,1,0,0,0,0,0
3112,1765915698987,-5,9,1,0,0,0,0,0
3113,1765915699053,-6,7,1,0,0,0,0,0
3114,1765915699120,-5,10,2,0,0,0,0,0
3115,1765915699169,-5,9,1,0,0,0,0,0
3116,1765915699236,-5,9,1,0,0,0,0,0
3117,1765915699286,-6,9,1,0,0,0,0,0
3118,1765915699353,-5,9,0,0,0,0,0,0
3119,1765915699403,-5,8,3,0,0,0,0,0
3120,1765915699470,-5,9,1,0,0,0,0,0
3121,1765915699536,-5,11,1,0,0,0,0,0
3122,1765915699603,-6,7,2,0,0,0,0,0
3123,1765915699653,-6,8,2,0,0,0,0,0
3124,1765915699720,-5,9,3,0,0,0,0,0
3125,1765915699836,-6,8,2,0,0,0,0,0
3126,1765915699903,-6,9,2,0,0,0,0,0
3127,1765915699953,-5,8,0,0,0,0,0,0
3128,1765915700018,-6,9,2,0,0,0,0,0
3129,1765915700069,-6,9,1,0,0,0,0,0
3130,1765915700134,-5,8,1,0,0,0,0,0
3131,1765915700185,-6,10,3,0,0,0,0,0
3132,1765915700251,-6,9,2,0,0,0,0,0
3133,1765915700302,-7,9,2,0,0,0,0,0
3134,1765915701169,-6,9,1,0,0,0,0,0
3135,1765915701371,-4,9,2,0,0,0,0,0
3136,1765915701437,-5,8,2,0,0,0,0,0
3137,1765915701654,-5,9,1,0,0,0,0,0
3138,1765915701736,-4,10,2,0,0,0,0,0
3139,1765915702003,-4,10,1,0,0,0,0,0
3140,1765915702070,-5,9,2,0,0,0,0,0
3141,1765915702286,-5,8,2,0,0,0,0,0
3142,1765915702352,-4,8,1,0,0,0,0,0
3143,1765915702585,-6,8,1,0,0,0,0,0
3144,1765915702702,-6,8,2,0,0,0,0,0
3145,1765915702870,-6,9,2,0,0,0,0,0
3146,1765915702987,-5,10,1,0,0,0,0,0
3147,1765915703187,-6,10,2,0,0,0,0,0
3148,1765915703335,-5,10,1,0,0,0,0,0
3149,1765915703469,-5,10,2,0,0,0,0,0
3150,1765915703619,-5,10,1,0,0,0,0,0
3151,1765915703752,-6,9,1,0,0,0,0,0
3152,1765915703970,-3,10,2,0,0,0,0,0
3153,1765915704037,-6,10,1,0,0,0,0,0
3154,1765915704254,-6,9,1,0,0,0,0,0
3155,1765915704320,-6,8,1,0,0,0,0,0
3156,1765915704569,-6,9,2,0,0,0,0,0
3157,1765915704669,-6,8,1,0,0,0,0,0
3158,1765915704870,-5,8,1,0,0,0,0,0
3159,1765915704954,-5,8,3,0,0,0,0,0
3160,1765915705153,-7,8,2,0,0,0,0,0
3161,1765915705304,-7,8,0,0,0,0,0,0
3162,1765915705402,-5,10,0,0,0,0,0,0
3163,1765915705586,-4,9,2,0,0,0,0,0
3164,1765915705703,-6,9,2,0,0,0,0,0
3165,1765915706040,-5,10,2,0,0,0,0,0
3166,1765915706040,-5,8,2,0,0,0,0,0
3167,1765915706220,-6,9,2,0,0,0,0,0
3168,1765915706287,-6,9,2,0,0,0,0,0
3169,1765915706453,-7,8,2,0,0,0,0,0
3170,1765915706585,-6,9,1,0,0,0,0,0
3171,1765915706787,-4,10,2,0,0,0,0,0
3172,1765915706886,-4,9,1,0,0,0,0,0
3173,1765915707104,-5,8,1,0,0,0,0,0
3174,1765915707202,-5,10,2,0,0,0,0,0
3175,1765915707386,-6,9,1,0,0,0,0,0
3176,1765915707487,-6,9,2,0,0,0,0,0
3177,1765915707721,-7,8,1,0,0,0,0,0
3178,1765915707786,-7,9,1,0,0,0,0,0
3179,1765915708002,-7,9,1,0,0,0,0,0
3180,1765915708103,-5,8,2,0,0,0,0,0
3181,1765915708336,-4,10,2,0,0,0,0,0
3182,1765915708419,-6,10,1,0,0,0,0,0
3183,1765915708635,-5,8,1,0,0,0,0,0
3184,1765915708703,-6,8,1,0,0,0,0,0
3185,1765915708952,-7,8,2,0,0,0,0,0
3186,1765915709003,-5,10,1,0,0,0,0,0
3187,1765915709237,-6,10,1,0,0,0,0,0
3188,1765915709320,-5,10,1,0,0,0,0,0
3189,1765915709553,-6,9,2,0,0,0,0,0
3190,1765915709619,-7,8,2,0,0,0,0,0
3191,1765915709837,-5,8,1,0,0,0,0,0
3192,1765915709919,-5,8,2,0,0,0,0,0
3193,1765915710135,-7,9,1,0,0,0,0,0
3194,1765915710219,-6,8,2,0,0,0,0,0
3195,1765915710453,-4,9,2,0,0,0,0,0
3196,1765915710520,-6,8,1,0,0,0,0,0
3197,1765915710754,-5,8,1,0,0,0,0,0
3198,1765915710837,-4,9,2,0,0,0,0,0
3199,1765915711054,-7,11,0,0,0,0,0,0
3200,1765915711152,-6,8,1,0,0,0,0,0
3201,1765915711370,-6,9,1,0,0,0,0,0
3202,1765915711437,-6,10,2,0,0,0,0,0
3203,1765915711670,-5,9,2,0,0,0,0,0
3204,1765915711770,-4,7,1,0,0,0,0,0
3205,1765915711986,-4,9,3,0,0,0,0,0
3206,1765915712068,-6,9,1,0,0,0,0,0
3207,1765915712286,-4,9,1,0,0,0,0,0
3208,1765915712386,-5,9,1,0,0,0,0,0
3209,1765915712570,-4,10,2,0,0,0,0,0
3210,1765915712886,-3,11,0,0,0,0,0,0
3211,1765915712986,-7,9,2,0,0,0,0,0
3212,1765915713186,-4,8,3,0,0,0,0,0
3213,1765915713303,-7,10,1,0,0,0,0,0
3214,1765915713503,-5,10,1,0,0,0,0,0
3215,1765915713620,-7,9,2,0,0,0,0,0
3216,1765915713803,-5,9,2,0,0,0,0,0
3217,1765915713968,-4,8,1,0,0,0,0,0
3218,1765915714121,-5,9,2,0,0,0,0,0
3219,1765915714237,-5,9,1,0,0,0,0,0
3220,1765915714404,-6,10,2,0,0,0,0,0
3221,1765915714568,-7,8,1,0,0,0,0,0
3222,1765915714704,-5,8,2,0,0,0,0,0
3223,1765915714871,-5,9,1,0,0,0,0,0
3224,1765915715020,-5,9,2,0,0,0,0,0
3225,1765915715187,-7,9,1,0,0,0,0,0
3226,1765915715304,-6,9,1,0,0,0,0,0
3227,1765915715470,-4,9,1,0,0,0,0,0
3228,1765915715620,-6,9,1,0,0,0,0,0
