index,date,ACCEL_X,ACCEL_Y,ACCEL_Z
0,1782588357592,0.059999999999999998,-0.02,1.01
1,1782588357626,0.059999999999999998,-0.02,1.01
2,1782588357692,0.059999999999999998,-0.029999999999999999,1.01
3,1782588357758,0.059999999999999998,-0.029999999999999999,1.01
4,1782588357825,0.059999999999999998,-0.029999999999999999,1.01
5,1782588357942,0.059999999999999998,-0.029999999999999999,1.01
6,1782588357975,0.059999999999999998,-0.029999999999999999,1.01
7,1782588357992,0.059999999999999998,-0.029999999999999999,1.01
8,1782588358009,0.059999999999999998,-0.029999999999999999,1.01
9,1782588358042,0.059999999999999998,-0.029999999999999999,1.01
10,1782588358075,0.059999999999999998,-0.029999999999999999,1.01
11,1782588358125,0.059999999999999998,-0.029999999999999999,1.01
12,1782588358192,0.059999999999999998,-0.029999999999999999,1.01
13,1782588358258,0.059999999999999998,-0.029999999999999999,1.01
14,1782588358275,0.059999999999999998,-0.029999999999999999,1.01
15,1782588358325,0.059999999999999998,-0.029999999999999999,1.01
16,1782588358391,0.059999999999999998,-0.029999999999999999,1.01
17,1782588358425,0.059999999999999998,-0.029999999999999999,1.01
18,1782588358491,0.059999999999999998,-0.029999999999999999,1.01
19,1782588358558,0.059999999999999998,-0.02,1.01
20,1782588358625,0.059999999999999998,-0.02,1.01
21,1782588358708,0.059999999999999998,-0.02,1.01
22,1782588358742,0.059999999999999998,-0.02,1.01
23,1782588358791,0.059999999999999998,-0.02,1.01
24,1782588358808,0.059999999999999998,-0.02,1.01
25,1782588358841,0.059999999999999998,-0.029999999999999999,1.01
26,1782588358858,0.059999999999999998,-0.029999999999999999,1.01
27,1782588358874,0.059999999999999998,-0.029999999999999999,1.01
28,1782588358941,0.059999999999999998,-0.029999999999999999,1.01
29,1782588358991,0.059999999999999998,-0.029999999999999999,1.01
30,1782588359041,0.059999999999999998,-0.029999999999999999,1.01
31,1782588359107,0.059999999999999998,-0.029999999999999999,1.01
32,1782588359241,0.059999999999999998,-0.029999999999999999,1.01
33,1782588359307,0.059999999999999998,-0.029999999999999999,1.01
34,1782588359357,0.059999999999999998,-0.029999999999999999,1.01
35,1782588359407,0.059999999999999998,-0.029999999999999999,1.01
36,1782588359457,0.059999999999999998,-0.029999999999999999,1.01
37,1782588359524,0.059999999999999998,-0.029999999999999999,1.01
38,1782588359558,0.059999999999999998,-0.029999999999999999,1.01
39,1782588359591,0.059999999999999998,-0.029999999999999999,1.01
40,1782588359608,0.059999999999999998,-0.029999999999999999,1.01
41,1782588359625,0.059999999999999998,-0.029999999999999999,1.01
42,1782588359674,0.059999999999999998,-0.029999999999999999,1.01
43,1782588359708,0.059999999999999998,-0.029999999999999999,1.01
44,1782588359724,0.059999999999999998,-0.029999999999999999,1.01
45,1782588359742,0.059999999999999998,-0.029999999999999999,1.01
46,1782588359774,0.059999999999999998,-0.029999999999999999,1.01
47,1782588359791,0.059999999999999998,-0.029999999999999999,1.01
48,1782588359857,0.059999999999999998,-0.029999999999999999,1.01
49,1782588359907,0.059999999999999998,-0.02,1.01
50,1782588360007,0.059999999999999998,-0.02,1.01
51,1782588360073,0.059999999999999998,-0.029999999999999999,1.01
52,1782588360107,0.059999999999999998,-0.029999999999999999,1.01
53,1782588360174,0.059999999999999998,-0.029999999999999999,1.01
54,1782588360207,0.059999999999999998,-0.029999999999999999,1.01
55,1782588360256,0.059999999999999998,-0.029999999999999999,1.01
56,1782588360307,0.059999999999999998,-0.029999999999999999,1.01
57,1782588360423,0.059999999999999998,-0.029999999999999999,1.01
58,1782588360457,0.059999999999999998,-0.029999999999999999,1.01
59,1782588360489,0.059999999999999998,-0.029999999999999999,1.01
60,1782588360523,0.059999999999999998,-0.029999999999999999,1.01
61,1782588360556,0.059999999999999998,-0.029999999999999999,1.01
62,1782588360590,0.059999999999999998,-0.029999999999999999,1.02
63,1782588360639,0.059999999999999998,-0.029999999999999999,1.01
64,1782588360690,0.059999999999999998,-0.029999999999999999,1.01
65,1782588360723,0.059999999999999998,-0.029999999999999999,1.01
66,1782588360739,0.059999999999999998,-0.029999999999999999,1.01
67,1782588360756,0.059999999999999998,-0.029999999999999999,1.01
68,1782588360822,0.059999999999999998,-0.029999999999999999,1.01
69,1782588360873,0.059999999999999998,-0.029999999999999999,1.01
70,1782588360923,0.059999999999999998,-0.02,1.01
71,1782588361007,0.059999999999999998,-0.02,1.01
72,1782588361056,0.059999999999999998,-0.029999999999999999,1.01
73,1782588361089,0.059999999999999998,-0.029999999999999999,1.01
74,1782588361156,0.059999999999999998,-0.029999999999999999,1.01
75,1782588361189,0.059999999999999998,-0.029999999999999999,1.01
76,1782588361239,0.059999999999999998,-0.029999999999999999,1.01
77,1782588361289,0.059999999999999998,-0.029999999999999999,1.01
78,1782588361322,0.059999999999999998,-0.029999999999999999,1.01
79,1782588361339,0.059999999999999998,-0.02,1.01
80,1782588361405,0.059999999999999998,-0.02,1.01
81,1782588361472,0.059999999999999998,-0.02,1.01
82,1782588361522,0.059999999999999998,-0.029999999999999999,1.01
83,1782588361589,0.059999999999999998,-0.029999999999999999,1.01
84,1782588361638,0.059999999999999998,-0.029999999999999999,1.01
85,1782588361705,0.059999999999999998,-0.029999999999999999,1.01
86,1782588361789,0.059999999999999998,-0.029999999999999999,1.01
87,1782588361855,0.059999999999999998,-0.029999999999999999,1.01
88,1782588361922,0.059999999999999998,-0.029999999999999999,1.01
89,1782588362022,0.059999999999999998,-0.029999999999999999,1.01
90,1782588362038,0.059999999999999998,-0.029999999999999999,1.01
91,1782588362055,0.059999999999999998,-0.029999999999999999,1.01
92,1782588362088,0.059999999999999998,-0.029999999999999999,1.01
93,1782588362172,0.059999999999999998,-0.029999999999999999,1.01
94,1782588362205,0.059999999999999998,-0.029999999999999999,1.01
95,1782588362255,0.059999999999999998,-0.029999999999999999,1.01
96,1782588362305,0.059999999999999998,-0.029999999999999999,1.02
97,1782588362371,0.059999999999999998,-0.029999999999999999,1.02
98,1782588362438,0.059999999999999998,-0.02,1.01
99,1782588362505,0.059999999999999998,-0.029999999999999999,1.01
100,1782588362622,0.059999999999999998,-0.029999999999999999,1.01
101,1782588362688,0.059999999999999998,-0.029999999999999999,1.01
102,1782588362941,0.059999999999999998,-0.029999999999999999,1.01
103,1782588362954,0.059999999999999998,-0.029999999999999999,1.01
104,1782588362954,0.059999999999999998,-0.029999999999999999,1.01
105,1782588362954,0.059999999999999998,-0.029999999999999999,1.01
106,1782588362988,0.059999999999999998,-0.029999999999999999,1.01
107,1782588363054,0.059999999999999998,-0.029999999999999999,1.01
108,1782588363104,0.059999999999999998,-0.029999999999999999,1.01
109,1782588363154,0.059999999999999998,-0.029999999999999999,1.01
110,1782588363237,0.059999999999999998,-0.029999999999999999,1.01
111,1782588363287,0.059999999999999998,-0.029999999999999999,1.01
112,1782588363321,0.059999999999999998,-0.029999999999999999,1.01
113,1782588363387,0.059999999999999998,-0.029999999999999999,1.01
114,1782588363438,0.059999999999999998,-0.02,1.01
115,1782588363504,0.059999999999999998,-0.02,1.01
116,1782588363520,0.059999999999999998,-0.02,1.01
117,1782588363537,0.059999999999999998,-0.02,1.01
118,1782588363554,0.059999999999999998,-0.02,1.01
119,1782588363604,0.059999999999999998,-0.029999999999999999,1.01
120,1782588363637,0.059999999999999998,-0.029999999999999999,1.01
121,1782588363704,0.059999999999999998,-0.029999999999999999,1.02
122,1782588363821,0.059999999999999998,-0.029999999999999999,1.01
123,1782588363854,0.059999999999999998,-0.029999999999999999,1.02
124,1782588363887,0.059999999999999998,-0.029999999999999999,1.02
125,1782588363938,0.059999999999999998,-0.029999999999999999,1.01
126,1782588364103,0.059999999999999998,-0.029999999999999999,1.02
127,1782588364153,0.059999999999999998,-0.029999999999999999,1.01
128,1782588364203,0.059999999999999998,-0.029999999999999999,1.02
129,1782588364270,0.059999999999999998,-0.029999999999999999,1.01
130,1782588364320,0.059999999999999998,-0.029999999999999999,1.01
131,1782588364403,0.059999999999999998,-0.029999999999999999,1.01
132,1782588364503,0.059999999999999998,-0.029999999999999999,1.01
133,1782588364554,0.059999999999999998,-0.029999999999999999,1.01
134,1782588364603,0.059999999999999998,-0.029999999999999999,1.01
135,1782588364653,0.059999999999999998,-0.029999999999999999,1.01
136,1782588364720,0.059999999999999998,-0.029999999999999999,1.01
137,1782588364804,0.059999999999999998,-0.029999999999999999,1.01
138,1782588364904,0.059999999999999998,-0.029999999999999999,1.01
139,1782588364937,0.059999999999999998,-0.029999999999999999,1.01
140,1782588364953,0.059999999999999998,-0.029999999999999999,1.01
141,1782588364970,0.059999999999999998,-0.029999999999999999,1.01
142,1782588365002,0.059999999999999998,-0.029999999999999999,1.01
143,1782588365036,0.059999999999999998,-0.029999999999999999,1.01
144,1782588365103,0.059999999999999998,-0.029999999999999999,1.01
145,1782588365136,0.059999999999999998,-0.029999999999999999,1.01
146,1782588365236,0.059999999999999998,-0.029999999999999999,1.01
147,1782588365269,0.059999999999999998,-0.029999999999999999,1.01
148,1782588365286,0.059999999999999998,-0.029999999999999999,1.01
149,1782588365302,0.059999999999999998,-0.029999999999999999,1.01
150,1782588365386,0.059999999999999998,-0.029999999999999999,1.01
151,1782588365486,0.059999999999999998,-0.029999999999999999,1.01
152,1782588365519,0.059999999999999998,-0.029999999999999999,1.01
153,1782588365569,0.059999999999999998,-0.029999999999999999,1.01
154,1782588365586,0.059999999999999998,-0.029999999999999999,1.01
155,1782588365619,0.059999999999999998,-0.029999999999999999,1.01
156,1782588365636,0.059999999999999998,-0.029999999999999999,1.01
157,1782588365685,0.059999999999999998,-0.029999999999999999,1.01
158,1782588365719,0.059999999999999998,-0.029999999999999999,1.01
159,1782588365769,0.059999999999999998,-0.029999999999999999,1.01
160,1782588365820,0.059999999999999998,-0.029999999999999999,1.01
161,1782588365886,0.059999999999999998,-0.029999999999999999,1.01
162,1782588365903,0.059999999999999998,-0.029999999999999999,1.01
163,1782588365969,0.059999999999999998,-0.029999999999999999,1.01
164,1782588366018,0.059999999999999998,-0.029999999999999999,1.01
165,1782588366185,0.059999999999999998,-0.02,1.01
166,1782588366235,0.059999999999999998,-0.02,1.01
167,1782588366301,0.059999999999999998,-0.029999999999999999,1.01
168,1782588366384,0.059999999999999998,-0.029999999999999999,1.01
169,1782588366418,0.059999999999999998,-0.029999999999999999,1.01
170,1782588366468,0.059999999999999998,-0.029999999999999999,1.01
171,1782588366534,0.059999999999999998,-0.029999999999999999,1.01
172,1782588366568,0.059999999999999998,-0.029999999999999999,1.01
173,1782588366618,0.059999999999999998,-0.029999999999999999,1.01
174,1782588366685,0.059999999999999998,-0.029999999999999999,1.01
175,1782588366734,0.059999999999999998,-0.029999999999999999,1.01
176,1782588366834,0.059999999999999998,-0.029999999999999999,1.01
177,1782588366901,0.059999999999999998,-0.029999999999999999,1.01
178,1782588366951,0.059999999999999998,-0.029999999999999999,1.01
179,1782588366984,0.059999999999999998,-0.029999999999999999,1.01
180,1782588367068,0.059999999999999998,-0.029999999999999999,1.01
181,1782588367118,0.059999999999999998,-0.029999999999999999,1.01
182,1782588367151,0.059999999999999998,-0.029999999999999999,1.01
183,1782588367202,0.059999999999999998,-0.029999999999999999,1.01
184,1782588367302,0.059999999999999998,-0.029999999999999999,1.01
185,1782588367318,0.059999999999999998,-0.029999999999999999,1.01
186,1782588367384,0.059999999999999998,-0.029999999999999999,1.01
187,1782588367401,0.059999999999999998,-0.029999999999999999,1.01
188,1782588367434,0.059999999999999998,-0.029999999999999999,1.01
189,1782588367450,0.059999999999999998,-0.029999999999999999,1.01
190,1782588367534,0.059999999999999998,-0.029999999999999999,1.01
191,1782588367600,0.059999999999999998,-0.029999999999999999,1.01
192,1782588367651,0.059999999999999998,-0.029999999999999999,1.01
193,1782588367667,0.059999999999999998,-0.029999999999999999,1.01
194,1782588367700,0.059999999999999998,-0.029999999999999999,1.01
195,1782588367733,0.059999999999999998,-0.029999999999999999,1.01
196,1782588367784,0.059999999999999998,-0.029999999999999999,1.01
197,1782588367833,0.059999999999999998,-0.029999999999999999,1.01
198,1782588367950,0.059999999999999998,-0.029999999999999999,1.01
199,1782588367983,0.059999999999999998,-0.029999999999999999,1.01
200,1782588368016,0.059999999999999998,-0.029999999999999999,1.01
201,1782588368034,0.059999999999999998,-0.029999999999999999,1.01
202,1782588368067,0.059999999999999998,-0.029999999999999999,1.01
203,1782588368084,0.059999999999999998,-0.029999999999999999,1.01
204,1782588368150,0.059999999999999998,-0.029999999999999999,1.01
205,1782588368150,0.059999999999999998,-0.029999999999999999,1.01
206,1782588368183,0.059999999999999998,-0.029999999999999999,1.01
207,1782588368200,0.059999999999999998,-0.029999999999999999,1.01
208,1782588368216,0.059999999999999998,-0.029999999999999999,1.01
209,1782588368266,0.059999999999999998,-0.029999999999999999,1.01
210,1782588368349,0.059999999999999998,-0.029999999999999999,1.01
211,1782588368400,0.059999999999999998,-0.029999999999999999,1.01
212,1782588368466,0.059999999999999998,-0.029999999999999999,1.01
213,1782588368517,0.059999999999999998,-0.029999999999999999,1.01
214,1782588368567,0.059999999999999998,-0.029999999999999999,1.01
215,1782588368617,0.059999999999999998,-0.029999999999999999,1.01
216,1782588368666,0.059999999999999998,-0.029999999999999999,1.01
217,1782588368732,0.059999999999999998,-0.029999999999999999,1.01
218,1782588368766,0.059999999999999998,-0.029999999999999999,1.01
219,1782588368832,0.059999999999999998,-0.029999999999999999,1.01
220,1782588368884,0.059999999999999998,-0.029999999999999999,1.01
221,1782588368932,0.059999999999999998,-0.029999999999999999,1.01
222,1782588368966,0.059999999999999998,-0.029999999999999999,1.01
223,1782588368983,0.059999999999999998,-0.029999999999999999,1.01
224,1782588369017,0.059999999999999998,-0.029999999999999999,1.01
225,1782588369032,0.059999999999999998,-0.029999999999999999,1.01
226,1782588369066,0.059999999999999998,-0.029999999999999999,1.01
227,1782588369116,0.059999999999999998,-0.029999999999999999,1.01
228,1782588369166,0.059999999999999998,-0.029999999999999999,1.01
229,1782588369216,0.059999999999999998,-0.029999999999999999,1.01
230,1782588369282,0.059999999999999998,-0.029999999999999999,1.01
231,1782588369349,0.059999999999999998,-0.029999999999999999,1.01
232,1782588369382,0.059999999999999998,-0.029999999999999999,1.02
233,1782588369433,0.059999999999999998,-0.029999999999999999,1.02
234,1782588369482,0.059999999999999998,-0.029999999999999999,1.02
235,1782588369533,0.059999999999999998,-0.029999999999999999,1.02
236,1782588369583,0.059999999999999998,-0.029999999999999999,1.01
237,1782588369632,0.059999999999999998,-0.029999999999999999,1.01
238,1782588369682,0.059999999999999998,-0.029999999999999999,1.01
239,1782588369749,0.059999999999999998,-0.029999999999999999,1.01
240,1782588369799,0.059999999999999998,-0.029999999999999999,1.01
241,1782588369815,0.059999999999999998,-0.029999999999999999,1.01
242,1782588369848,0.059999999999999998,-0.029999999999999999,1.02
243,1782588369866,0.059999999999999998,-0.029999999999999999,1.02
244,1782588369915,0.059999999999999998,-0.02,1.01
245,1782588369932,0.059999999999999998,-0.02,1.01
246,1782588369965,0.059999999999999998,-0.02,1.01
247,1782588370031,0.059999999999999998,-0.029999999999999999,1.01
248,1782588370083,0.059999999999999998,-0.029999999999999999,1.01
249,1782588370131,0.059999999999999998,-0.029999999999999999,1.01
250,1782588370182,0.059999999999999998,-0.029999999999999999,1.01
251,1782588370249,0.059999999999999998,-0.029999999999999999,1.01
252,1782588370281,0.059999999999999998,-0.02,1.01
253,1782588370332,0.059999999999999998,-0.02,1.01
254,1782588370381,0.059999999999999998,-0.02,1.01
255,1782588370449,0.059999999999999998,-0.029999999999999999,1.01
256,1782588370498,0.059999999999999998,-0.029999999999999999,1.02
257,1782588370548,0.059999999999999998,-0.029999999999999999,1.01
258,1782588370581,0.059999999999999998,-0.029999999999999999,1.01
259,1782588370648,0.059999999999999998,-0.02,1.01
260,1782588370698,0.059999999999999998,-0.02,1.01
261,1782588370715,0.059999999999999998,-0.02,1.01
262,1782588370748,0.059999999999999998,-0.029999999999999999,1.01
263,1782588370764,0.059999999999999998,-0.029999999999999999,1.01
264,1782588370798,0.059999999999999998,-0.029999999999999999,1.01
265,1782588370832,0.059999999999999998,-0.029999999999999999,1.01
266,1782588370899,0.059999999999999998,-0.029999999999999999,1.01
267,1782588370931,0.059999999999999998,-0.029999999999999999,1.01
268,1782588371031,0.059999999999999998,-0.029999999999999999,1.01
269,1782588371081,0.059999999999999998,-0.029999999999999999,1.01
270,1782588371148,0.059999999999999998,-0.029999999999999999,1.01
271,1782588371198,0.059999999999999998,-0.029999999999999999,1.01
272,1782588371264,0.059999999999999998,-0.029999999999999999,1.01
273,1782588371315,0.059999999999999998,-0.029999999999999999,1.01
274,1782588371347,0.059999999999999998,-0.029999999999999999,1.01
275,1782588371397,0.059999999999999998,-0.029999999999999999,1.01
276,1782588371447,0.059999999999999998,-0.029999999999999999,1.01
277,1782588371481,0.059999999999999998,-0.029999999999999999,1.01
278,1782588371498,0.059999999999999998,-0.029999999999999999,1.01
279,1782588371530,0.059999999999999998,-0.029999999999999999,1.01
280,1782588371581,0.059999999999999998,-0.029999999999999999,1.01
281,1782588371630,0.059999999999999998,-0.029999999999999999,1.01
282,1782588371681,0.059999999999999998,-0.029999999999999999,1.01
283,1782588371714,0.059999999999999998,-0.029999999999999999,1.02
284,1782588371763,0.059999999999999998,-0.029999999999999999,1.01
285,1782588371814,0.059999999999999998,-0.029999999999999999,1.01
286,1782588371864,0.059999999999999998,-0.029999999999999999,1.01
287,1782588371914,0.059999999999999998,-0.029999999999999999,1.01
288,1782588371963,0.059999999999999998,-0.029999999999999999,1.01
289,1782588372014,0.059999999999999998,-0.029999999999999999,1.01
290,1782588372046,0.059999999999999998,-0.029999999999999999,1.01
291,1782588372097,0.059999999999999998,-0.029999999999999999,1.01
292,1782588372164,0.059999999999999998,-0.029999999999999999,1.02
293,1782588372196,0.059999999999999998,-0.029999999999999999,1.01
294,1782588372213,0.059999999999999998,-0.029999999999999999,1.01
295,1782588372247,0.059999999999999998,-0.029999999999999999,1.01
296,1782588372263,0.059999999999999998,-0.029999999999999999,1.01
297,1782588372296,0.059999999999999998,-0.029999999999999999,1.01
298,1782588372346,0.059999999999999998,-0.029999999999999999,1.01
299,1782588372396,0.059999999999999998,-0.029999999999999999,1.01
300,1782588372429,0.059999999999999998,-0.029999999999999999,1.01
301,1782588372480,0.059999999999999998,-0.029999999999999999,1.01
302,1782588372530,0.059999999999999998,-0.029999999999999999,1.01
303,1782588372580,0.059999999999999998,-0.029999999999999999,1.01
304,1782588372613,0.059999999999999998,-0.029999999999999999,1.01
305,1782588372680,0.059999999999999998,-0.02,1.02
306,1782588372730,0.059999999999999998,-0.02,1.01
307,1782588372779,0.059999999999999998,-0.02,1.02
308,1782588372812,0.059999999999999998,-0.029999999999999999,1.01
309,1782588372880,0.059999999999999998,-0.029999999999999999,1.01
310,1782588372930,0.059999999999999998,-0.029999999999999999,1.01
311,1782588372963,0.059999999999999998,-0.029999999999999999,1.01
312,1782588372979,0.059999999999999998,-0.029999999999999999,1.01
313,1782588373012,0.059999999999999998,-0.029999999999999999,1.01
314,1782588373030,0.059999999999999998,-0.029999999999999999,1.01
315,1782588373079,0.059999999999999998,-0.029999999999999999,1.01
316,1782588373112,0.059999999999999998,-0.029999999999999999,1.01
317,1782588373196,0.059999999999999998,-0.029999999999999999,1.01
318,1782588373246,0.059999999999999998,-0.029999999999999999,1.01
319,1782588373296,0.059999999999999998,-0.02,1.01
320,1782588373362,0.059999999999999998,-0.02,1.01
321,1782588373412,0.059999999999999998,-0.02,1.01
322,1782588373479,0.059999999999999998,-0.02,1.01
323,1782588373512,0.059999999999999998,-0.02,1.01
324,1782588373529,0.059999999999999998,-0.029999999999999999,1.01
325,1782588373562,0.059999999999999998,-0.029999999999999999,1.01
326,1782588373595,0.059999999999999998,-0.029999999999999999,1.01
327,1782588373629,0.059999999999999998,-0.029999999999999999,1.01
328,1782588373645,0.059999999999999998,-0.029999999999999999,1.01
329,1782588373679,0.059999999999999998,-0.029999999999999999,1.01
330,1782588373941,0.059999999999999998,-0.029999999999999999,1.01
331,1782588373945,0.059999999999999998,-0.029999999999999999,1.01
332,1782588373945,0.059999999999999998,-0.029999999999999999,1.01
333,1782588373962,0.059999999999999998,-0.029999999999999999,1.01
334,1782588373962,0.059999999999999998,-0.029999999999999999,1.01
335,1782588373978,0.059999999999999998,-0.029999999999999999,1.02
336,1782588374028,0.059999999999999998,-0.029999999999999999,1.02
337,1782588374078,0.059999999999999998,-0.029999999999999999,1.02
338,1782588374145,0.059999999999999998,-0.029999999999999999,1.02
339,1782588374178,0.059999999999999998,-0.029999999999999999,1.02
340,1782588374245,0.059999999999999998,-0.029999999999999999,1.02
341,1782588374311,0.059999999999999998,-0.029999999999999999,1.01
342,1782588374345,0.059999999999999998,-0.029999999999999999,1.01
343,1782588374379,0.059999999999999998,-0.029999999999999999,1.01
344,1782588374462,0.059999999999999998,-0.029999999999999999,1.01
345,1782588374495,0.059999999999999998,-0.029999999999999999,1.01
346,1782588374545,0.059999999999999998,-0.029999999999999999,1.01
347,1782588374595,0.059999999999999998,-0.029999999999999999,1.01
348,1782588374661,0.059999999999999998,-0.029999999999999999,1.01
349,1782588374711,0.059999999999999998,-0.029999999999999999,1.01
350,1782588374745,0.059999999999999998,-0.029999999999999999,1.01
351,1782588374811,0.059999999999999998,-0.029999999999999999,1.01
352,1782588374861,0.059999999999999998,-0.029999999999999999,1.01
353,1782588375028,0.059999999999999998,-0.029999999999999999,1.01
354,1782588375045,0.059999999999999998,-0.029999999999999999,1.02
355,1782588375078,0.059999999999999998,-0.02,1.02
356,1782588375111,0.059999999999999998,-0.029999999999999999,1.01
357,1782588375178,0.059999999999999998,-0.02,1.01
358,1782588375228,0.059999999999999998,-0.02,1.01
359,1782588375278,0.059999999999999998,-0.02,1.01
360,1782588375344,0.059999999999999998,-0.02,1.02
361,1782588375377,0.059999999999999998,-0.02,1.01
362,1782588375411,0.059999999999999998,-0.02,1.01
363,1782588375444,0.059999999999999998,-0.02,1.01
364,1782588375494,0.059999999999999998,-0.02,1.01
365,1782588375577,0.059999999999999998,-0.02,1.01
366,1782588375661,0.059999999999999998,-0.02,1.01
367,1782588375677,0.059999999999999998,-0.029999999999999999,1.01
368,1782588375694,0.059999999999999998,-0.02,1.01
369,1782588375744,0.059999999999999998,-0.029999999999999999,1.02
370,1782588375828,0.059999999999999998,-0.029999999999999999,1.02
371,1782588375928,0.059999999999999998,-0.029999999999999999,1.02
372,1782588375944,0.059999999999999998,-0.029999999999999999,1.02
373,1782588375960,0.059999999999999998,-0.029999999999999999,1.02
374,1782588376027,0.059999999999999998,-0.02,1.01
375,1782588376077,0.059999999999999998,-0.02,1.02
376,1782588376144,0.059999999999999998,-0.02,1.02
377,1782588376178,0.059999999999999998,-0.02,1.02
378,1782588376211,0.059999999999999998,-0.029999999999999999,1.01
379,1782588376344,0.059999999999999998,-0.029999999999999999,1.01
380,1782588376411,0.059999999999999998,-0.02,1.01
381,1782588376460,0.059999999999999998,-0.02,1.01
382,1782588376510,0.059999999999999998,-0.02,1.01
383,1782588376560,0.059999999999999998,-0.02,1.01
384,1782588376576,0.059999999999999998,-0.02,1.01
385,1782588376626,0.059999999999999998,-0.02,1.01
386,1782588376643,0.059999999999999998,-0.02,1.01
387,1782588376676,0.059999999999999998,-0.02,1.01
388,1782588376710,0.059999999999999998,-0.02,1.01
389,1782588376726,0.059999999999999998,-0.02,1.01
390,1782588376760,0.059999999999999998,-0.02,1.01
391,1782588376809,0.059999999999999998,-0.029999999999999999,1.01
392,1782588376860,0.059999999999999998,-0.029999999999999999,1.01
393,1782588376893,0.059999999999999998,-0.029999999999999999,1.01
394,1782588376926,0.059999999999999998,-0.029999999999999999,1.01
395,1782588376943,0.059999999999999998,-0.029999999999999999,1.01
396,1782588376959,0.059999999999999998,-0.029999999999999999,1.01
397,1782588376992,0.059999999999999998,-0.029999999999999999,1.01
398,1782588377026,0.059999999999999998,-0.029999999999999999,1.01
399,1782588377076,0.059999999999999998,-0.029999999999999999,1.01
400,1782588377209,0.059999999999999998,-0.029999999999999999,1.01
401,1782588377226,0.059999999999999998,-0.029999999999999999,1.01
402,1782588377259,0.059999999999999998,-0.029999999999999999,1.01
403,1782588377275,0.059999999999999998,-0.029999999999999999,1.01
404,1782588377359,0.059999999999999998,-0.029999999999999999,1.01
405,1782588377409,0.059999999999999998,-0.029999999999999999,1.01
406,1782588377475,0.059999999999999998,-0.029999999999999999,1.01
407,1782588377492,0.059999999999999998,-0.029999999999999999,1.01
408,1782588377509,0.059999999999999998,-0.029999999999999999,1.01
409,1782588377542,0.059999999999999998,-0.029999999999999999,1.01
410,1782588377559,0.059999999999999998,-0.029999999999999999,1.01
411,1782588377659,0.059999999999999998,-0.029999999999999999,1.01
412,1782588377742,0.059999999999999998,-0.029999999999999999,1.01
413,1782588377808,0.059999999999999998,-0.029999999999999999,1.01
414,1782588377842,0.059999999999999998,-0.029999999999999999,1.01
415,1782588377875,0.059999999999999998,-0.029999999999999999,1.01
416,1782588377975,0.059999999999999998,-0.029999999999999999,1.01
417,1782588378008,0.059999999999999998,-0.029999999999999999,1.01
418,1782588378075,0.059999999999999998,-0.029999999999999999,1.01
419,1782588378092,0.059999999999999998,-0.029999999999999999,1.01
420,1782588378125,0.059999999999999998,-0.029999999999999999,1.01
421,1782588378241,0.059999999999999998,-0.029999999999999999,1.01
422,1782588378291,0.059999999999999998,-0.029999999999999999,1.01
423,1782588378358,0.059999999999999998,-0.029999999999999999,1.01
424,1782588378391,0.059999999999999998,-0.029999999999999999,1.01
425,1782588378441,0.059999999999999998,-0.029999999999999999,1.01
426,1782588378475,0.059999999999999998,-0.029999999999999999,1.01
427,1782588378508,0.059999999999999998,-0.029999999999999999,1.01
428,1782588378591,0.059999999999999998,-0.029999999999999999,1.01
429,1782588378658,0.059999999999999998,-0.029999999999999999,1.01
430,1782588378741,0.059999999999999998,-0.029999999999999999,1.01
431,1782588378808,0.059999999999999998,-0.029999999999999999,1.01
432,1782588378841,0.059999999999999998,-0.029999999999999999,1.01
433,1782588378875,0.059999999999999998,-0.029999999999999999,1.01
434,1782588378891,0.059999999999999998,-0.029999999999999999,1.01
435,1782588378941,0.059999999999999998,-0.029999999999999999,1.01
436,1782588378974,0.059999999999999998,-0.029999999999999999,1.01
437,1782588379007,0.059999999999999998,-0.029999999999999999,1.01
438,1782588379041,0.059999999999999998,-0.02,1.01
439,1782588379074,0.059999999999999998,-0.02,1.01
440,1782588379141,0.059999999999999998,-0.02,1.01
441,1782588379190,0.059999999999999998,-0.02,1.01
442,1782588379291,0.059999999999999998,-0.02,1.01
443,1782588379324,0.059999999999999998,-0.02,1.01
444,1782588379341,0.059999999999999998,-0.02,1.01
445,1782588379390,0.059999999999999998,-0.02,1.01
446,1782588379457,0.059999999999999998,-0.02,1.01
447,1782588379491,0.059999999999999998,-0.02,1.01
448,1782588379558,0.059999999999999998,-0.02,1.01
449,1782588379574,0.059999999999999998,-0.029999999999999999,1.01
450,1782588379657,0.059999999999999998,-0.029999999999999999,1.01
451,1782588379906,0.059999999999999998,-0.029999999999999999,1.01
452,1782588379906,0.059999999999999998,-0.029999999999999999,1.01
453,1782588379940,0.059999999999999998,-0.029999999999999999,1.01
454,1782588379957,0.059999999999999998,-0.029999999999999999,1.01
455,1782588380007,0.059999999999999998,-0.029999999999999999,1.01
456,1782588380040,0.059999999999999998,-0.029999999999999999,1.01
457,1782588380123,0.059999999999999998,-0.029999999999999999,1.01
458,1782588380156,0.059999999999999998,-0.029999999999999999,1.01
459,1782588380173,0.059999999999999998,-0.029999999999999999,1.01
460,1782588380206,0.059999999999999998,-0.029999999999999999,1.01
461,1782588380240,0.059999999999999998,-0.029999999999999999,1.01
462,1782588380306,0.059999999999999998,-0.029999999999999999,1.01
463,1782588380373,0.059999999999999998,-0.029999999999999999,1.01
464,1782588380423,0.059999999999999998,-0.029999999999999999,1.01
465,1782588380490,0.059999999999999998,-0.029999999999999999,1.01
466,1782588380556,0.059999999999999998,-0.029999999999999999,1.01
467,1782588380590,0.059999999999999998,-0.029999999999999999,1.01
468,1782588380606,0.059999999999999998,-0.029999999999999999,1.01
469,1782588380639,0.059999999999999998,-0.029999999999999999,1.01
470,1782588380722,0.059999999999999998,-0.029999999999999999,1.02
471,1782588380789,0.059999999999999998,-0.029999999999999999,1.02
472,1782588380889,0.059999999999999998,-0.029999999999999999,1.01
473,1782588380906,0.059999999999999998,-0.029999999999999999,1.01
474,1782588380939,0.059999999999999998,-0.029999999999999999,1.01
475,1782588380989,0.059999999999999998,-0.029999999999999999,1.01
476,1782588381023,0.059999999999999998,-0.029999999999999999,1.01
477,1782588381106,0.059999999999999998,-0.029999999999999999,1.01
478,1782588381156,0.059999999999999998,-0.029999999999999999,1.01
479,1782588381173,0.059999999999999998,-0.029999999999999999,1.01
480,1782588381205,0.059999999999999998,-0.029999999999999999,1.01
481,1782588381222,0.059999999999999998,-0.029999999999999999,1.01
482,1782588381256,0.059999999999999998,-0.029999999999999999,1.01
483,1782588381338,0.059999999999999998,-0.029999999999999999,1.01
484,1782588381372,0.059999999999999998,-0.029999999999999999,1.01
485,1782588381406,0.059999999999999998,-0.029999999999999999,1.01
486,1782588381438,0.059999999999999998,-0.029999999999999999,1.01
487,1782588381455,0.059999999999999998,-0.029999999999999999,1.01
488,1782588381472,0.059999999999999998,-0.029999999999999999,1.01
489,1782588381506,0.059999999999999998,-0.029999999999999999,1.01
490,1782588381539,0.059999999999999998,-0.029999999999999999,1.01
491,1782588381572,0.059999999999999998,-0.029999999999999999,1.01
492,1782588381672,0.059999999999999998,-0.029999999999999999,1.01
493,1782588381706,0.059999999999999998,-0.029999999999999999,1.01
494,1782588381722,0.059999999999999998,-0.029999999999999999,1.01
495,1782588381772,0.059999999999999998,-0.029999999999999999,1.01
496,1782588381821,0.059999999999999998,-0.029999999999999999,1.01
497,1782588381855,0.059999999999999998,-0.029999999999999999,1.01
498,1782588381905,0.059999999999999998,-0.029999999999999999,1.01
499,1782588381938,0.059999999999999998,-0.029999999999999999,1.01
500,1782588381955,0.059999999999999998,-0.029999999999999999,1.01
501,1782588382005,0.059999999999999998,-0.029999999999999999,1.01
502,1782588382072,0.059999999999999998,-0.029999999999999999,1.01
503,1782588382155,0.059999999999999998,-0.029999999999999999,1.01
504,1782588382205,0.059999999999999998,-0.029999999999999999,1.01
505,1782588382255,0.059999999999999998,-0.029999999999999999,1.01
506,1782588382288,0.070000000000000007,-0.029999999999999999,1.01
507,1782588382322,0.070000000000000007,-0.029999999999999999,1.01
508,1782588382338,0.070000000000000007,-0.029999999999999999,1.01
509,1782588382388,0.059999999999999998,-0.029999999999999999,1.01
510,1782588382421,0.059999999999999998,-0.029999999999999999,1.01
511,1782588382488,0.059999999999999998,-0.029999999999999999,1.01
512,1782588382521,0.059999999999999998,-0.029999999999999999,1.01
513,1782588382538,0.059999999999999998,-0.029999999999999999,1.01
514,1782588382604,0.059999999999999998,-0.029999999999999999,1.01
515,1782588382704,0.059999999999999998,-0.029999999999999999,1.01
516,1782588382738,0.059999999999999998,-0.029999999999999999,1.01
517,1782588382771,0.059999999999999998,-0.029999999999999999,1.01
518,1782588382822,0.059999999999999998,-0.029999999999999999,1.01
519,1782588382854,0.059999999999999998,-0.029999999999999999,1.01
520,1782588382888,0.059999999999999998,-0.029999999999999999,1.01
521,1782588382937,0.059999999999999998,-0.029999999999999999,1.01
522,1782588382954,0.059999999999999998,-0.029999999999999999,1.02
523,1782588383004,0.059999999999999998,-0.029999999999999999,1.01
524,1782588383054,0.059999999999999998,-0.029999999999999999,1.01
525,1782588383120,0.059999999999999998,-0.029999999999999999,1.01
526,1782588383187,0.059999999999999998,-0.029999999999999999,1.01
527,1782588383220,0.059999999999999998,-0.029999999999999999,1.01
528,1782588383254,0.059999999999999998,-0.029999999999999999,1.01
529,1782588383270,0.059999999999999998,-0.029999999999999999,1.02
530,1782588383320,0.059999999999999998,-0.029999999999999999,1.02
531,1782588383387,0.059999999999999998,-0.02,1.02
532,1782588383404,0.059999999999999998,-0.02,1.02
533,1782588383470,0.059999999999999998,-0.02,1.01
534,1782588383537,0.059999999999999998,-0.02,1.01
535,1782588383587,0.059999999999999998,-0.029999999999999999,1.01
536,1782588383703,0.059999999999999998,-0.029999999999999999,1.01
537,1782588383804,0.059999999999999998,-0.029999999999999999,1.02
538,1782588383903,0.059999999999999998,-0.029999999999999999,1.01
539,1782588383970,0.059999999999999998,-0.029999999999999999,1.01
540,1782588384020,0.059999999999999998,-0.029999999999999999,1.01
541,1782588384053,0.059999999999999998,-0.029999999999999999,1.01
542,1782588384070,0.059999999999999998,-0.029999999999999999,1.01
543,1782588384103,0.059999999999999998,-0.029999999999999999,1.01
544,1782588384136,0.059999999999999998,-0.029999999999999999,1.01
545,1782588384220,0.059999999999999998,-0.029999999999999999,1.01
546,1782588384253,0.059999999999999998,-0.029999999999999999,1.01
547,1782588384303,0.059999999999999998,-0.029999999999999999,1.01
548,1782588384403,0.059999999999999998,-0.029999999999999999,1.01
549,1782588384486,0.059999999999999998,-0.029999999999999999,1.01
550,1782588384669,0.059999999999999998,-0.029999999999999999,1.01
551,1782588384703,0.059999999999999998,-0.029999999999999999,1.01
552,1782588384956,0.059999999999999998,-0.029999999999999999,1.02
553,1782588384969,0.059999999999999998,-0.029999999999999999,1.02
554,1782588384969,0.059999999999999998,-0.029999999999999999,1.01
555,1782588384969,0.059999999999999998,-0.029999999999999999,1.01
556,1782588385002,0.059999999999999998,-0.029999999999999999,1.01
557,1782588385020,0.059999999999999998,-0.029999999999999999,1.01
558,1782588385069,0.059999999999999998,-0.029999999999999999,1.01
559,1782588385202,0.059999999999999998,-0.029999999999999999,1.01
560,1782588385253,0.059999999999999998,-0.029999999999999999,1.02
561,1782588385319,0.059999999999999998,-0.029999999999999999,1.01
562,1782588385386,0.059999999999999998,-0.029999999999999999,1.01
563,1782588385452,0.059999999999999998,-0.029999999999999999,1.01
564,1782588385485,0.059999999999999998,-0.029999999999999999,1.01
565,1782588385535,0.059999999999999998,-0.02,1.01
566,1782588385568,0.059999999999999998,-0.02,1.01
567,1782588385635,0.059999999999999998,-0.02,1.01
568,1782588385686,0.059999999999999998,-0.029999999999999999,1.01
569,1782588385819,0.059999999999999998,-0.029999999999999999,1.01
570,1782588385836,0.059999999999999998,-0.029999999999999999,1.01
571,1782588385869,0.059999999999999998,-0.029999999999999999,1.01
572,1782588385902,0.059999999999999998,-0.029999999999999999,1.01
573,1782588385952,0.059999999999999998,-0.029999999999999999,1.01
574,1782588386168,0.059999999999999998,-0.029999999999999999,1.01
575,1782588386236,0.059999999999999998,-0.029999999999999999,1.01
576,1782588386285,0.059999999999999998,-0.029999999999999999,1.01
577,1782588386334,0.059999999999999998,-0.029999999999999999,1.01
578,1782588386402,0.059999999999999998,-0.029999999999999999,1.01
579,1782588386451,0.059999999999999998,-0.029999999999999999,1.01
580,1782588386485,0.059999999999999998,-0.029999999999999999,1.01
581,1782588386552,0.059999999999999998,-0.029999999999999999,1.01
582,1782588386601,0.059999999999999998,-0.029999999999999999,1.01
583,1782588386685,0.059999999999999998,-0.029999999999999999,1.01
584,1782588386751,0.059999999999999998,-0.029999999999999999,1.01
585,1782588386835,0.059999999999999998,-0.029999999999999999,1.01
586,1782588386918,0.059999999999999998,-0.029999999999999999,1.01
587,1782588386984,0.059999999999999998,-0.029999999999999999,1.01
588,1782588387050,0.059999999999999998,-0.029999999999999999,1.01
589,1782588387167,0.059999999999999998,-0.029999999999999999,1.01
590,1782588387234,0.059999999999999998,-0.029999999999999999,1.01
591,1782588387267,0.059999999999999998,-0.029999999999999999,1.01
592,1782588387300,0.059999999999999998,-0.029999999999999999,1.01
593,1782588387317,0.059999999999999998,-0.029999999999999999,1.01
594,1782588387334,0.059999999999999998,-0.029999999999999999,1.01
595,1782588387384,0.059999999999999998,-0.029999999999999999,1.01
596,1782588387467,0.059999999999999998,-0.029999999999999999,1.01
597,1782588387567,0.059999999999999998,-0.029999999999999999,1.01
598,1782588387584,0.059999999999999998,-0.029999999999999999,1.01
599,1782588387600,0.059999999999999998,-0.029999999999999999,1.01
600,1782588387618,0.059999999999999998,-0.029999999999999999,1.01
601,1782588387733,0.059999999999999998,-0.029999999999999999,1.01
602,1782588387767,0.059999999999999998,-0.029999999999999999,1.01
603,1782588387851,0.059999999999999998,-0.029999999999999999,1.01
604,1782588387950,0.059999999999999998,-0.029999999999999999,1.01
605,1782588387966,0.059999999999999998,-0.029999999999999999,1.01
606,1782588387983,0.059999999999999998,-0.029999999999999999,1.01
607,1782588388017,0.059999999999999998,-0.029999999999999999,1.01
608,1782588388067,0.059999999999999998,-0.029999999999999999,1.01
609,1782588388099,0.059999999999999998,-0.029999999999999999,1.01
610,1782588388233,0.070000000000000007,-0.029999999999999999,1.01
611,1782588388300,0.070000000000000007,-0.029999999999999999,1.01
612,1782588388333,0.059999999999999998,-0.029999999999999999,1.01
613,1782588388349,0.059999999999999998,-0.029999999999999999,1.01
614,1782588388366,0.059999999999999998,-0.029999999999999999,1.01
615,1782588388433,0.059999999999999998,-0.029999999999999999,1.02
616,1782588388500,0.059999999999999998,-0.029999999999999999,1.02
617,1782588388532,0.059999999999999998,-0.029999999999999999,1.02
618,1782588388600,0.059999999999999998,-0.029999999999999999,1.01
619,1782588388616,0.059999999999999998,-0.029999999999999999,1.01
620,1782588388632,0.059999999999999998,-0.029999999999999999,1.01
621,1782588388666,0.059999999999999998,-0.029999999999999999,1.01
622,1782588388699,0.059999999999999998,-0.029999999999999999,1.01
623,1782588388732,0.059999999999999998,-0.029999999999999999,1.01
624,1782588388749,0.059999999999999998,-0.029999999999999999,1.01
625,1782588388783,0.059999999999999998,-0.029999999999999999,1.01
626,1782588388799,0.059999999999999998,-0.029999999999999999,1.01
627,1782588388832,0.059999999999999998,-0.029999999999999999,1.02
628,1782588388899,0.059999999999999998,-0.029999999999999999,1.02
629,1782588388932,0.059999999999999998,-0.029999999999999999,1.02
630,1782588388983,0.059999999999999998,-0.029999999999999999,1.02
631,1782588389049,0.059999999999999998,-0.02,1.01
632,1782588389132,0.059999999999999998,-0.029999999999999999,1.01
633,1782588389199,0.059999999999999998,-0.029999999999999999,1.01
634,1782588389266,0.059999999999999998,-0.029999999999999999,1.02
635,1782588389299,0.059999999999999998,-0.02,1.01
636,1782588389349,0.059999999999999998,-0.02,1.01
637,1782588389365,0.059999999999999998,-0.02,1.01
638,1782588389416,0.059999999999999998,-0.02,1.01
639,1782588389449,0.059999999999999998,-0.02,1.01
640,1782588389466,0.059999999999999998,-0.02,1.01
641,1782588389515,0.059999999999999998,-0.02,1.01
642,1782588389566,0.059999999999999998,-0.02,1.01
643,1782588389615,0.059999999999999998,-0.02,1.02
644,1782588389632,0.059999999999999998,-0.02,1.01
645,1782588389648,0.059999999999999998,-0.02,1.01
646,1782588389666,0.059999999999999998,-0.02,1.01
647,1782588389698,0.059999999999999998,-0.02,1.01
648,1782588389732,0.059999999999999998,-0.029999999999999999,1.01
649,1782588389898,0.059999999999999998,-0.029999999999999999,1.01
650,1782588389931,0.059999999999999998,-0.029999999999999999,1.01
651,1782588389965,0.059999999999999998,-0.029999999999999999,1.01
652,1782588389998,0.059999999999999998,-0.029999999999999999,1.01
653,1782588390032,0.059999999999999998,-0.029999999999999999,1.02
654,1782588390082,0.059999999999999998,-0.029999999999999999,1.02
655,1782588390148,0.059999999999999998,-0.029999999999999999,1.01
656,1782588390198,0.059999999999999998,-0.029999999999999999,1.01
657,1782588390265,0.059999999999999998,-0.029999999999999999,1.01
658,1782588390298,0.059999999999999998,-0.029999999999999999,1.01
659,1782588390332,0.059999999999999998,-0.029999999999999999,1.01
660,1782588390348,0.059999999999999998,-0.029999999999999999,1.01
661,1782588390381,0.059999999999999998,-0.029999999999999999,1.02
662,1782588390414,0.059999999999999998,-0.029999999999999999,1.02
663,1782588390448,0.059999999999999998,-0.029999999999999999,1.01
664,1782588390481,0.059999999999999998,-0.029999999999999999,1.01
665,1782588390531,0.059999999999999998,-0.029999999999999999,1.01
666,1782588390581,0.059999999999999998,-0.029999999999999999,1.01
667,1782588390631,0.059999999999999998,-0.029999999999999999,1.01
668,1782588390647,0.059999999999999998,-0.029999999999999999,1.01
669,1782588390698,0.059999999999999998,-0.029999999999999999,1.01
670,1782588390731,0.059999999999999998,-0.02,1.01
671,1782588390831,0.059999999999999998,-0.02,1.01
672,1782588390897,0.059999999999999998,-0.02,1.01
673,1782588390930,0.059999999999999998,-0.02,1.01
674,1782588390981,0.059999999999999998,-0.02,1.01
675,1782588391015,0.059999999999999998,-0.029999999999999999,1.01
676,1782588391031,0.059999999999999998,-0.029999999999999999,1.02
677,1782588391097,0.059999999999999998,-0.029999999999999999,1.01
678,1782588391164,0.059999999999999998,-0.029999999999999999,1.01
679,1782588391198,0.059999999999999998,-0.029999999999999999,1.01
680,1782588391214,0.059999999999999998,-0.029999999999999999,1.01
681,1782588391230,0.059999999999999998,-0.029999999999999999,1.01
682,1782588391248,0.059999999999999998,-0.029999999999999999,1.01
683,1782588391281,0.059999999999999998,-0.029999999999999999,1.01
684,1782588391430,0.059999999999999998,-0.02,1.01
685,1782588391514,0.059999999999999998,-0.02,1.01
686,1782588391530,0.059999999999999998,-0.02,1.01
687,1782588391547,0.059999999999999998,-0.02,1.01
688,1782588391580,0.059999999999999998,-0.02,1.02
689,1782588391597,0.059999999999999998,-0.02,1.02
690,1782588391647,0.059999999999999998,-0.02,1.02
691,1782588391680,0.059999999999999998,-0.02,1.02
692,1782588391746,0.059999999999999998,-0.02,1.02
693,1782588391780,0.059999999999999998,-0.02,1.01
694,1782588391797,0.059999999999999998,-0.02,1.01
695,1782588391813,0.059999999999999998,-0.02,1.01
696,1782588391847,0.059999999999999998,-0.029999999999999999,1.01
697,1782588391930,0.059999999999999998,-0.029999999999999999,1.02
698,1782588391996,0.059999999999999998,-0.029999999999999999,1.02
699,1782588392064,0.059999999999999998,-0.029999999999999999,1.02
700,1782588392113,0.059999999999999998,-0.029999999999999999,1.02
701,1782588392130,0.059999999999999998,-0.029999999999999999,1.02
702,1782588392163,0.059999999999999998,-0.029999999999999999,1.01
703,1782588392196,0.059999999999999998,-0.029999999999999999,1.01
704,1782588392230,0.059999999999999998,-0.029999999999999999,1.01
705,1782588392296,0.059999999999999998,-0.029999999999999999,1.01
706,1782588392346,0.059999999999999998,-0.029999999999999999,1.01
707,1782588392363,0.059999999999999998,-0.029999999999999999,1.01
708,1782588392396,0.059999999999999998,-0.029999999999999999,1.01
709,1782588392413,0.059999999999999998,-0.029999999999999999,1.01
710,1782588392547,0.059999999999999998,-0.029999999999999999,1.02
711,1782588392679,0.059999999999999998,-0.029999999999999999,1.01
712,1782588392730,0.059999999999999998,-0.029999999999999999,1.01
713,1782588392763,0.059999999999999998,-0.029999999999999999,1.01
714,1782588392813,0.059999999999999998,-0.029999999999999999,1.01
715,1782588392879,0.059999999999999998,-0.029999999999999999,1.01
716,1782588392929,0.059999999999999998,-0.029999999999999999,1.01
717,1782588393012,0.059999999999999998,-0.029999999999999999,1.01
718,1782588393079,0.059999999999999998,-0.029999999999999999,1.01
719,1782588393229,0.059999999999999998,-0.029999999999999999,1.01
720,1782588393262,0.059999999999999998,-0.029999999999999999,1.01
721,1782588393329,0.059999999999999998,-0.029999999999999999,1.01
722,1782588393345,0.059999999999999998,-0.029999999999999999,1.01
723,1782588393395,0.059999999999999998,-0.029999999999999999,1.01
724,1782588393445,0.059999999999999998,-0.029999999999999999,1.01
725,1782588393495,0.059999999999999998,-0.029999999999999999,1.01
726,1782588393562,0.059999999999999998,-0.029999999999999999,1.01
727,1782588393596,0.059999999999999998,-0.029999999999999999,1.01
728,1782588393629,0.059999999999999998,-0.029999999999999999,1.01
729,1782588393662,0.059999999999999998,-0.029999999999999999,1.01
730,1782588393679,0.059999999999999998,-0.029999999999999999,1.01
731,1782588393695,0.059999999999999998,-0.029999999999999999,1.01
732,1782588393711,0.059999999999999998,-0.029999999999999999,1.01
733,1782588393762,0.059999999999999998,-0.029999999999999999,1.01
734,1782588393812,0.059999999999999998,-0.029999999999999999,1.01
735,1782588393845,0.059999999999999998,-0.029999999999999999,1.01
736,1782588393978,0.059999999999999998,-0.029999999999999999,1.01
737,1782588394095,0.059999999999999998,-0.029999999999999999,1.01
738,1782588394129,0.059999999999999998,-0.029999999999999999,1.01
739,1782588394144,0.059999999999999998,-0.029999999999999999,1.01
740,1782588394179,0.059999999999999998,-0.029999999999999999,1.01
741,1782588394211,0.059999999999999998,-0.029999999999999999,1.01
742,1782588394228,0.059999999999999998,-0.029999999999999999,1.01
743,1782588394262,0.059999999999999998,-0.029999999999999999,1.01
744,1782588394328,0.059999999999999998,-0.029999999999999999,1.01
745,1782588394361,0.059999999999999998,-0.029999999999999999,1.01
746,1782588394445,0.059999999999999998,-0.029999999999999999,1.01
747,1782588394477,0.059999999999999998,-0.029999999999999999,1.01
748,1782588394495,0.059999999999999998,-0.029999999999999999,1.01
749,1782588394544,0.059999999999999998,-0.029999999999999999,1.01
750,1782588394594,0.059999999999999998,-0.029999999999999999,1.01
751,1782588394661,0.059999999999999998,-0.029999999999999999,1.01
752,1782588394794,0.059999999999999998,-0.029999999999999999,1.01
753,1782588394860,0.059999999999999998,-0.029999999999999999,1.01
754,1782588394911,0.059999999999999998,-0.029999999999999999,1.01
755,1782588394961,0.059999999999999998,-0.029999999999999999,1.01
756,1782588395010,0.059999999999999998,-0.02,1.01
757,1782588395077,0.059999999999999998,-0.02,1.01
758,1782588395094,0.059999999999999998,-0.02,1.01
759,1782588395110,0.059999999999999998,-0.029999999999999999,1.01
760,1782588395228,0.059999999999999998,-0.029999999999999999,1.01
761,1782588395327,0.059999999999999998,-0.029999999999999999,1.01
762,1782588395377,0.059999999999999998,-0.029999999999999999,1.01
763,1782588395427,0.059999999999999998,-0.029999999999999999,1.01
764,1782588395477,0.059999999999999998,-0.029999999999999999,1.01
765,1782588395527,0.059999999999999998,-0.029999999999999999,1.01
766,1782588395577,0.059999999999999998,-0.029999999999999999,1.01
767,1782588395627,0.059999999999999998,-0.029999999999999999,1.01
768,1782588395694,0.059999999999999998,-0.029999999999999999,1.01
769,1782588395979,0.059999999999999998,-0.029999999999999999,1.01
770,1782588395993,0.059999999999999998,-0.029999999999999999,1.01
771,1782588395994,0.059999999999999998,-0.029999999999999999,1.01
772,1782588395994,0.059999999999999998,-0.029999999999999999,1.01
773,1782588396010,0.059999999999999998,-0.029999999999999999,1.01
774,1782588396060,0.059999999999999998,-0.029999999999999999,1.01
775,1782588396109,0.059999999999999998,-0.029999999999999999,1.01
776,1782588396160,0.059999999999999998,-0.029999999999999999,1.01
777,1782588396210,0.059999999999999998,-0.029999999999999999,1.01
778,1782588396343,0.059999999999999998,-0.029999999999999999,1.02
779,1782588396409,0.059999999999999998,-0.029999999999999999,1.02
780,1782588396443,0.059999999999999998,-0.029999999999999999,1.02
781,1782588396526,0.059999999999999998,-0.029999999999999999,1.01
782,1782588396576,0.059999999999999998,-0.029999999999999999,1.01
783,1782588396676,0.059999999999999998,-0.029999999999999999,1.01
784,1782588396726,0.059999999999999998,-0.029999999999999999,1.01
785,1782588396793,0.059999999999999998,-0.029999999999999999,1.01
786,1782588396826,0.059999999999999998,-0.029999999999999999,1.01
787,1782588396909,0.059999999999999998,-0.029999999999999999,1.01
788,1782588396960,0.059999999999999998,-0.029999999999999999,1.01
789,1782588397026,0.059999999999999998,-0.029999999999999999,1.01
790,1782588397060,0.059999999999999998,-0.029999999999999999,1.01
791,1782588397125,0.059999999999999998,-0.029999999999999999,1.01
792,1782588397193,0.059999999999999998,-0.029999999999999999,1.01
793,1782588397242,0.059999999999999998,-0.029999999999999999,1.01
794,1782588397293,0.059999999999999998,-0.029999999999999999,1.01
795,1782588397343,0.070000000000000007,-0.029999999999999999,1.01
796,1782588397409,0.059999999999999998,-0.029999999999999999,1.01
797,1782588397476,0.059999999999999998,-0.029999999999999999,1.01
798,1782588397642,0.059999999999999998,-0.029999999999999999,1.01
799,1782588397725,0.059999999999999998,-0.029999999999999999,1.01
800,1782588397792,0.059999999999999998,-0.029999999999999999,1.01
801,1782588397876,0.059999999999999998,-0.029999999999999999,1.01
802,1782588397926,0.059999999999999998,-0.029999999999999999,1.01
803,1782588398026,0.059999999999999998,-0.029999999999999999,1.01
804,1782588398092,0.059999999999999998,-0.029999999999999999,1.01
805,1782588398142,0.059999999999999998,-0.029999999999999999,1.01
806,1782588398192,0.059999999999999998,-0.029999999999999999,1.01
807,1782588398309,0.059999999999999998,-0.029999999999999999,1.01
808,1782588398409,0.059999999999999998,-0.029999999999999999,1.01
809,1782588398458,0.059999999999999998,-0.029999999999999999,1.01
810,1782588398508,0.059999999999999998,-0.029999999999999999,1.01
811,1782588398557,0.059999999999999998,-0.029999999999999999,1.01
812,1782588398641,0.059999999999999998,-0.029999999999999999,1.01
813,1782588398707,0.059999999999999998,-0.029999999999999999,1.01
814,1782588398808,0.059999999999999998,-0.029999999999999999,1.01
815,1782588398874,0.059999999999999998,-0.029999999999999999,1.01
816,1782588398891,0.059999999999999998,-0.029999999999999999,1.01
817,1782588398974,0.059999999999999998,-0.029999999999999999,1.01
818,1782588399091,0.059999999999999998,-0.029999999999999999,1.01
819,1782588399140,0.059999999999999998,-0.029999999999999999,1.01
820,1782588399174,0.059999999999999998,-0.029999999999999999,1.01
821,1782588399223,0.059999999999999998,-0.029999999999999999,1.01
822,1782588399274,0.059999999999999998,-0.029999999999999999,1.01
823,1782588399323,0.059999999999999998,-0.029999999999999999,1.01
824,1782588399374,0.059999999999999998,-0.029999999999999999,1.01
825,1782588399423,0.059999999999999998,-0.029999999999999999,1.01
826,1782588399457,0.059999999999999998,-0.02,1.01
827,1782588399474,0.059999999999999998,-0.02,1.01
828,1782588399490,0.059999999999999998,-0.029999999999999999,1.01
829,1782588399607,0.059999999999999998,-0.029999999999999999,1.01
830,1782588399690,0.059999999999999998,-0.029999999999999999,1.01
831,1782588399740,0.059999999999999998,-0.029999999999999999,1.01
832,1782588399807,0.059999999999999998,-0.029999999999999999,1.01
833,1782588399857,0.059999999999999998,-0.029999999999999999,1.01
834,1782588399907,0.059999999999999998,-0.029999999999999999,1.01
835,1782588400007,0.059999999999999998,-0.029999999999999999,1.01
836,1782588400039,0.059999999999999998,-0.029999999999999999,1.01
837,1782588400090,0.059999999999999998,-0.029999999999999999,1.01
838,1782588400140,0.059999999999999998,-0.029999999999999999,1.01
839,1782588400206,0.059999999999999998,-0.029999999999999999,1.01
840,1782588400256,0.059999999999999998,-0.029999999999999999,1.01
841,1782588400340,0.059999999999999998,-0.029999999999999999,1.01
842,1782588400373,0.059999999999999998,-0.029999999999999999,1.01
843,1782588400423,0.059999999999999998,-0.029999999999999999,1.01
844,1782588400490,0.059999999999999998,-0.029999999999999999,1.01
845,1782588400623,0.059999999999999998,-0.029999999999999999,1.01
846,1782588400672,0.059999999999999998,-0.02,1.01
847,1782588400722,0.059999999999999998,-0.02,1.01
848,1782588400773,0.059999999999999998,-0.029999999999999999,1.01
849,1782588400823,0.059999999999999998,-0.029999999999999999,1.01
850,1782588400889,0.050000000000000003,-0.029999999999999999,1.01
851,1782588400939,0.050000000000000003,-0.040000000000000001,1.02
852,1782588400989,0.059999999999999998,-0.029999999999999999,1.02
853,1782588401022,0.059999999999999998,-0.029999999999999999,1.02
854,1782588401041,0.059999999999999998,-0.029999999999999999,1.01
855,1782588401072,0.059999999999999998,-0.029999999999999999,1.01
856,1782588401106,0.059999999999999998,-0.029999999999999999,1.01
857,1782588401122,0.059999999999999998,-0.029999999999999999,1.01
858,1782588401172,0.059999999999999998,-0.029999999999999999,1.01
859,1782588401238,0.059999999999999998,-0.029999999999999999,1.01
860,1782588401289,0.059999999999999998,-0.029999999999999999,1.01
861,1782588401338,0.059999999999999998,-0.029999999999999999,1.01
862,1782588401372,0.059999999999999998,-0.029999999999999999,1.01
863,1782588401405,0.059999999999999998,-0.029999999999999999,1.01
864,1782588401439,0.059999999999999998,-0.029999999999999999,1.01
865,1782588401472,0.059999999999999998,-0.029999999999999999,1.01
866,1782588401522,0.059999999999999998,-0.029999999999999999,1.01
867,1782588401572,0.070000000000000007,-0.029999999999999999,1.01
868,1782588401638,0.059999999999999998,-0.029999999999999999,1.01
869,1782588401722,0.059999999999999998,-0.029999999999999999,1.01
870,1782588401738,0.059999999999999998,-0.029999999999999999,1.01
871,1782588401755,0.059999999999999998,-0.029999999999999999,1.01
872,1782588401839,0.059999999999999998,-0.029999999999999999,1.01
873,1782588401871,0.059999999999999998,-0.029999999999999999,1.02
874,1782588401905,0.059999999999999998,-0.029999999999999999,1.02
875,1782588402005,0.059999999999999998,-0.029999999999999999,1.02
876,1782588402055,0.059999999999999998,-0.029999999999999999,1.02
877,1782588402088,0.059999999999999998,-0.029999999999999999,1.01
878,1782588402154,0.059999999999999998,-0.029999999999999999,1.01
879,1782588402188,0.059999999999999998,-0.029999999999999999,1.01
880,1782588402205,0.059999999999999998,-0.029999999999999999,1.01
881,1782588402238,0.059999999999999998,-0.029999999999999999,1.01
882,1782588402254,0.059999999999999998,-0.029999999999999999,1.01
883,1782588402271,0.059999999999999998,-0.029999999999999999,1.01
884,1782588402321,0.059999999999999998,-0.029999999999999999,1.01
885,1782588402372,0.059999999999999998,-0.029999999999999999,1.01
886,1782588402422,0.059999999999999998,-0.029999999999999999,1.01
887,1782588402504,0.059999999999999998,-0.02,1.01
888,1782588402538,0.059999999999999998,-0.02,1.01
889,1782588402571,0.059999999999999998,-0.02,1.01
890,1782588402637,0.059999999999999998,-0.02,1.01
891,1782588402704,0.059999999999999998,-0.02,1.01
892,1782588402721,0.059999999999999998,-0.029999999999999999,1.02
893,1782588402770,0.059999999999999998,-0.029999999999999999,1.02
894,1782588402788,0.059999999999999998,-0.029999999999999999,1.02
895,1782588402821,0.059999999999999998,-0.029999999999999999,1.01
896,1782588402854,0.059999999999999998,-0.029999999999999999,1.01
897,1782588402921,0.059999999999999998,-0.029999999999999999,1.01
898,1782588402987,0.059999999999999998,-0.029999999999999999,1.01
899,1782588403054,0.070000000000000007,-0.029999999999999999,1.02
900,1782588403088,0.059999999999999998,-0.029999999999999999,1.02
901,1782588403187,0.059999999999999998,-0.029999999999999999,1.02
902,1782588403254,0.059999999999999998,-0.029999999999999999,1.02
903,1782588403304,0.059999999999999998,-0.029999999999999999,1.02
904,1782588403371,0.059999999999999998,-0.029999999999999999,1.01
905,1782588403437,0.059999999999999998,-0.029999999999999999,1.01
906,1782588403487,0.059999999999999998,-0.029999999999999999,1.01
907,1782588403554,0.059999999999999998,-0.029999999999999999,1.01
908,1782588403587,0.059999999999999998,-0.029999999999999999,1.01
909,1782588403637,0.059999999999999998,-0.029999999999999999,1.01
910,1782588403687,0.059999999999999998,-0.029999999999999999,1.01
911,1782588403703,0.059999999999999998,-0.029999999999999999,1.01
912,1782588403754,0.059999999999999998,-0.029999999999999999,1.01
913,1782588403820,0.059999999999999998,-0.029999999999999999,1.01
914,1782588403969,0.059999999999999998,-0.029999999999999999,1.01
915,1782588403986,0.059999999999999998,-0.029999999999999999,1.01
916,1782588404036,0.059999999999999998,-0.029999999999999999,1.01
917,1782588404086,0.059999999999999998,-0.029999999999999999,1.01
918,1782588404170,0.059999999999999998,-0.029999999999999999,1.01
919,1782588404237,0.059999999999999998,-0.029999999999999999,1.01
920,1782588404303,0.059999999999999998,-0.029999999999999999,1.01
921,1782588404371,0.059999999999999998,-0.029999999999999999,1.01
922,1782588404437,0.059999999999999998,-0.029999999999999999,1.01
923,1782588404470,0.059999999999999998,-0.029999999999999999,1.01
924,1782588404503,0.059999999999999998,-0.029999999999999999,1.01
925,1782588404552,0.059999999999999998,-0.029999999999999999,1.01
926,1782588404569,0.059999999999999998,-0.029999999999999999,1.01
927,1782588404586,0.059999999999999998,-0.029999999999999999,1.01
928,1782588404636,0.059999999999999998,-0.029999999999999999,1.01
929,1782588404702,0.059999999999999998,-0.029999999999999999,1.01
930,1782588404752,0.059999999999999998,-0.029999999999999999,1.01
931,1782588404802,0.059999999999999998,-0.029999999999999999,1.01
932,1782588404835,0.059999999999999998,-0.029999999999999999,1.01
933,1782588404969,0.059999999999999998,-0.029999999999999999,1.01
934,1782588405002,0.059999999999999998,-0.029999999999999999,1.01
935,1782588405036,0.059999999999999998,-0.029999999999999999,1.01
936,1782588405053,0.059999999999999998,-0.029999999999999999,1.01
937,1782588405069,0.059999999999999998,-0.029999999999999999,1.01
938,1782588405102,0.059999999999999998,-0.029999999999999999,1.01
939,1782588405135,0.059999999999999998,-0.029999999999999999,1.01
940,1782588405185,0.059999999999999998,-0.029999999999999999,1.01
941,1782588405252,0.059999999999999998,-0.029999999999999999,1.01
942,1782588405286,0.059999999999999998,-0.029999999999999999,1.01
943,1782588405352,0.059999999999999998,-0.029999999999999999,1.01
944,1782588405402,0.059999999999999998,-0.029999999999999999,1.01
945,1782588405452,0.059999999999999998,-0.029999999999999999,1.01
946,1782588405519,0.059999999999999998,-0.029999999999999999,1.01
947,1782588405568,0.059999999999999998,-0.029999999999999999,1.01
948,1782588405685,0.059999999999999998,-0.029999999999999999,1.01
949,1782588405718,0.059999999999999998,-0.029999999999999999,1.01
950,1782588405768,0.059999999999999998,-0.029999999999999999,1.01
951,1782588405802,0.059999999999999998,-0.029999999999999999,1.01
952,1782588405835,0.059999999999999998,-0.029999999999999999,1.01
953,1782588405886,0.059999999999999998,-0.029999999999999999,1.01
954,1782588405902,0.059999999999999998,-0.029999999999999999,1.01
955,1782588405935,0.059999999999999998,-0.029999999999999999,1.01
956,1782588406034,0.059999999999999998,-0.029999999999999999,1.01
957,1782588406085,0.059999999999999998,-0.029999999999999999,1.01
958,1782588406135,0.059999999999999998,-0.029999999999999999,1.01
959,1782588406201,0.059999999999999998,-0.029999999999999999,1.01
960,1782588406252,0.059999999999999998,-0.029999999999999999,1.01
961,1782588406301,0.059999999999999998,-0.029999999999999999,1.02
962,1782588406352,0.059999999999999998,-0.029999999999999999,1.01
963,1782588406418,0.059999999999999998,-0.029999999999999999,1.01
964,1782588406451,0.059999999999999998,-0.029999999999999999,1.02
965,1782588406518,0.059999999999999998,-0.029999999999999999,1.02
966,1782588406568,0.059999999999999998,-0.029999999999999999,1.01
967,1782588406601,0.059999999999999998,-0.029999999999999999,1.01
968,1782588406618,0.059999999999999998,-0.029999999999999999,1.01
969,1782588406651,0.059999999999999998,-0.029999999999999999,1.01
970,1782588406668,0.059999999999999998,-0.029999999999999999,1.01
971,1782588406717,0.070000000000000007,-0.02,1.03
972,1782588406991,0.070000000000000007,-0.029999999999999999,1.04
973,1782588407001,0.070000000000000007,-0.029999999999999999,1.04
974,1782588407001,0.070000000000000007,-0.029999999999999999,1.04
975,1782588407001,0.070000000000000007,-0.029999999999999999,1.03
976,1782588407001,0.070000000000000007,-0.029999999999999999,1.01
977,1782588407001,0.070000000000000007,-0.029999999999999999,1
978,1782588407001,0.070000000000000007,-0.029999999999999999,1
979,1782588407034,0.070000000000000007,-0.029999999999999999,1
980,1782588407067,0.050000000000000003,-0.029999999999999999,1.01
981,1782588407117,0.050000000000000003,-0.029999999999999999,1.01
982,1782588407267,0.059999999999999998,-0.029999999999999999,1.01
983,1782588407318,0.059999999999999998,-0.02,1.01
984,1782588407367,0.059999999999999998,-0.02,1.01
985,1782588407418,0.059999999999999998,-0.02,1.01
986,1782588407467,0.059999999999999998,-0.02,1.01
987,1782588407500,0.059999999999999998,-0.02,1.01
988,1782588407533,0.059999999999999998,-0.02,1.02
989,1782588407550,0.059999999999999998,-0.02,1.02
990,1782588407567,0.059999999999999998,-0.02,1.02
991,1782588407583,0.059999999999999998,-0.029999999999999999,1.02
992,1782588407666,0.059999999999999998,-0.029999999999999999,1.01
993,1782588407751,0.070000000000000007,-0.029999999999999999,1.01
994,1782588407784,0.059999999999999998,-0.029999999999999999,1.01
995,1782588407851,0.059999999999999998,-0.029999999999999999,1.01
996,1782588407901,0.059999999999999998,-0.029999999999999999,1.01
997,1782588407983,0.059999999999999998,-0.029999999999999999,1.01
998,1782588408016,0.059999999999999998,-0.029999999999999999,1.01
999,1782588408067,0.059999999999999998,-0.029999999999999999,1.01
1000,1782588408100,0.059999999999999998,-0.029999999999999999,1.01
1001,1782588408168,0.059999999999999998,-0.029999999999999999,1.01
1002,1782588408200,0.059999999999999998,-0.029999999999999999,1.01
1003,1782588408267,0.059999999999999998,-0.029999999999999999,1.01
1004,1782588408300,0.059999999999999998,-0.029999999999999999,1.01
1005,1782588408333,0.059999999999999998,-0.029999999999999999,1.01
1006,1782588408349,0.059999999999999998,-0.029999999999999999,1.01
1007,1782588408366,0.059999999999999998,-0.029999999999999999,1.01
1008,1782588408400,0.059999999999999998,-0.029999999999999999,1.01
1009,1782588408433,0.059999999999999998,-0.029999999999999999,1.01
1010,1782588408467,0.059999999999999998,-0.029999999999999999,1.01
1011,1782588408500,0.059999999999999998,-0.029999999999999999,1.02
1012,1782588408532,0.059999999999999998,-0.029999999999999999,1.01
1013,1782588408599,0.059999999999999998,-0.029999999999999999,1.01
1014,1782588408649,0.059999999999999998,-0.029999999999999999,1.02
1015,1782588408716,0.059999999999999998,-0.029999999999999999,1.01
1016,1782588408783,0.059999999999999998,-0.029999999999999999,1.01
1017,1782588408816,0.059999999999999998,-0.029999999999999999,1.01
1018,1782588408866,0.059999999999999998,-0.02,1.01
1019,1782588408950,0.059999999999999998,-0.02,1.01
1020,1782588408982,0.059999999999999998,-0.02,1.02
1021,1782588409066,0.059999999999999998,-0.02,1.02
1022,1782588409132,0.059999999999999998,-0.02,1.02
1023,1782588409149,0.059999999999999998,-0.029999999999999999,1.01
1024,1782588409182,0.059999999999999998,-0.029999999999999999,1.01
1025,1782588409232,0.059999999999999998,-0.029999999999999999,1.01
1026,1782588409249,0.059999999999999998,-0.029999999999999999,1.01
1027,1782588409282,0.059999999999999998,-0.029999999999999999,1.01
1028,1782588409299,0.059999999999999998,-0.029999999999999999,1.01
1029,1782588409315,0.059999999999999998,-0.02,1.01
1030,1782588409365,0.059999999999999998,-0.02,1.01
1031,1782588409415,0.059999999999999998,-0.02,1.01
1032,1782588409481,0.059999999999999998,-0.02,1.01
1033,1782588409532,0.059999999999999998,-0.029999999999999999,1.01
1034,1782588409566,0.059999999999999998,-0.029999999999999999,1.01
1035,1782588409631,0.059999999999999998,-0.029999999999999999,1.01
1036,1782588409698,0.059999999999999998,-0.029999999999999999,1.01
1037,1782588409765,0.059999999999999998,-0.029999999999999999,1.01
1038,1782588409798,0.059999999999999998,-0.029999999999999999,1.01
1039,1782588409848,0.059999999999999998,-0.029999999999999999,1.01
1040,1782588409865,0.059999999999999998,-0.029999999999999999,1.01
1041,1782588409965,0.059999999999999998,-0.029999999999999999,1.01
1042,1782588409998,0.059999999999999998,-0.029999999999999999,1.01
1043,1782588410048,0.059999999999999998,-0.029999999999999999,1.01
1044,1782588410081,0.059999999999999998,-0.029999999999999999,1.01
1045,1782588410098,0.059999999999999998,-0.029999999999999999,1.01
1046,1782588410115,0.059999999999999998,-0.029999999999999999,1.01
1047,1782588410147,0.059999999999999998,-0.029999999999999999,1.01
1048,1782588410181,0.059999999999999998,-0.029999999999999999,1.01
1049,1782588410231,0.059999999999999998,-0.029999999999999999,1.01
1050,1782588410298,0.059999999999999998,-0.029999999999999999,1.01
1051,1782588410347,0.059999999999999998,-0.029999999999999999,1.01
1052,1782588410415,0.059999999999999998,-0.029999999999999999,1.01
1053,1782588410497,0.059999999999999998,-0.029999999999999999,1.01
1054,1782588410565,0.059999999999999998,-0.029999999999999999,1.01
1055,1782588410598,0.059999999999999998,-0.029999999999999999,1.01
1056,1782588410647,0.059999999999999998,-0.029999999999999999,1.01
1057,1782588410714,0.059999999999999998,-0.029999999999999999,1.01
1058,1782588410747,0.059999999999999998,-0.029999999999999999,1.01
1059,1782588410797,0.059999999999999998,-0.029999999999999999,1.01
1060,1782588410831,0.059999999999999998,-0.029999999999999999,1.01
1061,1782588410864,0.059999999999999998,-0.029999999999999999,1.01
1062,1782588410881,0.059999999999999998,-0.029999999999999999,1.01
1063,1782588410930,0.059999999999999998,-0.029999999999999999,1.01
1064,1782588410964,0.059999999999999998,-0.029999999999999999,1.01
1065,1782588410981,0.059999999999999998,-0.029999999999999999,1.01
1066,1782588410997,0.059999999999999998,-0.029999999999999999,1.01
1067,1782588411031,0.059999999999999998,-0.029999999999999999,1.01
1068,1782588411048,0.059999999999999998,-0.029999999999999999,1.01
1069,1782588411097,0.059999999999999998,-0.029999999999999999,1.01
1070,1782588411130,0.059999999999999998,-0.029999999999999999,1.01
1071,1782588411197,0.059999999999999998,-0.029999999999999999,1.01
1072,1782588411247,0.059999999999999998,-0.029999999999999999,1.01
1073,1782588411314,0.059999999999999998,-0.029999999999999999,1.01
1074,1782588411347,0.059999999999999998,-0.029999999999999999,1.01
1075,1782588411413,0.059999999999999998,-0.029999999999999999,1.01
1076,1782588411464,0.059999999999999998,-0.029999999999999999,1.01
1077,1782588411530,0.059999999999999998,-0.029999999999999999,1.01
1078,1782588411564,0.059999999999999998,-0.029999999999999999,1.01
1079,1782588411631,0.059999999999999998,-0.029999999999999999,1.01
1080,1782588411697,0.059999999999999998,-0.029999999999999999,1.01
1081,1782588411730,0.059999999999999998,-0.029999999999999999,1.01
1082,1782588411780,0.059999999999999998,-0.029999999999999999,1.01
1083,1782588411813,0.059999999999999998,-0.029999999999999999,1.01
1084,1782588411847,0.059999999999999998,-0.029999999999999999,1.01
1085,1782588411863,0.059999999999999998,-0.029999999999999999,1.01
1086,1782588411897,0.059999999999999998,-0.029999999999999999,1.01
1087,1782588411963,0.059999999999999998,-0.029999999999999999,1.01
1088,1782588411996,0.059999999999999998,-0.029999999999999999,1.01
1089,1782588412063,0.059999999999999998,-0.029999999999999999,1.01
1090,1782588412113,0.059999999999999998,-0.029999999999999999,1.01
1091,1782588412162,0.059999999999999998,-0.029999999999999999,1.01
1092,1782588412230,0.059999999999999998,-0.029999999999999999,1.01
1093,1782588412296,0.059999999999999998,-0.029999999999999999,1.01
1094,1782588412329,0.059999999999999998,-0.029999999999999999,1.01
1095,1782588412379,0.059999999999999998,-0.029999999999999999,1.01
1096,1782588412429,0.059999999999999998,-0.029999999999999999,1.01
1097,1782588412496,0.059999999999999998,-0.029999999999999999,1.01
1098,1782588412529,0.059999999999999998,-0.029999999999999999,1.01
1099,1782588412579,0.059999999999999998,-0.029999999999999999,1.01
1100,1782588412596,0.059999999999999998,-0.029999999999999999,1.01
1101,1782588412613,0.059999999999999998,-0.029999999999999999,1.01
1102,1782588412646,0.059999999999999998,-0.029999999999999999,1.01
1103,1782588412712,0.059999999999999998,-0.029999999999999999,1.01
1104,1782588412712,0.059999999999999998,-0.029999999999999999,1.01
1105,1782588412745,0.059999999999999998,-0.029999999999999999,1.01
1106,1782588412763,0.059999999999999998,-0.029999999999999999,1.01
1107,1782588412779,0.059999999999999998,-0.029999999999999999,1.01
1108,1782588412812,0.059999999999999998,-0.029999999999999999,1.01
1109,1782588412879,0.059999999999999998,-0.029999999999999999,1.01
1110,1782588412929,0.059999999999999998,-0.029999999999999999,1.01
1111,1782588412979,0.059999999999999998,-0.029999999999999999,1.01
1112,1782588413029,0.059999999999999998,-0.029999999999999999,1.01
1113,1782588413113,0.059999999999999998,-0.029999999999999999,1.01
1114,1782588413162,0.059999999999999998,-0.029999999999999999,1.01
1115,1782588413229,0.059999999999999998,-0.029999999999999999,1.01
1116,1782588413295,0.059999999999999998,-0.029999999999999999,1.01
1117,1782588413329,0.059999999999999998,-0.029999999999999999,1.01
1118,1782588413378,0.059999999999999998,-0.029999999999999999,1.02
1119,1782588413445,0.059999999999999998,-0.029999999999999999,1.02
1120,1782588413462,0.059999999999999998,-0.029999999999999999,1.01
1121,1782588413495,0.059999999999999998,-0.029999999999999999,1.01
1122,1782588413512,0.059999999999999998,-0.029999999999999999,1.01
1123,1782588413528,0.059999999999999998,-0.029999999999999999,1.01
1124,1782588413562,0.059999999999999998,-0.029999999999999999,1.01
1125,1782588413662,0.059999999999999998,-0.029999999999999999,1.01
1126,1782588413712,0.059999999999999998,-0.029999999999999999,1.01
1127,1782588413762,0.059999999999999998,-0.029999999999999999,1.01
1128,1782588413845,0.059999999999999998,-0.029999999999999999,1.01
1129,1782588413878,0.059999999999999998,-0.029999999999999999,1.01
1130,1782588413928,0.059999999999999998,-0.029999999999999999,1.01
1131,1782588413978,0.059999999999999998,-0.029999999999999999,1.01
1132,1782588414044,0.059999999999999998,-0.029999999999999999,1.01
1133,1782588414078,0.059999999999999998,-0.029999999999999999,1.01
1134,1782588414128,0.059999999999999998,-0.029999999999999999,1.01
1135,1782588414195,0.059999999999999998,-0.029999999999999999,1.01
1136,1782588414261,0.059999999999999998,-0.029999999999999999,1.01
1137,1782588414294,0.059999999999999998,-0.029999999999999999,1.01
1138,1782588414311,0.059999999999999998,-0.029999999999999999,1.01
1139,1782588414328,0.059999999999999998,-0.029999999999999999,1.01
1140,1782588414361,0.059999999999999998,-0.029999999999999999,1.01
1141,1782588414378,0.059999999999999998,-0.029999999999999999,1.01
1142,1782588414461,0.059999999999999998,-0.029999999999999999,1.01
1143,1782588414494,0.059999999999999998,-0.029999999999999999,1.01
1144,1782588414527,0.059999999999999998,-0.029999999999999999,1.01
1145,1782588414577,0.059999999999999998,-0.029999999999999999,1.01
1146,1782588414660,0.059999999999999998,-0.029999999999999999,1.01
1147,1782588414694,0.059999999999999998,-0.029999999999999999,1.02
1148,1782588414745,0.059999999999999998,-0.029999999999999999,1.01
1149,1782588414810,0.059999999999999998,-0.029999999999999999,1.01
1150,1782588414844,0.059999999999999998,-0.029999999999999999,1.01
1151,1782588414894,0.059999999999999998,-0.029999999999999999,1.01
1152,1782588414944,0.059999999999999998,-0.029999999999999999,1.01
1153,1782588415043,0.059999999999999998,-0.029999999999999999,1.01
1154,1782588415077,0.059999999999999998,-0.029999999999999999,1.01
1155,1782588415127,0.059999999999999998,-0.029999999999999999,1.01
1156,1782588415144,0.059999999999999998,-0.029999999999999999,1.01
1157,1782588415194,0.059999999999999998,-0.029999999999999999,1.01
1158,1782588415211,0.059999999999999998,-0.029999999999999999,1.01
1159,1782588415244,0.059999999999999998,-0.029999999999999999,1.01
1160,1782588415260,0.059999999999999998,-0.029999999999999999,1.01
1161,1782588415277,0.059999999999999998,-0.029999999999999999,1.01
1162,1782588415343,0.059999999999999998,-0.029999999999999999,1.02
1163,1782588415410,0.059999999999999998,-0.029999999999999999,1.02
1164,1782588415428,0.059999999999999998,-0.029999999999999999,1.02
1165,1782588415494,0.059999999999999998,-0.029999999999999999,1.02
1166,1782588415543,0.059999999999999998,-0.029999999999999999,1.01
1167,1782588415610,0.059999999999999998,-0.029999999999999999,1.01
1168,1782588415644,0.059999999999999998,-0.029999999999999999,1.01
1169,1782588415694,0.059999999999999998,-0.029999999999999999,1.01
1170,1782588415760,0.059999999999999998,-0.029999999999999999,1.01
1171,1782588415826,0.059999999999999998,-0.029999999999999999,1.01
1172,1782588415910,0.059999999999999998,-0.029999999999999999,1.01
1173,1782588415960,0.059999999999999998,-0.029999999999999999,1.01
1174,1782588416026,0.059999999999999998,-0.029999999999999999,1.01
1175,1782588416043,0.059999999999999998,-0.029999999999999999,1.01
1176,1782588416059,0.059999999999999998,-0.029999999999999999,1.01
1177,1782588416076,0.059999999999999998,-0.029999999999999999,1.01
1178,1782588416110,0.059999999999999998,-0.029999999999999999,1.01
1179,1782588416143,0.059999999999999998,-0.029999999999999999,1.01
1180,1782588416177,0.059999999999999998,-0.029999999999999999,1.01
1181,1782588416193,0.059999999999999998,-0.029999999999999999,1.01
1182,1782588416210,0.059999999999999998,-0.029999999999999999,1.01
1183,1782588416243,0.059999999999999998,-0.029999999999999999,1.01
1184,1782588416259,0.059999999999999998,-0.029999999999999999,1.01
1185,1782588416309,0.059999999999999998,-0.029999999999999999,1.01
1186,1782588416376,0.059999999999999998,-0.029999999999999999,1.01
1187,1782588416476,0.059999999999999998,-0.029999999999999999,1.01
1188,1782588416509,0.059999999999999998,-0.029999999999999999,1.01
1189,1782588416626,0.059999999999999998,-0.029999999999999999,1.01
1190,1782588416693,0.059999999999999998,-0.029999999999999999,1.01
1191,1782588416792,0.059999999999999998,-0.029999999999999999,1.02
1192,1782588416842,0.059999999999999998,-0.029999999999999999,1.01
1193,1782588416892,0.059999999999999998,-0.029999999999999999,1.01
1194,1782588416959,0.059999999999999998,-0.029999999999999999,1.01
1195,1782588417025,0.059999999999999998,-0.029999999999999999,1.01
1196,1782588417125,0.059999999999999998,-0.029999999999999999,1.01
1197,1782588417176,0.059999999999999998,-0.029999999999999999,1.01
1198,1782588417225,0.059999999999999998,-0.029999999999999999,1.01
1199,1782588417275,0.059999999999999998,-0.029999999999999999,1.01
1200,1782588417342,0.059999999999999998,-0.029999999999999999,1.01
1201,1782588417375,0.059999999999999998,-0.029999999999999999,1.01
1202,1782588417425,0.059999999999999998,-0.029999999999999999,1.01
1203,1782588417492,0.059999999999999998,-0.029999999999999999,1.01
1204,1782588417608,0.059999999999999998,-0.029999999999999999,1.01
1205,1782588417725,0.059999999999999998,-0.029999999999999999,1.01
1206,1782588417972,0.059999999999999998,-0.029999999999999999,1.01
1207,1782588417973,0.059999999999999998,-0.029999999999999999,1.01
1208,1782588417991,0.059999999999999998,-0.029999999999999999,1.01
1209,1782588417992,0.059999999999999998,-0.029999999999999999,1.01
1210,1782588417992,0.059999999999999998,-0.029999999999999999,1.01
1211,1782588417992,0.059999999999999998,-0.029999999999999999,1.01
1212,1782588418025,0.059999999999999998,-0.029999999999999999,1.01
1213,1782588418124,0.059999999999999998,-0.029999999999999999,1.01
1214,1782588418124,0.059999999999999998,-0.029999999999999999,1.01
1215,1782588418158,0.059999999999999998,-0.029999999999999999,1.01
1216,1782588418174,0.059999999999999998,-0.029999999999999999,1.01
1217,1782588418224,0.059999999999999998,-0.029999999999999999,1.01
1218,1782588418274,0.059999999999999998,-0.029999999999999999,1.01
1219,1782588418375,0.059999999999999998,-0.029999999999999999,1.01
1220,1782588418424,0.059999999999999998,-0.029999999999999999,1.01
1221,1782588418441,0.059999999999999998,-0.029999999999999999,1.01
1222,1782588418508,0.059999999999999998,-0.029999999999999999,1.01
1223,1782588418558,0.059999999999999998,-0.029999999999999999,1.01
1224,1782588418607,0.059999999999999998,-0.029999999999999999,1.01
1225,1782588418675,0.059999999999999998,-0.029999999999999999,1.01
1226,1782588418725,0.059999999999999998,-0.029999999999999999,1.01
1227,1782588418742,0.059999999999999998,-0.029999999999999999,1.01
1228,1782588418775,0.059999999999999998,-0.029999999999999999,1.01
1229,1782588418791,0.059999999999999998,-0.029999999999999999,1.01
1230,1782588418841,0.059999999999999998,-0.029999999999999999,1.01
1231,1782588418908,0.059999999999999998,-0.029999999999999999,1.01
1232,1782588418908,0.059999999999999998,-0.029999999999999999,1.01
1233,1782588418941,0.059999999999999998,-0.029999999999999999,1.01
1234,1782588418974,0.059999999999999998,-0.029999999999999999,1.01
1235,1782588419024,0.059999999999999998,-0.029999999999999999,1.01
1236,1782588419058,0.059999999999999998,-0.029999999999999999,1.01
1237,1782588419091,0.059999999999999998,-0.029999999999999999,1.01
1238,1782588419158,0.059999999999999998,-0.029999999999999999,1.01
1239,1782588419174,0.059999999999999998,-0.029999999999999999,1.01
1240,1782588419191,0.059999999999999998,-0.029999999999999999,1.01
1241,1782588419258,0.059999999999999998,-0.029999999999999999,1.01
1242,1782588419357,0.059999999999999998,-0.029999999999999999,1.01
1243,1782588419407,0.059999999999999998,-0.029999999999999999,1.01
1244,1782588419490,0.059999999999999998,-0.029999999999999999,1.01
1245,1782588419574,0.059999999999999998,-0.029999999999999999,1.01
1246,1782588419590,0.059999999999999998,-0.029999999999999999,1.01
1247,1782588419608,0.059999999999999998,-0.029999999999999999,1.01
1248,1782588419641,0.059999999999999998,-0.029999999999999999,1.01
1249,1782588419757,0.059999999999999998,-0.029999999999999999,1.01
1250,1782588419840,0.059999999999999998,-0.029999999999999999,1.01
1251,1782588419973,0.059999999999999998,-0.029999999999999999,1.01
1252,1782588420040,0.059999999999999998,-0.029999999999999999,1.01
1253,1782588420140,0.059999999999999998,-0.029999999999999999,1.01
1254,1782588420189,0.059999999999999998,-0.029999999999999999,1.01
1255,1782588420256,0.059999999999999998,-0.029999999999999999,1.01
1256,1782588420340,0.059999999999999998,-0.029999999999999999,1.01
1257,1782588420390,0.059999999999999998,-0.029999999999999999,1.01
1258,1782588420439,0.059999999999999998,-0.029999999999999999,1.01
1259,1782588420473,0.059999999999999998,-0.029999999999999999,1.01
1260,1782588420523,0.059999999999999998,-0.029999999999999999,1.01
1261,1782588420572,0.059999999999999998,-0.029999999999999999,1.01
1262,1782588420622,0.059999999999999998,-0.029999999999999999,1.01
1263,1782588420689,0.059999999999999998,-0.029999999999999999,1.01
1264,1782588420722,0.059999999999999998,-0.029999999999999999,1.01
1265,1782588420740,0.059999999999999998,-0.029999999999999999,1.01
1266,1782588420756,0.059999999999999998,-0.029999999999999999,1.01
1267,1782588420774,0.059999999999999998,-0.029999999999999999,1.01
1268,1782588420822,0.059999999999999998,-0.029999999999999999,1.01
1269,1782588420873,0.059999999999999998,-0.029999999999999999,1.01
1270,1782588420922,0.059999999999999998,-0.029999999999999999,1.01
1271,1782588420972,0.059999999999999998,-0.029999999999999999,1.01
1272,1782588421006,0.059999999999999998,-0.029999999999999999,1.01
1273,1782588421022,0.059999999999999998,-0.029999999999999999,1.01
1274,1782588421072,0.059999999999999998,-0.029999999999999999,1.01
1275,1782588421139,0.059999999999999998,-0.029999999999999999,1.01
1276,1782588421205,0.059999999999999998,-0.029999999999999999,1.01
1277,1782588421272,0.059999999999999998,-0.029999999999999999,1.01
1278,1782588421338,0.059999999999999998,-0.029999999999999999,1.01
1279,1782588421372,0.059999999999999998,-0.029999999999999999,1.01
1280,1782588421422,0.059999999999999998,-0.029999999999999999,1.01
1281,1782588421488,0.059999999999999998,-0.029999999999999999,1.01
1282,1782588421539,0.059999999999999998,-0.029999999999999999,1.01
1283,1782588421589,0.059999999999999998,-0.029999999999999999,1.01
1284,1782588421638,0.059999999999999998,-0.029999999999999999,1.01
1285,1782588421721,0.059999999999999998,-0.029999999999999999,1.01
1286,1782588421755,0.059999999999999998,-0.029999999999999999,1.01
1287,1782588421821,0.059999999999999998,-0.029999999999999999,1.01
1288,1782588421871,0.059999999999999998,-0.029999999999999999,1.01
1289,1782588421938,0.059999999999999998,-0.029999999999999999,1.01
1290,1782588421954,0.059999999999999998,-0.029999999999999999,1.01
1291,1782588422005,0.059999999999999998,-0.029999999999999999,1.01
1292,1782588422072,0.059999999999999998,-0.029999999999999999,1.01
1293,1782588422121,0.059999999999999998,-0.029999999999999999,1.01
1294,1782588422205,0.059999999999999998,-0.029999999999999999,1.01
1295,1782588422205,0.059999999999999998,-0.029999999999999999,1.01
1296,1782588422238,0.059999999999999998,-0.029999999999999999,1.01
1297,1782588422271,0.059999999999999998,-0.029999999999999999,1.01
1298,1782588422305,0.059999999999999998,-0.029999999999999999,1.01
1299,1782588422371,0.059999999999999998,-0.029999999999999999,1.01
1300,1782588422504,0.059999999999999998,-0.029999999999999999,1.01
1301,1782588422555,0.059999999999999998,-0.029999999999999999,1.01
1302,1782588422588,0.059999999999999998,-0.029999999999999999,1.01
1303,1782588422604,0.059999999999999998,-0.029999999999999999,1.01
1304,1782588422637,0.059999999999999998,-0.029999999999999999,1.01
1305,1782588422654,0.059999999999999998,-0.029999999999999999,1.01
1306,1782588422721,0.059999999999999998,-0.029999999999999999,1.01
1307,1782588422754,0.059999999999999998,-0.029999999999999999,1.01
1308,1782588422820,0.059999999999999998,-0.029999999999999999,1.01
1309,1782588422837,0.059999999999999998,-0.029999999999999999,1.01
1310,1782588422854,0.059999999999999998,-0.029999999999999999,1.01
1311,1782588422888,0.059999999999999998,-0.029999999999999999,1.01
1312,1782588422954,0.059999999999999998,-0.029999999999999999,1.01
1313,1782588423037,0.059999999999999998,-0.029999999999999999,1.01
1314,1782588423154,0.059999999999999998,-0.029999999999999999,1.01
1315,1782588423237,0.059999999999999998,-0.029999999999999999,1.01
1316,1782588423303,0.059999999999999998,-0.029999999999999999,1.01
1317,1782588423353,0.059999999999999998,-0.029999999999999999,1.01
1318,1782588423404,0.059999999999999998,-0.029999999999999999,1.01
1319,1782588423453,0.059999999999999998,-0.029999999999999999,1.02
1320,1782588423504,0.059999999999999998,-0.029999999999999999,1.02
1321,1782588423570,0.059999999999999998,-0.029999999999999999,1.01
1322,1782588423620,0.059999999999999998,-0.029999999999999999,1.01
1323,1782588423670,0.059999999999999998,-0.029999999999999999,1.01
1324,1782588423736,0.059999999999999998,-0.029999999999999999,1.01
1325,1782588423786,0.059999999999999998,-0.029999999999999999,1.01
1326,1782588423853,0.059999999999999998,-0.029999999999999999,1.01
1327,1782588423887,0.059999999999999998,-0.029999999999999999,1.01
1328,1782588423920,0.059999999999999998,-0.029999999999999999,1.01
1329,1782588424020,0.059999999999999998,-0.029999999999999999,1.01
1330,1782588424070,0.059999999999999998,-0.029999999999999999,1.01
1331,1782588424120,0.059999999999999998,-0.029999999999999999,1.01
1332,1782588424154,0.059999999999999998,-0.029999999999999999,1.01
1333,1782588424170,0.059999999999999998,-0.02,1.01
1334,1782588424219,0.059999999999999998,-0.02,1.01
1335,1782588424252,0.059999999999999998,-0.029999999999999999,1.01
1336,1782588424302,0.059999999999999998,-0.029999999999999999,1.01
1337,1782588424352,0.059999999999999998,-0.029999999999999999,1.01
1338,1782588424420,0.059999999999999998,-0.029999999999999999,1.01
1339,1782588424470,0.059999999999999998,-0.029999999999999999,1.01
1340,1782588424553,0.059999999999999998,-0.029999999999999999,1.01
1341,1782588424620,0.059999999999999998,-0.029999999999999999,1.01
1342,1782588424669,0.059999999999999998,-0.029999999999999999,1.01
1343,1782588424686,0.059999999999999998,-0.029999999999999999,1.01
1344,1782588424702,0.059999999999999998,-0.029999999999999999,1.01
1345,1782588424735,0.059999999999999998,-0.029999999999999999,1.01
1346,1782588424752,0.059999999999999998,-0.029999999999999999,1.01
1347,1782588424903,0.059999999999999998,-0.02,1.01
1348,1782588424952,0.059999999999999998,-0.029999999999999999,1.02
1349,1782588424969,0.059999999999999998,-0.029999999999999999,1.02
1350,1782588425002,0.059999999999999998,-0.040000000000000001,1.02
1351,1782588425119,0.059999999999999998,-0.029999999999999999,1.01
1352,1782588425169,0.059999999999999998,-0.029999999999999999,1.01
1353,1782588425218,0.059999999999999998,-0.029999999999999999,1.01
1354,1782588425236,0.059999999999999998,-0.029999999999999999,1.01
1355,1782588425252,0.059999999999999998,-0.029999999999999999,1.01
1356,1782588425285,0.059999999999999998,-0.029999999999999999,1.01
1357,1782588425302,0.059999999999999998,-0.029999999999999999,1.01
1358,1782588425369,0.059999999999999998,-0.029999999999999999,1.01
1359,1782588425436,0.059999999999999998,-0.029999999999999999,1.01
1360,1782588425468,0.059999999999999998,-0.029999999999999999,1.01
1361,1782588425519,0.059999999999999998,-0.029999999999999999,1.02
1362,1782588425586,0.059999999999999998,-0.029999999999999999,1.02
1363,1782588425751,0.059999999999999998,-0.029999999999999999,1
1364,1782588425801,0.059999999999999998,-0.029999999999999999,1
1365,1782588425834,0.059999999999999998,-0.029999999999999999,1
1366,1782588425868,0.059999999999999998,-0.029999999999999999,1
1367,1782588425885,0.059999999999999998,-0.029999999999999999,1
1368,1782588425951,0.059999999999999998,-0.029999999999999999,1.01
1369,1782588426018,0.059999999999999998,-0.029999999999999999,1.02
1370,1782588426052,0.059999999999999998,-0.029999999999999999,1.02
1371,1782588426101,0.059999999999999998,-0.029999999999999999,1.02
1372,1782588426118,0.070000000000000007,-0.029999999999999999,1.02
1373,1782588426134,0.070000000000000007,-0.029999999999999999,1.02
1374,1782588426168,0.070000000000000007,-0.029999999999999999,1.01
1375,1782588426184,0.070000000000000007,-0.029999999999999999,1.01
1376,1782588426252,0.070000000000000007,-0.029999999999999999,1.01
1377,1782588426334,0.059999999999999998,-0.029999999999999999,1.02
1378,1782588426435,0.050000000000000003,-0.029999999999999999,1.02
1379,1782588426517,0.050000000000000003,-0.029999999999999999,1.02
1380,1782588426534,0.059999999999999998,-0.029999999999999999,1.01
1381,1782588426601,0.059999999999999998,-0.029999999999999999,1.01
1382,1782588426617,0.059999999999999998,-0.029999999999999999,1.01
1383,1782588426684,0.059999999999999998,-0.029999999999999999,1.01
1384,1782588426734,0.059999999999999998,-0.029999999999999999,1.01
1385,1782588426767,0.059999999999999998,-0.029999999999999999,1.01
1386,1782588426835,0.059999999999999998,-0.029999999999999999,1.01
1387,1782588426884,0.059999999999999998,-0.029999999999999999,1.01
1388,1782588426901,0.059999999999999998,-0.029999999999999999,1.01
1389,1782588426917,0.059999999999999998,-0.029999999999999999,1.01
1390,1782588426934,0.059999999999999998,-0.029999999999999999,1.01
1391,1782588426967,0.059999999999999998,-0.029999999999999999,1.01
1392,1782588427001,0.059999999999999998,-0.029999999999999999,1.01
1393,1782588427050,0.059999999999999998,-0.02,1.01
1394,1782588427101,0.059999999999999998,-0.02,1.01
1395,1782588427167,0.059999999999999998,-0.02,1.01
1396,1782588427251,0.059999999999999998,-0.029999999999999999,1.01
1397,1782588427283,0.059999999999999998,-0.029999999999999999,1.01
1398,1782588427350,0.059999999999999998,-0.029999999999999999,1.01
1399,1782588427501,0.059999999999999998,-0.02,1.01
1400,1782588427517,0.059999999999999998,-0.02,1.01
1401,1782588427566,0.059999999999999998,-0.02,1.01
1402,1782588427617,0.059999999999999998,-0.02,1.01
1403,1782588427683,0.059999999999999998,-0.029999999999999999,1.01
1404,1782588427717,0.059999999999999998,-0.029999999999999999,1.01
1405,1782588427766,0.059999999999999998,-0.029999999999999999,1.01
1406,1782588427800,0.059999999999999998,-0.029999999999999999,1.02
1407,1782588427849,0.059999999999999998,-0.029999999999999999,1.02
1408,1782588427899,0.059999999999999998,-0.029999999999999999,1.02
1409,1782588428016,0.059999999999999998,-0.029999999999999999,1.02
1410,1782588428116,0.059999999999999998,-0.029999999999999999,1.01
1411,1782588428166,0.059999999999999998,-0.029999999999999999,1.01
1412,1782588428200,0.059999999999999998,-0.029999999999999999,1.01
1413,1782588428250,0.059999999999999998,-0.029999999999999999,1.01
1414,1782588428300,0.059999999999999998,-0.029999999999999999,1.01
1415,1782588428400,0.059999999999999998,-0.029999999999999999,1.01
1416,1782588428466,0.059999999999999998,-0.029999999999999999,1.01
1417,1782588428499,0.059999999999999998,-0.029999999999999999,1.01
1418,1782588428565,0.059999999999999998,-0.029999999999999999,1.01
1419,1782588428633,0.059999999999999998,-0.029999999999999999,1.01
1420,1782588428716,0.059999999999999998,-0.029999999999999999,1.01
1421,1782588429000,0.059999999999999998,-0.029999999999999999,1.01
1422,1782588429015,0.059999999999999998,-0.029999999999999999,1.01
1423,1782588429015,0.059999999999999998,-0.029999999999999999,1.01
1424,1782588429016,0.059999999999999998,-0.029999999999999999,1.01
1425,1782588429032,0.059999999999999998,-0.029999999999999999,1.01
1426,1782588429082,0.059999999999999998,-0.029999999999999999,1.01
1427,1782588429166,0.059999999999999998,-0.029999999999999999,1.01
1428,1782588429232,0.059999999999999998,-0.029999999999999999,1.01
1429,1782588429265,0.059999999999999998,-0.029999999999999999,1.01
1430,1782588429348,0.059999999999999998,-0.029999999999999999,1.01
1431,1782588429498,0.059999999999999998,-0.02,1.01
1432,1782588429531,0.059999999999999998,-0.029999999999999999,1.01
1433,1782588429582,0.059999999999999998,-0.029999999999999999,1.01
1434,1782588429632,0.059999999999999998,-0.029999999999999999,1.01
1435,1782588429682,0.059999999999999998,-0.029999999999999999,1.01
1436,1782588429732,0.059999999999999998,-0.029999999999999999,1.01
1437,1782588429782,0.059999999999999998,-0.029999999999999999,1.01
1438,1782588429816,0.059999999999999998,-0.029999999999999999,1.01
1439,1782588429982,0.059999999999999998,-0.040000000000000001,1.01
1440,1782588430048,0.059999999999999998,-0.029999999999999999,1.01
1441,1782588430098,0.059999999999999998,-0.029999999999999999,1.01
1442,1782588430115,0.059999999999999998,-0.029999999999999999,1.01
1443,1782588430148,0.059999999999999998,-0.029999999999999999,1.01
1444,1782588430248,0.059999999999999998,-0.029999999999999999,1.02
1445,1782588430248,0.059999999999999998,-0.029999999999999999,1.02
1446,1782588430314,0.059999999999999998,-0.029999999999999999,1.01
1447,1782588430365,0.059999999999999998,-0.029999999999999999,1.01
1448,1782588430414,0.059999999999999998,-0.029999999999999999,1.01
1449,1782588430514,0.059999999999999998,-0.029999999999999999,1.01
1450,1782588430548,0.059999999999999998,-0.029999999999999999,1.01
1451,1782588430597,0.059999999999999998,-0.029999999999999999,1.01
1452,1782588430647,0.059999999999999998,-0.029999999999999999,1.01
1453,1782588430815,0.059999999999999998,-0.029999999999999999,1.01
1454,1782588430848,0.070000000000000007,-0.02,0.98999999999999999
1455,1782588430897,0.059999999999999998,-0.01,1
1456,1782588430964,0.059999999999999998,-0.01,1.01
1457,1782588430998,0.059999999999999998,-0.01,1.02
1458,1782588431048,0.059999999999999998,-0.01,1.02
1459,1782588431114,0.059999999999999998,-0.01,1.03
1460,1782588431147,0.059999999999999998,-0.02,1.03
1461,1782588431281,0.059999999999999998,-0.02,1
1462,1782588431281,0.059999999999999998,-0.02,1
1463,1782588431364,0.059999999999999998,-0.029999999999999999,1.01
1464,1782588431414,0.059999999999999998,-0.029999999999999999,1.01
1465,1782588431464,0.059999999999999998,-0.029999999999999999,1.01
1466,1782588431497,0.059999999999999998,-0.029999999999999999,1.01
1467,1782588431580,0.059999999999999998,-0.029999999999999999,1.01
1468,1782588431730,0.059999999999999998,-0.029999999999999999,1.01
1469,1782588431830,0.059999999999999998,-0.029999999999999999,1.01
1470,1782588431897,0.059999999999999998,-0.029999999999999999,1.01
1471,1782588431963,0.059999999999999998,-0.029999999999999999,1.01
1472,1782588431996,0.059999999999999998,-0.029999999999999999,1.01
1473,1782588432030,0.059999999999999998,-0.029999999999999999,1.01
1474,1782588432080,0.059999999999999998,-0.029999999999999999,1.01
1475,1782588432163,0.059999999999999998,-0.029999999999999999,1.01
1476,1782588432229,0.059999999999999998,-0.029999999999999999,1.01
1477,1782588432246,0.059999999999999998,-0.029999999999999999,1.01
1478,1782588432296,0.059999999999999998,-0.029999999999999999,1.01
1479,1782588432313,0.059999999999999998,-0.029999999999999999,1.01
1480,1782588432379,0.059999999999999998,-0.02,1.01
1481,1782588432413,0.059999999999999998,-0.02,1.01
1482,1782588432462,0.059999999999999998,-0.02,1.01
1483,1782588432496,0.059999999999999998,-0.029999999999999999,1.01
1484,1782588432546,0.059999999999999998,-0.029999999999999999,1.01
1485,1782588432613,0.059999999999999998,-0.029999999999999999,1.01
1486,1782588432745,0.059999999999999998,-0.029999999999999999,1.01
1487,1782588432762,0.059999999999999998,-0.029999999999999999,1.01
1488,1782588432896,0.059999999999999998,-0.029999999999999999,1.01
1489,1782588432962,0.059999999999999998,-0.029999999999999999,1.01
1490,1782588433012,0.059999999999999998,-0.029999999999999999,1.01
1491,1782588433063,0.059999999999999998,-0.029999999999999999,1.01
1492,1782588433129,0.059999999999999998,-0.029999999999999999,1.01
1493,1782588433195,0.059999999999999998,-0.029999999999999999,1.01
1494,1782588433329,0.059999999999999998,-0.029999999999999999,1.01
1495,1782588433395,0.059999999999999998,-0.029999999999999999,1.01
1496,1782588433445,0.059999999999999998,-0.029999999999999999,1.02
1497,1782588433512,0.059999999999999998,-0.029999999999999999,1.02
1498,1782588433545,0.059999999999999998,-0.029999999999999999,1.02
1499,1782588433611,0.059999999999999998,-0.029999999999999999,1.02
1500,1782588433661,0.059999999999999998,-0.029999999999999999,1.01
1501,1782588433694,0.059999999999999998,-0.029999999999999999,1.01
1502,1782588433744,0.059999999999999998,-0.029999999999999999,1.01
1503,1782588433811,0.059999999999999998,-0.029999999999999999,1.01
1504,1782588433944,0.070000000000000007,-0.02,1.01
1505,1782588434062,0.070000000000000007,-0.02,1.01
1506,1782588434144,0.059999999999999998,-0.02,1.01
1507,1782588434161,0.059999999999999998,-0.02,1.01
1508,1782588434195,0.059999999999999998,-0.029999999999999999,1.01
1509,1782588434344,0.070000000000000007,-0.029999999999999999,1.01
1510,1782588434460,0.059999999999999998,-0.029999999999999999,1.01
1511,1782588434511,0.059999999999999998,-0.029999999999999999,1.01
1512,1782588434561,0.059999999999999998,-0.029999999999999999,1.01
1513,1782588434577,0.059999999999999998,-0.029999999999999999,1.02
1514,1782588434660,0.070000000000000007,-0.029999999999999999,1.02
1515,1782588434694,0.059999999999999998,-0.029999999999999999,1.01
1516,1782588434777,0.059999999999999998,-0.029999999999999999,1.01
1517,1782588434844,0.059999999999999998,-0.029999999999999999,1.01
1518,1782588434910,0.059999999999999998,-0.029999999999999999,1.01
1519,1782588434977,0.059999999999999998,-0.029999999999999999,1.01
1520,1782588435060,0.059999999999999998,-0.029999999999999999,1.01
1521,1782588435143,0.059999999999999998,-0.029999999999999999,1.01
1522,1782588435194,0.059999999999999998,-0.029999999999999999,1.02
1523,1782588435243,0.059999999999999998,-0.02,1.02
1524,1782588435260,0.059999999999999998,-0.02,1.01
1525,1782588435410,0.059999999999999998,-0.02,1.01
1526,1782588435460,0.059999999999999998,-0.02,1.01
1527,1782588435493,0.059999999999999998,-0.02,1.01
1528,1782588435543,0.059999999999999998,-0.02,1.01
1529,1782588435627,0.059999999999999998,-0.02,1.01
1530,1782588435660,0.059999999999999998,-0.029999999999999999,1.01
1531,1782588435694,0.059999999999999998,-0.029999999999999999,1.01
1532,1782588435760,0.059999999999999998,-0.029999999999999999,1.01
1533,1782588435777,0.059999999999999998,-0.029999999999999999,1.01
1534,1782588435793,0.059999999999999998,-0.029999999999999999,1.01
1535,1782588435810,0.059999999999999998,-0.029999999999999999,1.01
1536,1782588435859,0.059999999999999998,-0.029999999999999999,1.01
1537,1782588435943,0.059999999999999998,-0.029999999999999999,1.01
1538,1782588435993,0.059999999999999998,-0.029999999999999999,1.01
1539,1782588436027,0.059999999999999998,-0.029999999999999999,1.01
1540,1782588436043,0.059999999999999998,-0.029999999999999999,1.01
1541,1782588436076,0.059999999999999998,-0.029999999999999999,1.01
1542,1782588436093,0.059999999999999998,-0.029999999999999999,1.01
1543,1782588436159,0.059999999999999998,-0.029999999999999999,1.01
1544,1782588436460,0.059999999999999998,-0.029999999999999999,1.01
1545,1782588436475,0.059999999999999998,-0.029999999999999999,1.01
1546,1782588436493,0.059999999999999998,-0.029999999999999999,1.01
1547,1782588436526,0.059999999999999998,-0.029999999999999999,1.01
1548,1782588436559,0.059999999999999998,-0.029999999999999999,1.01
1549,1782588436592,0.059999999999999998,-0.029999999999999999,1.01
1550,1782588436643,0.059999999999999998,-0.029999999999999999,1.01
1551,1782588436709,0.059999999999999998,-0.029999999999999999,1.01
1552,1782588436759,0.059999999999999998,-0.029999999999999999,1.01
1553,1782588436858,0.059999999999999998,-0.029999999999999999,1.01
1554,1782588436892,0.059999999999999998,-0.029999999999999999,1.01
1555,1782588436992,0.059999999999999998,-0.029999999999999999,1.01
1556,1782588437042,0.059999999999999998,-0.029999999999999999,1.01
1557,1782588437092,0.059999999999999998,-0.029999999999999999,1.01
1558,1782588437109,0.059999999999999998,-0.029999999999999999,1.01
1559,1782588437158,0.059999999999999998,-0.029999999999999999,1.01
1560,1782588437226,0.059999999999999998,-0.029999999999999999,1.01
1561,1782588437276,0.059999999999999998,-0.029999999999999999,1.01
1562,1782588437408,0.059999999999999998,-0.029999999999999999,1.01
1563,1782588437575,0.059999999999999998,-0.029999999999999999,1.01
1564,1782588437608,0.059999999999999998,-0.029999999999999999,1.01
1565,1782588437725,0.059999999999999998,-0.029999999999999999,1.01
1566,1782588437775,0.059999999999999998,-0.029999999999999999,1.01
1567,1782588437792,0.059999999999999998,-0.029999999999999999,1.01
1568,1782588437825,0.059999999999999998,-0.029999999999999999,1.01
1569,1782588437891,0.059999999999999998,-0.029999999999999999,1.01
1570,1782588437958,0.059999999999999998,-0.029999999999999999,1.01
1571,1782588438009,0.059999999999999998,-0.029999999999999999,1.01
1572,1782588438074,0.059999999999999998,-0.02,1.01
1573,1782588438108,0.059999999999999998,-0.02,1.01
1574,1782588438208,0.059999999999999998,-0.029999999999999999,1.01
1575,1782588438257,0.059999999999999998,-0.029999999999999999,1.01
1576,1782588438308,0.059999999999999998,-0.029999999999999999,1.01
1577,1782588438357,0.059999999999999998,-0.029999999999999999,1.01
1578,1782588438375,0.059999999999999998,-0.029999999999999999,1.01
1579,1782588438407,0.059999999999999998,-0.029999999999999999,1.01
1580,1782588438441,0.059999999999999998,-0.029999999999999999,1.01
1581,1782588438457,0.059999999999999998,-0.029999999999999999,1.01
1582,1782588438491,0.059999999999999998,-0.029999999999999999,1.01
1583,1782588438557,0.059999999999999998,-0.029999999999999999,1.01
1584,1782588438657,0.059999999999999998,-0.029999999999999999,1.01
1585,1782588438690,0.059999999999999998,-0.029999999999999999,1.01
1586,1782588438707,0.059999999999999998,-0.029999999999999999,1.01
1587,1782588438741,0.059999999999999998,-0.029999999999999999,1.01
1588,1782588438757,0.059999999999999998,-0.029999999999999999,1.01
1589,1782588438791,0.059999999999999998,-0.029999999999999999,1.01
1590,1782588438874,0.059999999999999998,-0.029999999999999999,1.01
1591,1782588439057,0.059999999999999998,-0.029999999999999999,1.01
1592,1782588439090,0.059999999999999998,-0.029999999999999999,1.01
1593,1782588439140,0.059999999999999998,-0.029999999999999999,1.01
1594,1782588439224,0.059999999999999998,-0.029999999999999999,1.01
1595,1782588439256,0.059999999999999998,-0.029999999999999999,1.01
1596,1782588439273,0.059999999999999998,-0.029999999999999999,1.01
1597,1782588439291,0.059999999999999998,-0.029999999999999999,1.01
1598,1782588439324,0.059999999999999998,-0.029999999999999999,1.01
1599,1782588439357,0.059999999999999998,-0.029999999999999999,1.01
1600,1782588439456,0.059999999999999998,-0.029999999999999999,1.01
1601,1782588439540,0.059999999999999998,-0.029999999999999999,1.01
1602,1782588439573,0.059999999999999998,-0.029999999999999999,1.01
1603,1782588439639,0.059999999999999998,-0.029999999999999999,1.01
1604,1782588439706,0.059999999999999998,-0.029999999999999999,1.01
1605,1782588440012,0.059999999999999998,-0.029999999999999999,1.01
1606,1782588440023,0.059999999999999998,-0.029999999999999999,1.02
1607,1782588440023,0.059999999999999998,-0.029999999999999999,1.02
1608,1782588440023,0.059999999999999998,-0.029999999999999999,1.01
1609,1782588440023,0.059999999999999998,-0.02,1.01
1610,1782588440039,0.059999999999999998,-0.02,1.01
1611,1782588440056,0.059999999999999998,-0.02,1.01
1612,1782588440256,0.059999999999999998,-0.029999999999999999,1.01
1613,1782588440290,0.059999999999999998,-0.029999999999999999,1.01
1614,1782588440322,0.059999999999999998,-0.029999999999999999,1.01
1615,1782588440372,0.059999999999999998,-0.02,1.01
1616,1782588440423,0.059999999999999998,-0.02,1.01
1617,1782588440506,0.059999999999999998,-0.02,1.01
1618,1782588440556,0.059999999999999998,-0.02,1.01
1619,1782588440672,0.059999999999999998,-0.02,1.02
1620,1782588440722,0.059999999999999998,-0.02,1.01
1621,1782588440790,0.059999999999999998,-0.029999999999999999,1.01
1622,1782588440823,0.059999999999999998,-0.029999999999999999,1.01
1623,1782588440873,0.059999999999999998,-0.029999999999999999,1.01
1624,1782588440956,0.059999999999999998,-0.029999999999999999,1.01
1625,1782588441055,0.059999999999999998,-0.029999999999999999,1.01
1626,1782588441122,0.059999999999999998,-0.029999999999999999,1.01
1627,1782588441272,0.059999999999999998,-0.029999999999999999,1.01
1628,1782588441355,0.059999999999999998,-0.029999999999999999,1.01
1629,1782588441472,0.059999999999999998,-0.029999999999999999,1.01
1630,1782588441489,0.059999999999999998,-0.029999999999999999,1.01
1631,1782588441522,0.059999999999999998,-0.029999999999999999,1.01
1632,1782588441538,0.059999999999999998,-0.029999999999999999,1.01
1633,1782588441589,0.059999999999999998,-0.029999999999999999,1.01
1634,1782588441655,0.059999999999999998,-0.029999999999999999,1.01
1635,1782588441689,0.059999999999999998,-0.029999999999999999,1.01
1636,1782588441772,0.059999999999999998,-0.029999999999999999,1.01
1637,1782588441839,0.059999999999999998,-0.029999999999999999,1.01
1638,1782588441872,0.059999999999999998,-0.029999999999999999,1.01
1639,1782588441922,0.059999999999999998,-0.029999999999999999,1.01
1640,1782588441939,0.059999999999999998,-0.029999999999999999,1.01
1641,1782588442004,0.059999999999999998,-0.029999999999999999,1.01
1642,1782588442054,0.059999999999999998,-0.029999999999999999,1.01
1643,1782588442104,0.059999999999999998,-0.029999999999999999,1.01
1644,1782588442171,0.059999999999999998,-0.029999999999999999,1.01
1645,1782588442238,0.059999999999999998,-0.029999999999999999,1.02
1646,1782588442304,0.059999999999999998,-0.029999999999999999,1.02
1647,1782588442354,0.059999999999999998,-0.029999999999999999,1.02
1648,1782588442437,0.059999999999999998,-0.029999999999999999,1.01
1649,1782588442521,0.059999999999999998,-0.029999999999999999,1.01
1650,1782588442671,0.059999999999999998,-0.029999999999999999,1.01
1651,1782588442705,0.059999999999999998,-0.029999999999999999,1.01
1652,1782588442788,0.059999999999999998,-0.029999999999999999,1.01
1653,1782588442820,0.059999999999999998,-0.029999999999999999,1.01
1654,1782588442871,0.059999999999999998,-0.029999999999999999,1.01
1655,1782588442921,0.059999999999999998,-0.029999999999999999,1.01
1656,1782588442939,0.059999999999999998,-0.029999999999999999,1.01
1657,1782588443021,0.059999999999999998,-0.029999999999999999,1.01
1658,1782588443053,0.059999999999999998,-0.029999999999999999,1.01
1659,1782588443070,0.059999999999999998,-0.029999999999999999,1.01
1660,1782588443087,0.059999999999999998,-0.029999999999999999,1.01
1661,1782588443105,0.059999999999999998,-0.029999999999999999,1.01
1662,1782588443137,0.059999999999999998,-0.029999999999999999,1.01
1663,1782588443188,0.059999999999999998,-0.029999999999999999,1.01
1664,1782588443237,0.059999999999999998,-0.029999999999999999,1.01
1665,1782588443288,0.059999999999999998,-0.029999999999999999,1.01
1666,1782588443454,0.059999999999999998,-0.029999999999999999,1.01
1667,1782588443504,0.059999999999999998,-0.029999999999999999,1.01
1668,1782588443521,0.059999999999999998,-0.029999999999999999,1.01
1669,1782588443570,0.059999999999999998,-0.029999999999999999,1.01
1670,1782588443636,0.059999999999999998,-0.029999999999999999,1.01
1671,1782588443704,0.059999999999999998,-0.029999999999999999,1.01
1672,1782588443753,0.059999999999999998,-0.029999999999999999,1.01
1673,1782588443770,0.059999999999999998,-0.029999999999999999,1.01
1674,1782588443787,0.059999999999999998,-0.029999999999999999,1.01
1675,1782588443821,0.059999999999999998,-0.029999999999999999,1.01
1676,1782588443905,0.059999999999999998,-0.029999999999999999,1.01
1677,1782588443953,0.059999999999999998,-0.029999999999999999,1.01
1678,1782588444003,0.059999999999999998,-0.029999999999999999,1.01
1679,1782588444103,0.059999999999999998,-0.029999999999999999,1.01
1680,1782588444203,0.059999999999999998,-0.029999999999999999,1.01
1681,1782588444269,0.059999999999999998,-0.029999999999999999,1.01
1682,1782588444369,0.059999999999999998,-0.029999999999999999,1.01
1683,1782588444503,0.059999999999999998,-0.029999999999999999,1.01
1684,1782588444535,0.059999999999999998,-0.029999999999999999,1.01
1685,1782588444586,0.059999999999999998,-0.029999999999999999,1.01
1686,1782588444636,0.059999999999999998,-0.029999999999999999,1.01
1687,1782588444669,0.059999999999999998,-0.029999999999999999,1.01
1688,1782588444686,0.059999999999999998,-0.029999999999999999,1.01
1689,1782588444702,0.059999999999999998,-0.029999999999999999,1.01
1690,1782588444736,0.059999999999999998,-0.029999999999999999,1.01
1691,1782588444769,0.059999999999999998,-0.029999999999999999,1.01
1692,1782588444835,0.059999999999999998,-0.029999999999999999,1.01
1693,1782588444918,0.059999999999999998,-0.029999999999999999,1.01
1694,1782588444986,0.059999999999999998,-0.029999999999999999,1.01
1695,1782588445035,0.059999999999999998,-0.029999999999999999,1.01
1696,1782588445119,0.059999999999999998,-0.029999999999999999,1.01
1697,1782588445169,0.059999999999999998,-0.029999999999999999,1.01
1698,1782588445202,0.059999999999999998,-0.029999999999999999,1.01
1699,1782588445268,0.059999999999999998,-0.029999999999999999,1.01
1700,1782588445318,0.059999999999999998,-0.029999999999999999,1.01
1701,1782588445385,0.059999999999999998,-0.029999999999999999,1.01
1702,1782588445418,0.059999999999999998,-0.029999999999999999,1.01
1703,1782588445451,0.059999999999999998,-0.029999999999999999,1.01
1704,1782588445502,0.059999999999999998,-0.029999999999999999,1.01
1705,1782588445551,0.059999999999999998,-0.029999999999999999,1.01
1706,1782588445585,0.059999999999999998,-0.029999999999999999,1.01
1707,1782588445601,0.059999999999999998,-0.029999999999999999,1.01
1708,1782588445652,0.059999999999999998,-0.029999999999999999,1.01
1709,1782588445702,0.059999999999999998,-0.029999999999999999,1.01
1710,1782588445735,0.059999999999999998,-0.029999999999999999,1.01
1711,1782588445835,0.059999999999999998,-0.029999999999999999,1.01
1712,1782588445868,0.059999999999999998,-0.029999999999999999,1.01
1713,1782588445934,0.059999999999999998,-0.029999999999999999,1.01
1714,1782588445951,0.059999999999999998,-0.029999999999999999,1.01
1715,1782588445968,0.059999999999999998,-0.029999999999999999,1.01
1716,1782588446001,0.059999999999999998,-0.029999999999999999,1.01
1717,1782588446017,0.059999999999999998,-0.029999999999999999,1.01
1718,1782588446101,0.059999999999999998,-0.029999999999999999,1.01
1719,1782588446152,0.059999999999999998,-0.029999999999999999,1.01
1720,1782588446252,0.059999999999999998,-0.029999999999999999,1.01
1721,1782588446318,0.059999999999999998,-0.029999999999999999,1.01
1722,1782588446351,0.059999999999999998,-0.029999999999999999,1.01
1723,1782588446451,0.059999999999999998,-0.029999999999999999,1.01
1724,1782588446517,0.059999999999999998,-0.029999999999999999,1.01
1725,1782588446551,0.059999999999999998,-0.029999999999999999,1.01
1726,1782588446617,0.059999999999999998,-0.029999999999999999,1.01
1727,1782588446667,0.059999999999999998,-0.029999999999999999,1.01
1728,1782588446717,0.059999999999999998,-0.029999999999999999,1.01
1729,1782588446834,0.059999999999999998,-0.029999999999999999,1.01
1730,1782588446917,0.059999999999999998,-0.029999999999999999,1.01
1731,1782588447017,0.059999999999999998,-0.029999999999999999,1.01
1732,1782588447083,0.059999999999999998,-0.029999999999999999,1.01
1733,1782588447200,0.059999999999999998,-0.029999999999999999,1.01
1734,1782588447217,0.059999999999999998,-0.029999999999999999,1.01
1735,1782588447234,0.059999999999999998,-0.029999999999999999,1.01
1736,1782588447267,0.059999999999999998,-0.02,1.01
1737,1782588447300,0.059999999999999998,-0.02,1.01
1738,1782588447383,0.059999999999999998,-0.029999999999999999,1.02
1739,1782588447450,0.059999999999999998,-0.029999999999999999,1.01
1740,1782588447516,0.059999999999999998,-0.029999999999999999,1.01
1741,1782588447567,0.059999999999999998,-0.029999999999999999,1.01
1742,1782588447633,0.059999999999999998,-0.029999999999999999,1.01
1743,1782588447650,0.059999999999999998,-0.029999999999999999,1.01
1744,1782588447699,0.059999999999999998,-0.029999999999999999,1.02
1745,1782588447749,0.059999999999999998,-0.029999999999999999,1.02
1746,1782588447816,0.059999999999999998,-0.029999999999999999,1.02
1747,1782588447883,0.059999999999999998,-0.029999999999999999,1.02
1748,1782588447916,0.059999999999999998,-0.029999999999999999,1.02
1749,1782588447933,0.059999999999999998,-0.029999999999999999,1.02
1750,1782588447966,0.059999999999999998,-0.029999999999999999,1.02
1751,1782588448016,0.059999999999999998,-0.029999999999999999,1.01
1752,1782588448033,0.050000000000000003,-0.029999999999999999,1.01
1753,1782588448066,0.050000000000000003,-0.029999999999999999,1.01
1754,1782588448100,0.050000000000000003,-0.029999999999999999,1.01
1755,1782588448116,0.050000000000000003,-0.029999999999999999,1.01
1756,1782588448149,0.050000000000000003,-0.029999999999999999,1.01
1757,1782588448199,0.059999999999999998,-0.029999999999999999,1.01
1758,1782588448266,0.059999999999999998,-0.029999999999999999,1.01
1759,1782588448332,0.059999999999999998,-0.029999999999999999,1.01
1760,1782588448366,0.059999999999999998,-0.029999999999999999,1.01
1761,1782588448399,0.059999999999999998,-0.029999999999999999,1.01
1762,1782588448432,0.059999999999999998,-0.029999999999999999,1.01
1763,1782588448449,0.059999999999999998,-0.029999999999999999,1.01
1764,1782588448516,0.059999999999999998,-0.029999999999999999,1.01
1765,1782588448565,0.059999999999999998,-0.029999999999999999,1.02
1766,1782588448683,0.059999999999999998,-0.029999999999999999,1.02
1767,1782588448732,0.059999999999999998,-0.029999999999999999,1.02
1768,1782588448882,0.059999999999999998,-0.02,1.01
1769,1782588448932,0.059999999999999998,-0.02,1.01
1770,1782588449015,0.059999999999999998,-0.029999999999999999,1.01
1771,1782588449148,0.059999999999999998,-0.029999999999999999,1.01
1772,1782588449198,0.059999999999999998,-0.029999999999999999,1.01
1773,1782588449249,0.059999999999999998,-0.029999999999999999,1.01
1774,1782588449315,0.059999999999999998,-0.029999999999999999,1.01
1775,1782588449331,0.059999999999999998,-0.029999999999999999,1.01
1776,1782588449465,0.059999999999999998,-0.029999999999999999,1.01
1777,1782588449465,0.059999999999999998,-0.029999999999999999,1.01
1778,1782588449498,0.059999999999999998,-0.029999999999999999,1.01
1779,1782588449598,0.059999999999999998,-0.029999999999999999,1.01
1780,1782588449664,0.059999999999999998,-0.029999999999999999,1.01
1781,1782588449715,0.059999999999999998,-0.029999999999999999,1.01
1782,1782588449731,0.059999999999999998,-0.029999999999999999,1.01
1783,1782588449815,0.059999999999999998,-0.029999999999999999,1.01
1784,1782588449881,0.059999999999999998,-0.029999999999999999,1.01
1785,1782588449981,0.059999999999999998,-0.029999999999999999,1.01
1786,1782588450081,0.059999999999999998,-0.029999999999999999,1.01
1787,1782588450114,0.059999999999999998,-0.029999999999999999,1.01
1788,1782588450148,0.059999999999999998,-0.029999999999999999,1.01
1789,1782588450247,0.059999999999999998,-0.029999999999999999,1.01
1790,1782588450281,0.059999999999999998,-0.029999999999999999,1.01
1791,1782588450331,0.059999999999999998,-0.029999999999999999,1.01
1792,1782588450381,0.059999999999999998,-0.029999999999999999,1.01
1793,1782588450464,0.059999999999999998,-0.029999999999999999,1.01
1794,1782588450497,0.059999999999999998,-0.029999999999999999,1.01
1795,1782588450581,0.059999999999999998,-0.029999999999999999,1.01
1796,1782588450680,0.059999999999999998,-0.029999999999999999,1.01
1797,1782588451047,0.059999999999999998,-0.029999999999999999,1.01
1798,1782588451047,0.059999999999999998,-0.029999999999999999,1.01
1799,1782588451047,0.059999999999999998,-0.029999999999999999,1.01
1800,1782588451047,0.059999999999999998,-0.029999999999999999,1.01
1801,1782588451047,0.059999999999999998,-0.029999999999999999,1.01
1802,1782588451113,0.059999999999999998,-0.029999999999999999,1.01
1803,1782588451213,0.059999999999999998,-0.029999999999999999,1.01
1804,1782588451247,0.059999999999999998,-0.029999999999999999,1.01
1805,1782588451313,0.059999999999999998,-0.029999999999999999,1.01
1806,1782588451380,0.059999999999999998,-0.029999999999999999,1.01
1807,1782588451413,0.059999999999999998,-0.029999999999999999,1.01
1808,1782588451447,0.059999999999999998,-0.029999999999999999,1.01
1809,1782588451563,0.059999999999999998,-0.029999999999999999,1.01
1810,1782588451580,0.059999999999999998,-0.029999999999999999,1.01
1811,1782588451629,0.059999999999999998,-0.029999999999999999,1.01
1812,1782588451713,0.059999999999999998,-0.029999999999999999,1.01
1813,1782588451763,0.059999999999999998,-0.029999999999999999,1.01
1814,1782588451847,0.059999999999999998,-0.029999999999999999,1.01
1815,1782588451863,0.059999999999999998,-0.029999999999999999,1.01
1816,1782588451879,0.059999999999999998,-0.029999999999999999,1.01
1817,1782588451896,0.059999999999999998,-0.029999999999999999,1.01
1818,1782588451929,0.059999999999999998,-0.029999999999999999,1.01
1819,1782588452013,0.059999999999999998,-0.029999999999999999,1.01
1820,1782588452097,0.059999999999999998,-0.029999999999999999,1.01
1821,1782588452179,0.059999999999999998,-0.029999999999999999,1.01
1822,1782588452246,0.059999999999999998,-0.029999999999999999,1.01
1823,1782588452312,0.059999999999999998,-0.029999999999999999,1.01
1824,1782588452396,0.059999999999999998,-0.029999999999999999,1.01
1825,1782588452446,0.059999999999999998,-0.029999999999999999,1.01
