index,date,GYRO_X,GYRO_Y,GYRO_Z,1,2,3,4,5
0,1765568974699,5,-8,-1,0,0,0,0,0
1,1765568974866,5,-8,0,0,0,0,0,0
2,1765568975082,5,-9,-1,0,0,0,0,0
3,1765568975216,4,-9,0,0,0,0,0,0
4,1765568975616,3,-8,-1,0,0,0,0,0
5,1765568975815,4,-8,0,0,0,0,0,0
6,1765568975948,4,-9,0,0,0,0,0,0
7,1765568976148,4,-8,-1,0,0,0,0,0
8,1765568976248,6,-8,-2,0,0,0,0,0
9,1765568976514,5,-9,1,0,0,0,0,0
10,1765568976598,4,-8,-1,0,0,0,0,0
11,1765568976647,5,-8,-1,0,0,0,0,0
12,1765568976798,5,-9,-1,0,0,0,0,0
13,1765568976948,5,-7,0,0,0,0,0,0
14,1765568977264,5,-10,0,0,0,0,0,0
15,1765568977398,3,-9,0,0,0,0,0,0
16,1765568977598,5,-9,-1,0,0,0,0,0
17,1765568977698,4,-8,-1,0,0,0,0,0
18,1765568978081,3,-9,-1,0,0,0,0,0
19,1765568978298,6,-8,-2,0,0,0,0,0
20,1765568978415,5,-9,-1,0,0,0,0,0
21,1765568978647,5,-7,-2,0,0,0,0,0
22,1765568978798,5,-7,-1,0,0,0,0,0
23,1765568979114,5,-8,0,0,0,0,0,0
24,1765568979232,5,-8,0,0,0,0,0,0
25,1765568979432,3,-9,0,0,0,0,0,0
26,1765568979531,4,-8,0,0,0,0,0,0
27,1765568979948,3,-8,-2,0,0,0,0,0
28,1765568980131,5,-8,-1,0,0,0,0,0
29,1765568980248,5,-7,-2,0,0,0,0,0
30,1765568980465,4,-8,-1,0,0,0,0,0
31,1765568980697,3,-8,0,0,0,0,0,0
32,1765568980948,4,-8,0,0,0,0,0,0
33,1765568981082,4,-8,0,0,0,0,0,0
34,1765568981331,3,-8,0,0,0,0,0,0
35,1765568981465,6,-8,-1,0,0,0,0,0
36,1765568981698,4,-8,-1,0,0,0,0,0
37,1765568981814,5,-9,-1,0,0,0,0,0
38,1765568982064,4,-9,-1,0,0,0,0,0
39,1765568982249,3,-9,0,0,0,0,0,0
40,1765568982464,4,-7,0,0,0,0,0,0
41,1765568982565,4,-8,-1,0,0,0,0,0
42,1765568982798,5,-7,0,0,0,0,0,0
43,1765568982948,5,-8,0,0,0,0,0,0
44,1765568983114,4,-9,-1,0,0,0,0,0
45,1765568983281,5,-9,-2,0,0,0,0,0
46,1765568983498,5,-7,-1,0,0,0,0,0
47,1765568983648,4,-8,0,0,0,0,0,0
48,1765568983764,4,-8,1,0,0,0,0,0
49,1765568984031,3,-7,0,0,0,0,0,0
50,1765568984264,4,-8,0,0,0,0,0,0
51,1765568984415,6,-8,-1,0,0,0,0,0
52,1765568984598,5,-8,-1,0,0,0,0,0
53,1765568984731,5,-9,0,0,0,0,0,0
54,1765568984798,5,-8,0,0,0,0,0,0
55,1765568984964,4,-9,0,0,0,0,0,0
56,1765568985115,4,-9,0,0,0,0,0,0
57,1765568985298,4,-8,0,0,0,0,0,0
58,1765568985498,3,-8,-1,0,0,0,0,0
59,1765568985610,6,-7,-2,0,0,0,0,0
60,1765568985864,5,-8,-2,0,0,0,0,0
61,1765568986232,5,-8,-1,0,0,0,0,0
62,1765568986298,4,-9,0,0,0,0,0,0
63,1765568986564,3,-8,-1,0,0,0,0,0
64,1765568986698,4,-8,-1,0,0,0,0,0
65,1765568986915,3,-8,0,0,0,0,0,0
66,1765568987015,4,-8,-2,0,0,0,0,0
67,1765568987464,4,-7,0,0,0,0,0,0
68,1765568987698,5,-9,-1,0,0,0,0,0
69,1765568987797,5,-8,-1,0,0,0,0,0
70,1765568988048,4,-9,0,0,0,0,0,0
71,1765568988147,5,-8,0,0,0,0,0,0
72,1765568988431,3,-8,-2,0,0,0,0,0
73,1765568988565,6,-8,0,0,0,0,0,0
74,1765568988681,4,-9,0,0,0,0,0,0
75,1765568988848,5,-9,-1,0,0,0,0,0
76,1765568989298,4,-8,-1,0,0,0,0,0
77,1765568989364,4,-9,-1,0,0,0,0,0
78,1765568989581,4,-9,0,0,0,0,0,0
79,1765568989698,4,-7,-1,0,0,0,0,0
80,1765568989848,4,-9,0,0,0,0,0,0
81,1765568990048,3,-8,-1,0,0,0,0,0
82,1765568990231,5,-7,0,0,0,0,0,0
83,1765568990347,4,-8,1,0,0,0,0,0
84,1765568990398,3,-8,-1,0,0,0,0,0
85,1765568990481,5,-9,-1,0,0,0,0,0
86,1765568990715,5,-8,1,0,0,0,0,0
87,1765568990948,5,-9,-1,0,0,0,0,0
88,1765568991081,4,-8,-1,0,0,0,0,0
89,1765568991215,4,-8,-1,0,0,0,0,0
90,1765568991414,4,-9,-2,0,0,0,0,0
91,1765568991514,3,-9,0,0,0,0,0,0
92,1765568991631,5,-10,-1,0,0,0,0,0
93,1765568991914,3,-7,-256,0,0,0,0,0
94,1765568991965,3,-7,-1,0,0,0,0,0
95,1765568992197,4,-8,1,0,0,0,0,0
96,1765568992264,5,-8,-1,0,0,0,0,0
97,1765568992382,4,-8,0,0,0,0,0,0
98,1765568992697,3,-8,0,0,0,0,0,0
99,1765568992764,4,-7,-1,0,0,0,0,0
100,1765568992881,3,-7,0,0,0,0,0,0
101,1765568993081,4,-8,-1,0,0,0,0,0
102,1765568993181,6,-8,0,0,0,0,0,0
103,1765568993380,5,-8,0,0,0,0,0,0
104,1765568993464,5,-8,-1,0,0,0,0,0
105,1765568993647,3,-9,-1,0,0,0,0,0
106,1765568993798,4,-8,-1,0,0,0,0,0
107,1765568993931,4,-8,0,0,0,0,0,0
108,1765568994064,5,-9,0,0,0,0,0,0
109,1765568994164,6,-7,-1,0,0,0,0,0
110,1765568994348,5,-8,0,0,0,0,0,0
111,1765568994598,5,-9,-1,0,0,0,0,0
112,1765568994831,5,-7,0,0,0,0,0,0
113,1765568994898,4,-9,-1,0,0,0,0,0
114,1765568995114,5,-8,0,0,0,0,0,0
115,1765568995181,4,-8,0,0,0,0,0,0
116,1765568995298,3,-8,0,0,0,0,0,0
117,1765568995547,4,-7,-1,0,0,0,0,0
118,1765568995613,3,-8,255,0,0,0,0,0
119,1765568995915,5,-8,1,0,0,0,0,0
120,1765568996048,5,-9,-1,0,0,0,0,0
121,1765568996198,5,-8,-1,0,0,0,0,0
122,1765568996414,5,-9,0,0,0,0,0,0
123,1765568996532,5,-9,0,0,0,0,0,0
124,1765568996715,6,-8,-1,0,0,0,0,0
125,1765568996814,3,-8,0,0,0,0,0,0
126,1765568997014,5,-8,0,0,0,0,0,0
127,1765568997047,5,-8,0,0,0,0,0,0
128,1765568997248,5,-8,-2,0,0,0,0,0
129,1765568997398,2,-8,-1,0,0,0,0,0
130,1765568997566,4,-7,-2,0,0,0,0,0
131,1765568997664,5,-8,0,0,0,0,0,0
132,1765568997748,5,-8,0,0,0,0,0,0
133,1765568997948,4,-8,-1,0,0,0,0,0
134,1765568998031,4,-9,-1,0,0,0,0,0
135,1765568998447,3,-8,0,0,0,0,0,0
136,1765568998497,6,-8,0,0,0,0,0,0
137,1765568998715,4,-8,0,0,0,0,0,0
138,1765568998798,5,-9,-1,0,0,0,0,0
139,1765568998897,4,-8,0,0,0,0,0,0
140,1765568999015,4,-7,0,0,0,0,0,0
141,1765568999214,3,-7,-1,0,0,0,0,0
142,1765568999364,5,-7,0,0,0,0,0,0
143,1765568999630,5,-8,0,0,0,0,0,0
144,1765568999698,4,-9,0,0,0,0,0,0
145,1765568999898,4,-7,0,0,0,0,0,0
146,1765569000248,4,-8,-1,0,0,0,0,0
147,1765569000431,5,-9,0,0,0,0,0,0
148,1765569000597,4,-7,0,0,0,0,0,0
149,1765569000797,4,-7,1,0,0,0,0,0
150,1765569000864,4,-8,-1,0,0,0,0,0
151,1765569001131,4,-9,-1,0,0,0,0,0
152,1765569001248,4,-8,0,0,0,0,0,0
153,1765569001431,5,-9,1,0,0,0,0,0
154,1765569001548,5,-7,0,0,0,0,0,0
155,1765569001865,4,-9,0,0,0,0,0,0
156,1765569001998,5,-9,-1,0,0,0,0,0
157,1765569002181,5,-9,-1,0,0,0,0,0
158,1765569002281,4,-8,0,0,0,0,0,0
159,1765569002532,5,-6,-1,0,0,0,0,0
160,1765569002665,5,-7,-1,0,0,0,0,0
161,1765569002830,5,-8,0,0,0,0,0,0
162,1765569002964,4,-10,0,0,0,0,0,0
163,1765569003181,4,-8,0,0,0,0,0,0
164,1765569003381,5,-10,0,0,0,0,0,0
165,1765569003663,6,-8,1,0,0,0,0,0
166,1765569003747,3,-8,0,0,0,0,0,0
167,1765569003814,4,-8,0,0,0,0,0,0
168,1765569003947,3,-8,-1,0,0,0,0,0
169,1765569004114,3,-8,-1,0,0,0,0,0
170,1765569004348,7,-9,1,0,0,0,0,0
171,1765569004530,3,-8,-1,0,0,0,0,0
172,1765569004581,4,-9,0,0,0,0,0,0
173,1765569004831,5,-8,-1,0,0,0,0,0
174,1765569004931,4,-9,0,0,0,0,0,0
175,1765569005264,4,-9,0,0,0,0,0,0
176,1765569005331,6,-9,-1,0,0,0,0,0
177,1765569005548,4,-8,0,0,0,0,0,0
178,1765569005697,4,-8,-1,0,0,0,0,0
179,1765569005914,5,-8,-1,0,0,0,0,0
180,1765569006048,4,-8,-1,0,0,0,0,0
181,1765569006281,6,-8,-1,0,0,0,0,0
182,1765569006414,5,-8,-1,0,0,0,0,0
183,1765569006598,5,-7,-1,0,0,0,0,0
184,1765569006815,5,-8,-1,0,0,0,0,0
185,1765569007063,4,-9,0,0,0,0,0,0
186,1765569007181,4,-8,0,0,0,0,0,0
187,1765569007451,4,-9,-1,0,0,0,0,0
188,1765569007467,4,-7,-1,0,0,0,0,0
189,1765569007648,5,-8,0,0,0,0,0,0
190,1765569007880,5,-9,0,0,0,0,0,0
191,1765569008047,5,-8,1,0,0,0,0,0
192,1765569008164,3,-8,0,0,0,0,0,0
193,1765569008248,4,-8,-1,0,0,0,0,0
194,1765569008314,5,-8,0,0,0,0,0,0
195,1765569008632,6,-9,0,0,0,0,0,0
196,1765569009015,4,-9,0,0,0,0,0,0
197,1765569009113,6,-9,-1,0,0,0,0,0
198,1765569009347,5,-8,-1,0,0,0,0,0
199,1765569009497,5,-8,-1,0,0,0,0,0
200,1765569009731,5,-7,0,0,0,0,0,0
201,1765569009797,3,-7,0,0,0,0,0,0
202,1765569010031,5,-7,-1,0,0,0,0,0
203,1765569010215,5,-9,-1,0,0,0,0,0
204,1765569010481,5,-8,-1,0,0,0,0,0
205,1765569010614,4,-9,-1,0,0,0,0,0
206,1765569010814,5,-8,-1,0,0,0,0,0
207,1765569010915,6,-7,0,0,0,0,0,0
208,1765569011181,5,-8,-1,0,0,0,0,0
209,1765569011330,5,-7,-1,0,0,0,0,0
210,1765569011497,5,-9,-1,0,0,0,0,0
211,1765569011631,4,-10,-1,0,0,0,0,0
212,1765569012081,5,-8,-1,0,0,0,0,0
213,1765569012264,5,-8,-2,0,0,0,0,0
214,1765569012382,4,-8,-1,0,0,0,0,0
215,1765569012598,4,-9,-1,0,0,0,0,0
216,1765569012765,4,-9,1,0,0,0,0,0
217,1765569012998,4,-9,-1,0,0,0,0,0
218,1765569013114,5,-9,0,0,0,0,0,0
219,1765569013181,4,-8,0,0,0,0,0,0
220,1765569013314,6,-9,1,0,0,0,0,0
221,1765569013481,3,-8,-1,0,0,0,0,0
222,1765569013930,4,-8,0,0,0,0,0,0
223,1765569014114,3,-9,-1,0,0,0,0,0
224,1765569014231,5,-9,-1,0,0,0,0,0
225,1765569014631,5,-8,-2,0,0,0,0,0
226,1765569014781,3,-9,-1,0,0,0,0,0
227,1765569014914,4,-9,-1,0,0,0,0,0
228,1765569015365,3,-7,-1,0,0,0,0,0
229,1765569015548,5,-9,-1,0,0,0,0,0
230,1765569015747,4,-9,0,0,0,0,0,0
231,1765569015881,6,-8,0,0,0,0,0,0
232,1765569016047,4,-9,0,0,0,0,0,0
233,1765569016264,3,-9,-1,0,0,0,0,0
234,1765569016463,3,-8,-1,0,0,0,0,0
235,1765569016598,5,-8,0,0,0,0,0,0
236,1765569016764,3,-8,-1,0,0,0,0,0
237,1765569017198,4,-6,0,0,0,0,0,0
238,1765569017364,4,-8,0,0,0,0,0,0
239,1765569017497,4,-7,1,0,0,0,0,0
240,1765569017581,4,-8,1,0,0,0,0,0
241,1765569017681,4,-8,-1,0,0,0,0,0
242,1765569017914,5,-9,-1,0,0,0,0,0
243,1765569018064,3,-8,-1,0,0,0,0,0
244,1765569018248,6,-7,0,0,0,0,0,0
245,1765569018402,4,-7,-1,0,0,0,0,0
246,1765569018664,4,-8,-1,0,0,0,0,0
247,1765569018846,3,-8,0,0,0,0,0,0
248,1765569019046,3,-8,-1,0,0,0,0,0
249,1765569019197,6,-8,-1,0,0,0,0,0
250,1765569019381,5,-9,-1,0,0,0,0,0
251,1765569019531,4,-9,-1,0,0,0,0,0
252,1765569019747,3,-8,0,0,0,0,0,0
253,1765569019896,4,-9,-1,0,0,0,0,0
254,1765569020047,5,-9,-1,0,0,0,0,0
255,1765569020164,5,-9,0,0,0,0,0,0
256,1765569020481,4,-7,0,0,0,0,0,0
257,1765569020614,5,-8,-1,0,0,0,0,0
258,1765569020815,5,-9,0,0,0,0,0,0
259,1765569020914,4,-9,0,0,0,0,0,0
260,1765569021198,4,-8,-1,0,0,0,0,0
261,1765569021331,4,-8,-1,0,0,0,0,0
262,1765569021514,4,-8,-1,0,0,0,0,0
263,1765569021631,4,-9,-1,0,0,0,0,0
264,1765569022081,5,-9,-1,0,0,0,0,0
265,1765569022298,5,-8,-1,0,0,0,0,0
266,1765569022381,5,-8,0,0,0,0,0,0
267,1765569022598,4,-9,-1,0,0,0,0,0
268,1765569022748,4,-8,0,0,0,0,0,0
269,1765569023013,4,-7,-2,0,0,0,0,0
270,1765569023097,5,-9,0,0,0,0,0,0
271,1765569023214,4,-9,-1,0,0,0,0,0
272,1765569023447,3,-9,-1,0,0,0,0,0
273,1765569023680,4,-8,-1,0,0,0,0,0
274,1765569023947,5,-9,1,0,0,0,0,0
275,1765569024148,7,-7,-1,0,0,0,0,0
276,1765569024247,4,-8,0,0,0,0,0,0
277,1765569024597,5,-7,0,0,0,0,0,0
278,1765569024697,4,-8,0,0,0,0,0,0
279,1765569024914,6,-7,-1,0,0,0,0,0
280,1765569025013,4,-8,1,0,0,0,0,0
281,1765569025048,4,-8,0,0,0,0,0,0
282,1765569025180,4,-9,-1,0,0,0,0,0
283,1765569025431,6,-7,-1,0,0,0,0,0
284,1765569025781,4,-8,-1,0,0,0,0,0
285,1765569025863,5,-8,0,0,0,0,0,0
286,1765569026081,5,-8,0,0,0,0,0,0
287,1765569026231,3,-8,0,0,0,0,0,0
288,1765569026481,5,-8,0,0,0,0,0,0
289,1765569026598,4,-7,0,0,0,0,0,0
290,1765569026797,3,-9,0,0,0,0,0,0
291,1765569027015,4,-9,-2,0,0,0,0,0
292,1765569027131,6,-8,-1,0,0,0,0,0
293,1765569027380,5,-8,0,0,0,0,0,0
294,1765569027497,3,-6,-1,0,0,0,0,0
295,1765569027647,5,-8,0,0,0,0,0,0
296,1765569027781,4,-9,0,0,0,0,0,0
297,1765569027931,6,-8,-1,0,0,0,0,0
298,1765569028197,5,-8,0,0,0,0,0,0
299,1765569028347,5,-8,0,0,0,0,0,0
300,1765569028531,4,-8,-1,0,0,0,0,0
301,1765569028631,4,-9,-1,0,0,0,0,0
302,1765569028730,4,-8,0,0,0,0,0,0
303,1765569028931,4,-8,-1,0,0,0,0,0
304,1765569029147,4,-9,-1,0,0,0,0,0
305,1765569029380,5,-8,0,0,0,0,0,0
306,1765569029498,4,-8,0,0,0,0,0,0
307,1765569029681,6,-9,-1,0,0,0,0,0
308,1765569029781,3,-9,-1,0,0,0,0,0
309,1765569029897,3,-7,-2,0,0,0,0,0
310,1765569030014,4,-8,0,0,0,0,0,0
311,1765569030231,5,-9,-1,0,0,0,0,0
312,1765569030397,3,-8,0,0,0,0,0,0
313,1765569030647,4,-8,0,0,0,0,0,0
314,1765569030714,5,-7,-1,0,0,0,0,0
315,1765569031013,4,-9,-1,0,0,0,0,0
316,1765569031197,5,-8,0,0,0,0,0,0
317,1765569031414,3,-8,-1,0,0,0,0,0
318,1765569031497,4,-9,-1,0,0,0,0,0
319,1765569031697,4,-7,0,0,0,0,0,0
320,1765569031764,5,-8,-1,0,0,0,0,0
321,1765569031914,4,-9,0,0,0,0,0,0
322,1765569032130,3,-9,-1,0,0,0,0,0
323,1765569032247,4,-8,1,0,0,0,0,0
324,1765569032364,4,-8,0,0,0,0,0,0
325,1765569032463,4,-8,-1,0,0,0,0,0
326,1765569032647,5,-8,-1,0,0,0,0,0
327,1765569033147,6,-9,0,0,0,0,0,0
328,1765569033248,3,-9,0,0,0,0,0,0
329,1765569033447,4,-9,0,0,0,0,0,0
330,1765569033481,3,-7,1,0,0,0,0,0
331,1765569033597,5,-8,1,0,0,0,0,0
332,1765569033764,5,-8,-1,0,0,0,0,0
333,1765569033931,3,-7,0,0,0,0,0,0
334,1765569034198,5,-7,-1,0,0,0,0,0
335,1765569034347,5,-8,0,0,0,0,0,0
336,1765569034548,3,-8,-1,0,0,0,0,0
337,1765569034730,4,-8,-1,0,0,0,0,0
338,1765569034980,4,-7,-2,0,0,0,0,0
339,1765569035097,3,-8,-2,0,0,0,0,0
340,1765569035464,4,-8,0,0,0,0,0,0
341,1765569035698,4,-8,0,0,0,0,0,0
342,1765569035814,3,-8,-1,0,0,0,0,0
343,1765569035997,5,-7,0,0,0,0,0,0
344,1765569036181,4,-8,-1,0,0,0,0,0
345,1765569036480,4,-8,0,0,0,0,0,0
346,1765569036547,5,-8,-1,0,0,0,0,0
347,1765569036631,3,-8,0,0,0,0,0,0
348,1765569036747,4,-8,1,0,0,0,0,0
349,1765569036930,5,-8,1,0,0,0,0,0
350,1765569037097,5,-9,0,0,0,0,0,0
351,1765569037297,5,-8,0,0,0,0,0,0
352,1765569037430,4,-9,0,0,0,0,0,0
353,1765569037631,4,-9,-2,0,0,0,0,0
354,1765569037797,5,-8,0,0,0,0,0,0
355,1765569038014,3,-8,-1,0,0,0,0,0
356,1765569038263,5,-7,0,0,0,0,0,0
357,1765569038398,4,-8,-2,0,0,0,0,0
358,1765569038481,4,-8,-1,0,0,0,0,0
359,1765569038580,5,-8,0,0,0,0,0,0
360,1765569038780,4,-8,-1,0,0,0,0,0
361,1765569038963,3,-8,-1,0,0,0,0,0
362,1765569039164,4,-7,-1,0,0,0,0,0
363,1765569039230,5,-7,-1,0,0,0,0,0
364,1765569039465,5,-8,0,0,0,0,0,0
365,1765569039597,4,-8,-1,0,0,0,0,0
366,1765569039914,5,-8,-1,0,0,0,0,0
367,1765569040014,5,-8,1,0,0,0,0,0
368,1765569040264,4,-8,0,0,0,0,0,0
369,1765569040364,5,-8,-1,0,0,0,0,0
370,1765569040564,5,-8,0,0,0,0,0,0
371,1765569040680,5,-8,0,0,0,0,0,0
372,1765569040914,5,-8,0,0,0,0,0,0
373,1765569041048,4,-9,1,0,0,0,0,0
374,1765569041264,4,-8,-1,0,0,0,0,0
375,1765569041498,4,-8,-1,0,0,0,0,0
376,1765569041714,4,-8,-1,0,0,0,0,0
377,1765569041814,3,-7,0,0,0,0,0,0
378,1765569042047,4,-8,0,0,0,0,0,0
379,1765569042197,5,-8,0,0,0,0,0,0
380,1765569042381,5,-8,-1,0,0,0,0,0
381,1765569042514,6,-9,-1,0,0,0,0,0
382,1765569042730,6,-8,0,0,0,0,0,0
383,1765569042798,4,-8,-1,0,0,0,0,0
384,1765569042880,5,-8,-1,0,0,0,0,0
385,1765569042981,4,-8,-1,0,0,0,0,0
386,1765569043247,4,-9,0,0,0,0,0,0
387,1765569043631,3,-8,0,0,0,0,0,0
388,1765569043764,4,-7,0,0,0,0,0,0
389,1765569043947,4,-9,0,0,0,0,0,0
390,1765569044330,3,-8,0,0,0,0,0,0
391,1765569044447,5,-8,0,0,0,0,0,0
392,1765569044647,5,-9,0,0,0,0,0,0
393,1765569044880,4,-8,0,0,0,0,0,0
394,1765569045081,5,-7,0,0,0,0,0,0
395,1765569045214,5,-9,0,0,0,0,0,0
396,1765569045447,5,-8,-1,0,0,0,0,0
397,1765569045531,6,-9,-2,0,0,0,0,0
398,1765569045797,4,-7,0,0,0,0,0,0
399,1765569045897,5,-7,0,0,0,0,0,0
400,1765569046114,4,-8,0,0,0,0,0,0
401,1765569046247,4,-8,-1,0,0,0,0,0
402,1765569046547,3,-8,0,0,0,0,0,0
403,1765569046681,5,-8,1,0,0,0,0,0
404,1765569046914,4,-8,-1,0,0,0,0,0
405,1765569046997,4,-7,-1,0,0,0,0,0
406,1765569047247,6,-8,0,0,0,0,0,0
407,1765569047414,4,-9,0,0,0,0,0,0
408,1765569047647,3,-8,-1,0,0,0,0,0
409,1765569047714,4,-8,0,0,0,0,0,0
410,1765569047963,3,-7,-1,0,0,0,0,0
411,1765569048114,4,-9,1,0,0,0,0,0
412,1765569048414,4,-9,1,0,0,0,0,0
413,1765569048547,6,-7,-1,0,0,0,0,0
414,1765569048747,5,-8,-1,0,0,0,0,0
415,1765569048847,5,-8,0,0,0,0,0,0
416,1765569049247,4,-7,-2,0,0,0,0,0
417,1765569049430,5,-8,0,0,0,0,0,0
418,1765569049547,5,-8,0,0,0,0,0,0
419,1765569049980,5,-7,-1,0,0,0,0,0
420,1765569050196,3,-8,-1,0,0,0,0,0
421,1765569050280,4,-7,-1,0,0,0,0,0
422,1765569050364,3,-8,0,0,0,0,0,0
423,1765569050513,4,-8,0,0,0,0,0,0
424,1765569050664,3,-8,0,0,0,0,0,0
425,1765569050913,4,-8,0,0,0,0,0,0
426,1765569051097,5,-8,-2,0,0,0,0,0
427,1765569051214,4,-8,-1,0,0,0,0,0
428,1765569051397,3,-7,-1,0,0,0,0,0
429,1765569051830,4,-8,0,0,0,0,0,0
430,1765569051963,2,-7,-2,0,0,0,0,0
431,1765569052130,5,-9,-1,0,0,0,0,0
432,1765569052265,3,-8,-1,0,0,0,0,0
433,1765569052530,3,-7,0,0,0,0,0,0
434,1765569052614,5,-8,0,0,0,0,0,0
435,1765569052814,3,-9,0,0,0,0,0,0
436,1765569052847,4,-8,-2,0,0,0,0,0
437,1765569052963,5,-8,1,0,0,0,0,0
438,1765569053279,4,-9,0,0,0,0,0,0
439,1765569053447,5,-8,0,0,0,0,0,0
440,1765569053647,5,-9,-1,0,0,0,0,0
441,1765569053731,5,-8,0,0,0,0,0,0
442,1765569053947,5,-8,-1,0,0,0,0,0
443,1765569054364,5,-8,0,0,0,0,0,0
444,1765569054430,3,-8,-1,0,0,0,0,0
445,1765569054663,5,-8,0,0,0,0,0,0
446,1765569054797,5,-7,0,0,0,0,0,0
447,1765569055097,4,-8,0,0,0,0,0,0
448,1765569055164,4,-6,0,0,0,0,0,0
449,1765569055364,4,-8,0,0,0,0,0,0
450,1765569055530,5,-8,0,0,0,0,0,0
451,1765569055698,4,-9,0,0,0,0,0,0
452,1765569055863,3,-8,0,0,0,0,0,0
453,1765569056030,5,-8,-1,0,0,0,0,0
454,1765569056230,6,-9,0,0,0,0,0,0
455,1765569056363,4,-9,0,0,0,0,0,0
456,1765569056614,4,-8,0,0,0,0,0,0
457,1765569056830,5,-9,0,0,0,0,0,0
458,1765569056997,2,-9,0,0,0,0,0,0
459,1765569057147,4,-9,0,0,0,0,0,0
460,1765569057331,5,-8,0,0,0,0,0,0
461,1765569057431,4,-8,-1,0,0,0,0,0
462,1765569057697,4,-8,-1,0,0,0,0,0
463,1765569057747,4,-9,-1,0,0,0,0,0
464,1765569057830,5,-8,-1,0,0,0,0,0
465,1765569057931,3,-8,-1,0,0,0,0,0
466,1765569058130,5,-7,0,0,0,0,0,0
467,1765569058381,4,-8,0,0,0,0,0,0
468,1765569058631,3,-7,-1,0,0,0,0,0
469,1765569058864,4,-8,-1,0,0,0,0,0
470,1765569058930,4,-8,1,0,0,0,0,0
471,1765569059080,4,-8,-1,0,0,0,0,0
472,1765569059364,5,-8,-1,0,0,0,0,0
473,1765569059464,3,-9,-1,0,0,0,0,0
474,1765569059797,4,-8,-2,0,0,0,0,0
475,1765569059947,5,-7,0,0,0,0,0,0
476,1765569060163,5,-9,-1,0,0,0,0,0
477,1765569060463,5,-8,-2,0,0,0,0,0
478,1765569060564,5,-9,0,0,0,0,0,0
479,1765569060763,4,-7,0,0,0,0,0,0
480,1765569060979,3,-8,-1,0,0,0,0,0
481,1765569061163,3,-8,-1,0,0,0,0,0
482,1765569061313,5,-8,0,0,0,0,0,0
483,1765569061496,4,-10,0,0,0,0,0,0
484,1765569061714,3,-9,-1,0,0,0,0,0
485,1765569061781,3,-7,0,0,0,0,0,0
486,1765569062164,5,-9,0,0,0,0,0,0
487,1765569062263,4,-9,0,0,0,0,0,0
488,1765569062497,4,-8,0,0,0,0,0,0
489,1765569062564,5,-7,0,0,0,0,0,0
490,1765569062830,4,-7,-2,0,0,0,0,0
491,1765569062997,4,-9,-1,0,0,0,0,0
492,1765569063180,5,-9,0,0,0,0,0,0
493,1765569063397,3,-6,-1,0,0,0,0,0
494,1765569063513,4,-8,0,0,0,0,0,0
495,1765569063697,4,-8,-1,0,0,0,0,0
496,1765569064180,4,-8,-1,0,0,0,0,0
497,1765569064297,5,-8,0,0,0,0,0,0
498,1765569064480,6,-7,-1,0,0,0,0,0
499,1765569064563,5,-8,0,0,0,0,0,0
500,1765569064664,4,-7,-1,0,0,0,0,0
501,1765569064914,2,-8,-1,0,0,0,0,0
502,1765569064981,5,-7,-1,0,0,0,0,0
503,1765569065114,5,-9,-1,0,0,0,0,0
504,1765569065263,4,-8,0,0,0,0,0,0
505,1765569065396,4,-8,0,0,0,0,0,0
506,1765569065563,4,-7,0,0,0,0,0,0
507,1765569065863,4,-8,-1,0,0,0,0,0
508,1765569066029,5,-7,-1,0,0,0,0,0
509,1765569066163,4,-8,0,0,0,0,0,0
510,1765569066297,4,-7,1,0,0,0,0,0
511,1765569066363,4,-7,-2,0,0,0,0,0
512,1765569066596,4,-8,0,0,0,0,0,0
513,1765569066713,5,-8,1,0,0,0,0,0
514,1765569066947,4,-7,-1,0,0,0,0,0
515,1765569067097,4,-7,-1,0,0,0,0,0
516,1765569067264,4,-9,-1,0,0,0,0,0
517,1765569067397,5,-8,-1,0,0,0,0,0
518,1765569067596,5,-7,-1,0,0,0,0,0
519,1765569067846,6,-8,-1,0,0,0,0,0
520,1765569067980,5,-8,-1,0,0,0,0,0
521,1765569068264,5,-9,0,0,0,0,0,0
522,1765569068346,5,-8,-1,0,0,0,0,0
523,1765569068580,5,-8,-1,0,0,0,0,0
524,1765569068696,4,-8,-1,0,0,0,0,0
525,1765569068730,4,-7,-1,0,0,0,0,0
526,1765569068897,5,-7,0,0,0,0,0,0
527,1765569069014,3,-9,-1,0,0,0,0,0
528,1765569069247,5,-8,1,0,0,0,0,0
529,1765569069497,4,-7,-1,0,0,0,0,0
530,1765569069714,4,-8,0,0,0,0,0,0
531,1765569069813,6,-7,0,0,0,0,0,0
532,1765569070079,5,-8,0,0,0,0,0,0
533,1765569070164,5,-7,-1,0,0,0,0,0
534,1765569070447,4,-8,0,0,0,0,0,0
535,1765569070546,6,-7,0,0,0,0,0,0
536,1765569070763,4,-8,-1,0,0,0,0,0
537,1765569070863,3,-8,-1,0,0,0,0,0
538,1765569071180,3,-8,0,0,0,0,0,0
539,1765569071314,3,-9,-1,0,0,0,0,0
540,1765569071498,4,-8,-1,0,0,0,0,0
541,1765569071615,4,-7,0,0,0,0,0,0
542,1765569072032,3,-8,-1,0,0,0,0,0
543,1765569072180,5,-9,-1,0,0,0,0,0
544,1765569072314,4,-8,0,0,0,0,0,0
545,1765569072498,4,-8,0,0,0,0,0,0
546,1765569072747,6,-8,0,0,0,0,0,0
547,1765569072996,4,-7,-1,0,0,0,0,0
