index,date,GYRO_X,GYRO_Y,GYRO_Z
0,1782588357592,0.20999999999999999,-0.34999999999999998,0.070000000000000007
1,1782588357642,0.20999999999999999,-0.34999999999999998,0.14000000000000001
2,1782588357708,0.20999999999999999,-0.77000000000000002,0.14000000000000001
3,1782588357759,0.20999999999999999,-0.41999999999999998,0.14000000000000001
4,1782588357809,0.20999999999999999,-0.28000000000000003,0.14000000000000001
5,1782588357858,0.070000000000000007,-0.41999999999999998,0.14000000000000001
6,1782588357892,0.070000000000000007,-0.56000000000000005,0.070000000000000007
7,1782588357909,0.20999999999999999,-0.48999999999999999,0
8,1782588357959,0.20999999999999999,-0.48999999999999999,0.070000000000000007
9,1782588357975,0.14000000000000001,-0.56000000000000005,0.070000000000000007
10,1782588358009,0.14000000000000001,-0.48999999999999999,0.070000000000000007
11,1782588358025,0.14000000000000001,-0.56000000000000005,0.070000000000000007
12,1782588358042,0.14000000000000001,-0.56000000000000005,0.070000000000000007
13,1782588358075,0.34999999999999998,-0.48999999999999999,0.070000000000000007
14,1782588358142,0.34999999999999998,-0.48999999999999999,0.070000000000000007
15,1782588358175,0.34999999999999998,-0.48999999999999999,0
16,1782588358225,0.20999999999999999,-0.41999999999999998,0
17,1782588358291,0.14000000000000001,-0.48999999999999999,0.070000000000000007
18,1782588358341,0.20999999999999999,-0.48999999999999999,0.070000000000000007
19,1782588358391,0.20999999999999999,-0.48999999999999999,0.070000000000000007
20,1782588358442,0.20999999999999999,-0.48999999999999999,0.070000000000000007
21,1782588358508,0.20999999999999999,-0.48999999999999999,0.070000000000000007
22,1782588358558,0.20999999999999999,-0.56000000000000005,0.070000000000000007
23,1782588358608,0.20999999999999999,-0.56000000000000005,0.070000000000000007
24,1782588358758,0.070000000000000007,-0.48999999999999999,0.070000000000000007
25,1782588358808,0.070000000000000007,-0.41999999999999998,0.070000000000000007
26,1782588358824,0.070000000000000007,-0.48999999999999999,0.070000000000000007
27,1782588358841,0.14000000000000001,-0.56000000000000005,0.070000000000000007
28,1782588358874,0.20999999999999999,-0.48999999999999999,0.070000000000000007
29,1782588358891,0.20999999999999999,-0.48999999999999999,0.070000000000000007
30,1782588358941,0.20999999999999999,-0.48999999999999999,0
31,1782588359008,0.28000000000000003,-0.48999999999999999,0.070000000000000007
32,1782588359057,0.28000000000000003,-0.56000000000000005,0.070000000000000007
33,1782588359107,0.14000000000000001,-0.56000000000000005,0.070000000000000007
34,1782588359174,0.14000000000000001,-0.56000000000000005,0.070000000000000007
35,1782588359258,0.14000000000000001,-0.48999999999999999,0.070000000000000007
36,1782588359324,0.14000000000000001,-0.48999999999999999,0.070000000000000007
37,1782588359357,0.070000000000000007,-0.56000000000000005,0.070000000000000007
38,1782588359424,0.070000000000000007,-0.56000000000000005,0.070000000000000007
39,1782588359474,0.070000000000000007,-0.56000000000000005,0.070000000000000007
40,1782588359524,0.14000000000000001,-0.56000000000000005,0.070000000000000007
41,1782588359575,0.14000000000000001,-0.56000000000000005,0.070000000000000007
42,1782588359591,0.34999999999999998,-0.63,0.070000000000000007
43,1782588359625,0.34999999999999998,-0.56000000000000005,0.070000000000000007
44,1782588359640,0.34999999999999998,-0.56000000000000005,0.070000000000000007
45,1782588359690,0.48999999999999999,-0.48999999999999999,0
46,1782588359724,0.48999999999999999,-0.48999999999999999,0
47,1782588359742,0.48999999999999999,-0.48999999999999999,0
48,1782588359757,0.34999999999999998,-0.48999999999999999,0
49,1782588359790,0.34999999999999998,-0.48999999999999999,0.070000000000000007
50,1782588359807,0.34999999999999998,-0.56000000000000005,0.070000000000000007
51,1782588359857,0.20999999999999999,-0.48999999999999999,0.070000000000000007
52,1782588359924,0.20999999999999999,-0.56000000000000005,0.070000000000000007
53,1782588359957,0.28000000000000003,-0.56000000000000005,0.070000000000000007
54,1782588360024,0.28000000000000003,-0.48999999999999999,0.070000000000000007
55,1782588360040,0.20999999999999999,-0.48999999999999999,0.070000000000000007
56,1782588360107,0.20999999999999999,-0.48999999999999999,0.070000000000000007
57,1782588360157,0.28000000000000003,-0.48999999999999999,0.070000000000000007
58,1782588360224,0.20999999999999999,-0.48999999999999999,0.070000000000000007
59,1782588360273,0.20999999999999999,-0.48999999999999999,0.070000000000000007
60,1782588360324,0.20999999999999999,-0.48999999999999999,0.070000000000000007
61,1782588360373,0.20999999999999999,-0.48999999999999999,0.070000000000000007
62,1782588360390,0.20999999999999999,-0.48999999999999999,0.070000000000000007
63,1782588360439,0.20999999999999999,-0.48999999999999999,0.070000000000000007
64,1782588360473,0.20999999999999999,-0.48999999999999999,0.070000000000000007
65,1782588360507,0.20999999999999999,-0.48999999999999999,0.070000000000000007
66,1782588360540,0.20999999999999999,-0.48999999999999999,0.070000000000000007
67,1782588360573,0.20999999999999999,-0.48999999999999999,0.070000000000000007
68,1782588360606,0.20999999999999999,-0.48999999999999999,0.070000000000000007
69,1782588360657,0.20999999999999999,-0.48999999999999999,0
70,1782588360707,0.34999999999999998,-0.48999999999999999,0.070000000000000007
71,1782588360723,0.28000000000000003,-0.41999999999999998,0.070000000000000007
72,1782588360756,0.34999999999999998,-0.48999999999999999,0.070000000000000007
73,1782588360772,0.34999999999999998,-0.48999999999999999,0.070000000000000007
74,1782588360839,0.28000000000000003,-0.48999999999999999,0.070000000000000007
75,1782588360890,0.28000000000000003,-0.41999999999999998,0.070000000000000007
76,1782588360939,0.28000000000000003,-0.48999999999999999,0
77,1782588360990,0.28000000000000003,-0.48999999999999999,0
78,1782588361039,0.20999999999999999,-0.48999999999999999,0.070000000000000007
79,1782588361107,0.20999999999999999,-0.48999999999999999,0.070000000000000007
80,1782588361140,0.20999999999999999,-0.48999999999999999,0.070000000000000007
81,1782588361206,0.20999999999999999,-0.48999999999999999,0.070000000000000007
82,1782588361256,0.20999999999999999,-0.48999999999999999,0.070000000000000007
83,1782588361305,0.34999999999999998,-0.48999999999999999,0.070000000000000007
84,1782588361339,0.34999999999999998,-0.41999999999999998,0.070000000000000007
85,1782588361356,0.28000000000000003,-0.48999999999999999,0.070000000000000007
86,1782588361439,0.20999999999999999,-0.48999999999999999,0.070000000000000007
87,1782588361472,0.20999999999999999,-0.48999999999999999,0.070000000000000007
88,1782588361539,0.20999999999999999,-0.48999999999999999,0.070000000000000007
89,1782588361572,0.20999999999999999,-0.48999999999999999,0
90,1782588361606,0.20999999999999999,-0.48999999999999999,0
91,1782588361672,0.28000000000000003,-0.56000000000000005,0.14000000000000001
92,1782588361722,0.20999999999999999,-0.48999999999999999,0.14000000000000001
93,1782588361772,0.20999999999999999,-0.48999999999999999,0.14000000000000001
94,1782588361838,0.20999999999999999,-0.56000000000000005,0.14000000000000001
95,1782588361872,0.14000000000000001,-0.48999999999999999,0.070000000000000007
96,1782588361955,0.20999999999999999,-0.48999999999999999,0.070000000000000007
97,1782588362022,0.20999999999999999,-0.48999999999999999,0.070000000000000007
98,1782588362055,0.20999999999999999,-0.48999999999999999,0.070000000000000007
99,1782588362072,0.28000000000000003,-0.48999999999999999,0.070000000000000007
100,1782588362088,0.28000000000000003,-0.48999999999999999,0.070000000000000007
101,1782588362155,0.20999999999999999,-0.56000000000000005,0.070000000000000007
102,1782588362221,0.20999999999999999,-0.56000000000000005,0.070000000000000007
103,1782588362271,0.20999999999999999,-0.56000000000000005,0.070000000000000007
104,1782588362322,0.20999999999999999,-0.48999999999999999,0.070000000000000007
105,1782588362372,0.28000000000000003,-0.56000000000000005,0.070000000000000007
106,1782588362454,0.20999999999999999,-0.48999999999999999,0.070000000000000007
107,1782588362521,0.14000000000000001,-0.48999999999999999,0.070000000000000007
108,1782588362939,0.34999999999999998,-0.48999999999999999,0.070000000000000007
109,1782588362942,0.34999999999999998,-0.48999999999999999,0.070000000000000007
110,1782588362954,0.34999999999999998,-0.48999999999999999,0.070000000000000007
111,1782588362954,0.28000000000000003,-0.48999999999999999,0.070000000000000007
112,1782588362971,0.20999999999999999,-0.48999999999999999,0.070000000000000007
113,1782588363071,0.20999999999999999,-0.48999999999999999,0.070000000000000007
114,1782588363121,0.20999999999999999,-0.48999999999999999,0.070000000000000007
115,1782588363171,0.20999999999999999,-0.48999999999999999,0.14000000000000001
116,1782588363221,0.20999999999999999,-0.48999999999999999,0.14000000000000001
117,1782588363287,0.28000000000000003,-0.56000000000000005,0.070000000000000007
118,1782588363355,0.28000000000000003,-0.56000000000000005,0.070000000000000007
119,1782588363387,0.34999999999999998,-0.56000000000000005,0.070000000000000007
120,1782588363454,0.28000000000000003,-0.56000000000000005,0.070000000000000007
121,1782588363487,0.28000000000000003,-0.56000000000000005,0.070000000000000007
122,1782588363520,0.28000000000000003,-0.56000000000000005,0.070000000000000007
123,1782588363554,0.20999999999999999,-0.48999999999999999,0.070000000000000007
124,1782588363571,0.20999999999999999,-0.56000000000000005,0.070000000000000007
125,1782588363604,0.20999999999999999,-0.41999999999999998,0.070000000000000007
126,1782588363670,0.20999999999999999,-0.41999999999999998,0.070000000000000007
127,1782588363704,0.20999999999999999,-0.41999999999999998,0.070000000000000007
128,1782588363804,0.20999999999999999,-0.48999999999999999,0.070000000000000007
129,1782588363840,0.14000000000000001,-0.56000000000000005,0.070000000000000007
130,1782588363904,0.14000000000000001,-0.56000000000000005,0.070000000000000007
131,1782588363971,0.20999999999999999,-0.56000000000000005,0.070000000000000007
132,1782588364054,0.20999999999999999,-0.56000000000000005,0.070000000000000007
133,1782588364153,0.20999999999999999,-0.48999999999999999,0.070000000000000007
134,1782588364220,0.20999999999999999,-0.48999999999999999,0.070000000000000007
135,1782588364255,0.20999999999999999,-0.48999999999999999,0.070000000000000007
136,1782588364370,0.20999999999999999,-0.48999999999999999,0.070000000000000007
137,1782588364420,0.28000000000000003,-0.48999999999999999,0.070000000000000007
138,1782588364488,0.20999999999999999,-0.48999999999999999,0.070000000000000007
139,1782588364570,0.28000000000000003,-0.48999999999999999,0.070000000000000007
140,1782588364620,0.20999999999999999,-0.48999999999999999,0.070000000000000007
141,1782588364671,0.28000000000000003,-0.48999999999999999,0.070000000000000007
142,1782588364671,0.20999999999999999,-0.48999999999999999,0.070000000000000007
143,1782588364737,0.20999999999999999,-0.48999999999999999,0.070000000000000007
144,1782588364853,0.20999999999999999,-0.48999999999999999,0.070000000000000007
145,1782588364904,0.20999999999999999,-0.48999999999999999,0.070000000000000007
146,1782588364937,0.20999999999999999,-0.48999999999999999,0.070000000000000007
147,1782588364969,0.28000000000000003,-0.48999999999999999,0.070000000000000007
148,1782588364986,0.20999999999999999,-0.48999999999999999,0.070000000000000007
149,1782588365002,0.20999999999999999,-0.48999999999999999,0.070000000000000007
150,1782588365036,0.20999999999999999,-0.48999999999999999,0.070000000000000007
151,1782588365086,0.20999999999999999,-0.56000000000000005,0.070000000000000007
152,1782588365169,0.20999999999999999,-0.56000000000000005,0.070000000000000007
153,1782588365236,0.20999999999999999,-0.56000000000000005,0
154,1782588365252,0.20999999999999999,-0.56000000000000005,0.070000000000000007
155,1782588365269,0.20999999999999999,-0.56000000000000005,0.070000000000000007
156,1782588365302,0.20999999999999999,-0.56000000000000005,0.070000000000000007
157,1782588365319,0.20999999999999999,-0.56000000000000005,0.070000000000000007
158,1782588365469,0.20999999999999999,-0.56000000000000005,0.070000000000000007
159,1782588365552,0.20999999999999999,-0.48999999999999999,0.070000000000000007
160,1782588365585,0.20999999999999999,-0.48999999999999999,0.070000000000000007
161,1782588365603,0.20999999999999999,-0.56000000000000005,0.070000000000000007
162,1782588365619,0.20999999999999999,-0.56000000000000005,0.070000000000000007
163,1782588365652,0.14000000000000001,-0.56000000000000005,0.070000000000000007
164,1782588365669,0.28000000000000003,-0.56000000000000005,0.070000000000000007
165,1782588365735,0.28000000000000003,-0.56000000000000005,0.14000000000000001
166,1782588365785,0.28000000000000003,-0.48999999999999999,0.14000000000000001
167,1782588365835,0.28000000000000003,-0.48999999999999999,0.070000000000000007
168,1782588365869,0.20999999999999999,-0.56000000000000005,0.070000000000000007
169,1782588365935,0.14000000000000001,-0.48999999999999999,0.070000000000000007
170,1782588365969,0.14000000000000001,-0.41999999999999998,0.070000000000000007
171,1782588366035,0.14000000000000001,-0.41999999999999998,0.070000000000000007
172,1782588366152,0.20999999999999999,-0.56000000000000005,0.14000000000000001
173,1782588366201,0.20999999999999999,-0.63,0.14000000000000001
174,1782588366251,0.20999999999999999,-0.63,0.14000000000000001
175,1782588366301,0.28000000000000003,-0.63,0.14000000000000001
176,1782588366468,0.20999999999999999,-0.56000000000000005,0.14000000000000001
177,1782588366485,0.20999999999999999,-0.48999999999999999,0.070000000000000007
178,1782588366518,0.28000000000000003,-0.48999999999999999,0.070000000000000007
179,1782588366585,0.28000000000000003,-0.56000000000000005,0.070000000000000007
180,1782588366634,0.28000000000000003,-0.48999999999999999,0.070000000000000007
181,1782588366685,0.28000000000000003,-0.48999999999999999,0.070000000000000007
182,1782588366718,0.34999999999999998,-0.48999999999999999,0
183,1782588366785,0.34999999999999998,-0.56000000000000005,0
184,1782588366851,0.34999999999999998,-0.56000000000000005,0
185,1782588366918,0.34999999999999998,-0.34999999999999998,0
186,1782588366984,0.28000000000000003,-0.48999999999999999,0
187,1782588367001,0.20999999999999999,-0.48999999999999999,0.070000000000000007
188,1782588367084,0.20999999999999999,-0.48999999999999999,0.070000000000000007
189,1782588367134,0.20999999999999999,-0.48999999999999999,0.070000000000000007
190,1782588367184,0.20999999999999999,-0.48999999999999999,0.070000000000000007
191,1782588367234,0.20999999999999999,-0.48999999999999999,0.070000000000000007
192,1782588367334,0.20999999999999999,-0.48999999999999999,0.070000000000000007
193,1782588367400,0.20999999999999999,-0.48999999999999999,0
194,1782588367417,0.20999999999999999,-0.48999999999999999,0.070000000000000007
195,1782588367434,0.20999999999999999,-0.48999999999999999,0.070000000000000007
196,1782588367467,0.20999999999999999,-0.48999999999999999,0.070000000000000007
197,1782588367567,0.20999999999999999,-0.48999999999999999,0
198,1782588367617,0.28000000000000003,-0.48999999999999999,0
199,1782588367667,0.28000000000000003,-0.48999999999999999,0.070000000000000007
200,1782588367684,0.28000000000000003,-0.48999999999999999,0.070000000000000007
201,1782588367718,0.20999999999999999,-0.56000000000000005,0.14000000000000001
202,1782588367733,0.20999999999999999,-0.56000000000000005,0.14000000000000001
203,1782588367851,0.28000000000000003,-0.48999999999999999,0.070000000000000007
204,1782588367966,0.28000000000000003,-0.48999999999999999,0.070000000000000007
205,1782588368000,0.28000000000000003,-0.56000000000000005,0.070000000000000007
206,1782588368017,0.20999999999999999,-0.48999999999999999,0.070000000000000007
207,1782588368050,0.20999999999999999,-0.48999999999999999,0.070000000000000007
208,1782588368084,0.20999999999999999,-0.48999999999999999,0.070000000000000007
209,1782588368100,0.20999999999999999,-0.56000000000000005,0.070000000000000007
210,1782588368133,0.28000000000000003,-0.56000000000000005,0.070000000000000007
211,1782588368167,0.28000000000000003,-0.56000000000000005,0.070000000000000007
212,1782588368183,0.28000000000000003,-0.56000000000000005,0.070000000000000007
213,1782588368216,0.28000000000000003,-0.56000000000000005,0
214,1782588368233,0.28000000000000003,-0.56000000000000005,0
215,1782588368283,0.28000000000000003,-0.56000000000000005,0
216,1782588368350,0.20999999999999999,-0.56000000000000005,0
217,1782588368433,0.20999999999999999,-0.56000000000000005,0
218,1782588368483,0.20999999999999999,-0.41999999999999998,0
219,1782588368533,0.20999999999999999,-0.48999999999999999,0.070000000000000007
220,1782588368583,0.20999999999999999,-0.48999999999999999,0.070000000000000007
221,1782588368633,0.20999999999999999,-0.48999999999999999,0.070000000000000007
222,1782588368683,0.20999999999999999,-0.48999999999999999,0.14000000000000001
223,1782588368733,0.20999999999999999,-0.56000000000000005,0.070000000000000007
224,1782588368800,0.20999999999999999,-0.56000000000000005,0.070000000000000007
225,1782588368849,0.20999999999999999,-0.56000000000000005,0.070000000000000007
226,1782588368899,0.20999999999999999,-0.56000000000000005,0.070000000000000007
227,1782588368949,0.20999999999999999,-0.56000000000000005,0.070000000000000007
228,1782588368983,0.28000000000000003,-0.56000000000000005,0.070000000000000007
229,1782588368999,0.28000000000000003,-0.56000000000000005,0.070000000000000007
230,1782588369017,0.28000000000000003,-0.48999999999999999,0.070000000000000007
231,1782588369049,0.28000000000000003,-0.48999999999999999,0.070000000000000007
232,1782588369083,0.28000000000000003,-0.48999999999999999,0.070000000000000007
233,1782588369132,0.28000000000000003,-0.48999999999999999,0.070000000000000007
234,1782588369182,0.28000000000000003,-0.48999999999999999,0.070000000000000007
235,1782588369232,0.14000000000000001,-0.48999999999999999,0.070000000000000007
236,1782588369282,0.14000000000000001,-0.48999999999999999,0.070000000000000007
237,1782588369332,0.14000000000000001,-0.48999999999999999,0.070000000000000007
238,1782588369399,0.28000000000000003,-0.48999999999999999,0.070000000000000007
239,1782588369449,0.28000000000000003,-0.48999999999999999,0.070000000000000007
240,1782588369499,0.34999999999999998,-0.48999999999999999,0.070000000000000007
241,1782588369548,0.34999999999999998,-0.48999999999999999,0.070000000000000007
242,1782588369598,0.20999999999999999,-0.56000000000000005,0
243,1782588369632,0.20999999999999999,-0.48999999999999999,0
244,1782588369698,0.070000000000000007,-0.41999999999999998,0.070000000000000007
245,1782588369765,0.070000000000000007,-0.41999999999999998,0.070000000000000007
246,1782588369799,0.20999999999999999,-0.41999999999999998,0.070000000000000007
247,1782588369832,0.20999999999999999,-0.41999999999999998,0.14000000000000001
248,1782588369865,0.28000000000000003,-0.41999999999999998,0.14000000000000001
249,1782588369881,0.28000000000000003,-0.41999999999999998,0.070000000000000007
250,1782588369898,0.20999999999999999,-0.48999999999999999,0.14000000000000001
251,1782588369931,0.20999999999999999,-0.48999999999999999,0.14000000000000001
252,1782588369949,0.20999999999999999,-0.48999999999999999,0.14000000000000001
253,1782588369982,0.14000000000000001,-0.48999999999999999,0.14000000000000001
254,1782588370031,0.14000000000000001,-0.56000000000000005,0.14000000000000001
255,1782588370083,0.14000000000000001,-0.56000000000000005,0.14000000000000001
256,1782588370149,0.14000000000000001,-0.56000000000000005,0.070000000000000007
257,1782588370182,0.20999999999999999,-0.63,0.070000000000000007
258,1782588370298,0.20999999999999999,-0.48999999999999999,0.070000000000000007
259,1782588370348,0.20999999999999999,-0.48999999999999999,0.070000000000000007
260,1782588370415,0.14000000000000001,-0.48999999999999999,0.070000000000000007
261,1782588370449,0.14000000000000001,-0.48999999999999999,0.070000000000000007
262,1782588370514,0.14000000000000001,-0.48999999999999999,0.070000000000000007
263,1782588370565,0.14000000000000001,-0.56000000000000005,0.070000000000000007
264,1782588370581,0.14000000000000001,-0.48999999999999999,0.070000000000000007
265,1782588370614,0.28000000000000003,-0.48999999999999999,0.070000000000000007
266,1782588370665,0.28000000000000003,-0.48999999999999999,0.070000000000000007
267,1782588370715,0.28000000000000003,-0.48999999999999999,0.070000000000000007
268,1782588370731,0.28000000000000003,-0.56000000000000005,0.070000000000000007
269,1782588370748,0.28000000000000003,-0.56000000000000005,0.070000000000000007
270,1782588370781,0.20999999999999999,-0.56000000000000005,0.14000000000000001
271,1782588370799,0.14000000000000001,-0.56000000000000005,0.14000000000000001
272,1782588370848,0.14000000000000001,-0.56000000000000005,0.14000000000000001
273,1782588370899,0.20999999999999999,-0.56000000000000005,0.14000000000000001
274,1782588370964,0.20999999999999999,-0.48999999999999999,0.14000000000000001
275,1782588371014,0.28000000000000003,-0.48999999999999999,0.070000000000000007
276,1782588371098,0.28000000000000003,-0.48999999999999999,0.070000000000000007
277,1782588371164,0.28000000000000003,-0.48999999999999999,0.070000000000000007
278,1782588371230,0.28000000000000003,-0.48999999999999999,0.070000000000000007
279,1782588371264,0.28000000000000003,-0.56000000000000005,0.070000000000000007
280,1782588371364,0.20999999999999999,-0.56000000000000005,0.070000000000000007
281,1782588371414,0.20999999999999999,-0.48999999999999999,0.070000000000000007
282,1782588371464,0.20999999999999999,-0.48999999999999999,0.070000000000000007
283,1782588371481,0.20999999999999999,-0.48999999999999999,0
284,1782588371514,0.14000000000000001,-0.56000000000000005,0.070000000000000007
285,1782588371547,0.20999999999999999,-0.48999999999999999,0.070000000000000007
286,1782588371581,0.20999999999999999,-0.48999999999999999,0.070000000000000007
287,1782588371647,0.20999999999999999,-0.48999999999999999,0.070000000000000007
288,1782588371730,0.28000000000000003,-0.56000000000000005,0.070000000000000007
289,1782588371780,0.28000000000000003,-0.48999999999999999,0.070000000000000007
290,1782588371830,0.28000000000000003,-0.48999999999999999,0.070000000000000007
291,1782588371880,0.20999999999999999,-0.56000000000000005,0.070000000000000007
292,1782588371930,0.28000000000000003,-0.48999999999999999,0.070000000000000007
293,1782588371980,0.28000000000000003,-0.48999999999999999,0
294,1782588372030,0.20999999999999999,-0.56000000000000005,0
295,1782588372064,0.20999999999999999,-0.48999999999999999,0.070000000000000007
296,1782588372113,0.14000000000000001,-0.56000000000000005,0.070000000000000007
297,1782588372164,0.14000000000000001,-0.56000000000000005,0
298,1782588372196,0.14000000000000001,-0.56000000000000005,0
299,1782588372230,0.20999999999999999,-0.56000000000000005,0.070000000000000007
300,1782588372263,0.20999999999999999,-0.56000000000000005,0.070000000000000007
301,1782588372280,0.20999999999999999,-0.56000000000000005,0.070000000000000007
302,1782588372296,0.20999999999999999,-0.56000000000000005,0.070000000000000007
303,1782588372363,0.20999999999999999,-0.48999999999999999,0.070000000000000007
304,1782588372396,0.20999999999999999,-0.48999999999999999,0.14000000000000001
305,1782588372446,0.20999999999999999,-0.41999999999999998,0.14000000000000001
306,1782588372496,0.20999999999999999,-0.41999999999999998,0.14000000000000001
307,1782588372546,0.28000000000000003,-0.41999999999999998,0.070000000000000007
308,1782588372580,0.34999999999999998,-0.48999999999999999,0.070000000000000007
309,1782588372646,0.34999999999999998,-0.48999999999999999,0.070000000000000007
310,1782588372680,0.34999999999999998,-0.48999999999999999,0
311,1782588372746,0.34999999999999998,-0.48999999999999999,0
312,1782588372846,0.28000000000000003,-0.48999999999999999,0.070000000000000007
313,1782588372896,0.20999999999999999,-0.48999999999999999,0.070000000000000007
314,1782588372946,0.20999999999999999,-0.48999999999999999,0.070000000000000007
315,1782588372979,0.20999999999999999,-0.48999999999999999,0.070000000000000007
316,1782588372996,0.20999999999999999,-0.48999999999999999,0.070000000000000007
317,1782588373012,0.20999999999999999,-0.48999999999999999,0.070000000000000007
318,1782588373046,0.20999999999999999,-0.48999999999999999,0.070000000000000007
319,1782588373079,0.20999999999999999,-0.48999999999999999,0.070000000000000007
320,1782588373129,0.20999999999999999,-0.48999999999999999,0.070000000000000007
321,1782588373162,0.28000000000000003,-0.63,0.070000000000000007
322,1782588373213,0.28000000000000003,-0.63,0.14000000000000001
323,1782588373262,0.28000000000000003,-0.63,0.14000000000000001
324,1782588373329,0.28000000000000003,-0.63,0.14000000000000001
325,1782588373362,0.20999999999999999,-0.56000000000000005,0.14000000000000001
326,1782588373429,0.20999999999999999,-0.56000000000000005,0.070000000000000007
327,1782588373462,0.14000000000000001,-0.41999999999999998,0.070000000000000007
328,1782588373529,0.14000000000000001,-0.41999999999999998,0.070000000000000007
329,1782588373595,0.14000000000000001,-0.41999999999999998,0
330,1782588373612,0.14000000000000001,-0.48999999999999999,0
331,1782588373629,0.20999999999999999,-0.48999999999999999,0
332,1782588373662,0.20999999999999999,-0.48999999999999999,0.070000000000000007
333,1782588373696,0.20999999999999999,-0.48999999999999999,0.070000000000000007
334,1782588373941,0.20999999999999999,-0.56000000000000005,0.070000000000000007
335,1782588373945,0.20999999999999999,-0.56000000000000005,0.070000000000000007
336,1782588373945,0.20999999999999999,-0.56000000000000005,0.070000000000000007
337,1782588373962,0.28000000000000003,-0.56000000000000005,0
338,1782588373962,0.28000000000000003,-0.56000000000000005,0.070000000000000007
339,1782588373995,0.20999999999999999,-0.56000000000000005,0.070000000000000007
340,1782588374045,0.28000000000000003,-0.56000000000000005,0.070000000000000007
341,1782588374095,0.20999999999999999,-0.56000000000000005,0.070000000000000007
342,1782588374145,0.14000000000000001,-0.48999999999999999,0.070000000000000007
343,1782588374211,0.14000000000000001,-0.48999999999999999,0.070000000000000007
344,1782588374262,0.070000000000000007,-0.41999999999999998,0.070000000000000007
345,1782588374311,0.14000000000000001,-0.48999999999999999,0.070000000000000007
346,1782588374345,0.20999999999999999,-0.48999999999999999,0.070000000000000007
347,1782588374395,0.28000000000000003,-0.48999999999999999,0.070000000000000007
348,1782588374478,0.28000000000000003,-0.48999999999999999,0.070000000000000007
349,1782588374561,0.14000000000000001,-0.41999999999999998,0
350,1782588374628,0.20999999999999999,-0.41999999999999998,0.070000000000000007
351,1782588374661,0.28000000000000003,-0.56000000000000005,0.070000000000000007
352,1782588374728,0.28000000000000003,-0.56000000000000005,0.070000000000000007
353,1782588374761,0.28000000000000003,-0.56000000000000005,0.070000000000000007
354,1782588374827,0.28000000000000003,-0.48999999999999999,0.070000000000000007
355,1782588374928,0.28000000000000003,-0.48999999999999999,0.070000000000000007
356,1782588375061,0.28000000000000003,-0.48999999999999999,0.070000000000000007
357,1782588375095,0.28000000000000003,-0.56000000000000005,0.070000000000000007
358,1782588375144,0.34999999999999998,-0.41999999999999998,0
359,1782588375178,0.34999999999999998,-0.48999999999999999,0
360,1782588375244,0.34999999999999998,-0.56000000000000005,0
361,1782588375278,0.34999999999999998,-0.48999999999999999,0.070000000000000007
362,1782588375344,0.28000000000000003,-0.56000000000000005,0.070000000000000007
363,1782588375411,0.28000000000000003,-0.56000000000000005,0.070000000000000007
364,1782588375461,0.28000000000000003,-0.63,0.070000000000000007
365,1782588375511,0.28000000000000003,-0.63,0.070000000000000007
366,1782588375610,0.20999999999999999,-0.63,0.070000000000000007
367,1782588375661,0.20999999999999999,-0.63,0.070000000000000007
368,1782588375694,0.20999999999999999,-0.63,0.14000000000000001
369,1782588375711,0.14000000000000001,-0.48999999999999999,0
370,1782588375761,0.14000000000000001,-0.56000000000000005,0
371,1782588375861,0.14000000000000001,-0.56000000000000005,0
372,1782588375928,0.14000000000000001,-0.56000000000000005,0.070000000000000007
373,1782588375960,0.14000000000000001,-0.56000000000000005,0.070000000000000007
374,1782588375977,0.14000000000000001,-0.48999999999999999,0.070000000000000007
375,1782588376045,0.20999999999999999,-0.56000000000000005,0.070000000000000007
376,1782588376094,0.14000000000000001,-0.56000000000000005,0.070000000000000007
377,1782588376161,0.14000000000000001,-0.56000000000000005,0.070000000000000007
378,1782588376194,0.14000000000000001,-0.63,0.070000000000000007
379,1782588376243,0.14000000000000001,-0.56000000000000005,0.070000000000000007
380,1782588376277,0.28000000000000003,-0.34999999999999998,0
381,1782588376360,0.28000000000000003,-0.34999999999999998,0
382,1782588376426,0.20999999999999999,-0.41999999999999998,0
383,1782588376476,0.20999999999999999,-0.41999999999999998,0
384,1782588376527,0.28000000000000003,-0.48999999999999999,0
385,1782588376576,0.20999999999999999,-0.56000000000000005,0.070000000000000007
386,1782588376593,0.20999999999999999,-0.48999999999999999,0.070000000000000007
387,1782588376643,0.20999999999999999,-0.48999999999999999,0.070000000000000007
388,1782588376660,0.20999999999999999,-0.48999999999999999,0.070000000000000007
389,1782588376693,0.20999999999999999,-0.56000000000000005,0.070000000000000007
390,1782588376710,0.20999999999999999,-0.56000000000000005,0.070000000000000007
391,1782588376742,0.20999999999999999,-0.48999999999999999,0.070000000000000007
392,1782588376776,0.20999999999999999,-0.48999999999999999,0.070000000000000007
393,1782588376826,0.20999999999999999,-0.48999999999999999,0.070000000000000007
394,1782588376860,0.20999999999999999,-0.48999999999999999,0.070000000000000007
395,1782588376893,0.14000000000000001,-0.48999999999999999,0.070000000000000007
396,1782588376927,0.20999999999999999,-0.56000000000000005,0
397,1782588376959,0.28000000000000003,-0.56000000000000005,0
398,1782588376976,0.20999999999999999,-0.56000000000000005,0
399,1782588377009,0.20999999999999999,-0.56000000000000005,0
400,1782588377026,0.28000000000000003,-0.56000000000000005,0
401,1782588377092,0.20999999999999999,-0.48999999999999999,0.070000000000000007
402,1782588377225,0.28000000000000003,-0.48999999999999999,0.070000000000000007
403,1782588377242,0.28000000000000003,-0.48999999999999999,0.070000000000000007
404,1782588377259,0.28000000000000003,-0.41999999999999998,0.070000000000000007
405,1782588377292,0.28000000000000003,-0.41999999999999998,0.070000000000000007
406,1782588377376,0.28000000000000003,-0.41999999999999998,0.070000000000000007
407,1782588377442,0.28000000000000003,-0.41999999999999998,0.070000000000000007
408,1782588377492,0.14000000000000001,-0.56000000000000005,0.070000000000000007
409,1782588377509,0.14000000000000001,-0.56000000000000005,0.070000000000000007
410,1782588377525,0.20999999999999999,-0.56000000000000005,0.070000000000000007
411,1782588377542,0.14000000000000001,-0.56000000000000005,0.070000000000000007
412,1782588377575,0.14000000000000001,-0.56000000000000005,0.070000000000000007
413,1782588377759,0.20999999999999999,-0.48999999999999999,0.070000000000000007
414,1782588377792,0.20999999999999999,-0.48999999999999999,0.070000000000000007
415,1782588377842,0.20999999999999999,-0.48999999999999999,0.070000000000000007
416,1782588377908,0.20999999999999999,-0.48999999999999999,0.070000000000000007
417,1782588377958,0.20999999999999999,-0.48999999999999999,0.070000000000000007
418,1782588377992,0.20999999999999999,-0.56000000000000005,0.070000000000000007
419,1782588378025,0.14000000000000001,-0.56000000000000005,0.070000000000000007
420,1782588378075,0.20999999999999999,-0.48999999999999999,0.070000000000000007
421,1782588378092,0.20999999999999999,-0.48999999999999999,0.070000000000000007
422,1782588378159,0.20999999999999999,-0.48999999999999999,0.070000000000000007
423,1782588378225,0.20999999999999999,-0.48999999999999999,0.070000000000000007
424,1782588378258,0.20999999999999999,-0.48999999999999999,0.070000000000000007
425,1782588378308,0.20999999999999999,-0.48999999999999999,0.070000000000000007
426,1782588378341,0.20999999999999999,-0.48999999999999999,0.070000000000000007
427,1782588378391,0.20999999999999999,-0.48999999999999999,0.070000000000000007
428,1782588378425,0.20999999999999999,-0.48999999999999999,0.070000000000000007
429,1782588378491,0.20999999999999999,-0.48999999999999999,0.070000000000000007
430,1782588378524,0.20999999999999999,-0.48999999999999999,0.070000000000000007
431,1782588378608,0.20999999999999999,-0.48999999999999999,0.070000000000000007
432,1782588378624,0.20999999999999999,-0.48999999999999999,0.070000000000000007
433,1782588378658,0.20999999999999999,-0.48999999999999999,0.070000000000000007
434,1782588378808,0.28000000000000003,-0.48999999999999999,0.070000000000000007
435,1782588378824,0.28000000000000003,-0.48999999999999999,0.070000000000000007
436,1782588378841,0.20999999999999999,-0.48999999999999999,0.070000000000000007
437,1782588378875,0.20999999999999999,-0.48999999999999999,0.070000000000000007
438,1782588378907,0.28000000000000003,-0.56000000000000005,0.070000000000000007
439,1782588378941,0.28000000000000003,-0.48999999999999999,0.070000000000000007
440,1782588378974,0.28000000000000003,-0.48999999999999999,0.070000000000000007
441,1782588379024,0.28000000000000003,-0.48999999999999999,0.070000000000000007
442,1782588379057,0.20999999999999999,-0.48999999999999999,0.070000000000000007
443,1782588379107,0.28000000000000003,-0.48999999999999999,0.070000000000000007
444,1782588379157,0.20999999999999999,-0.48999999999999999,0.070000000000000007
445,1782588379208,0.20999999999999999,-0.48999999999999999,0.070000000000000007
446,1782588379240,0.20999999999999999,-0.48999999999999999,0.070000000000000007
447,1782588379307,0.20999999999999999,-0.48999999999999999,0.070000000000000007
448,1782588379324,0.28000000000000003,-0.48999999999999999,0.070000000000000007
449,1782588379357,0.28000000000000003,-0.48999999999999999,0.14000000000000001
450,1782588379390,0.28000000000000003,-0.48999999999999999,0.070000000000000007
451,1782588379457,0.28000000000000003,-0.48999999999999999,0.070000000000000007
452,1782588379523,0.28000000000000003,-0.48999999999999999,0.070000000000000007
453,1782588379558,0.14000000000000001,-0.41999999999999998,0.070000000000000007
454,1782588379590,0.14000000000000001,-0.48999999999999999,0.070000000000000007
455,1782588379640,0.14000000000000001,-0.48999999999999999,0.070000000000000007
456,1782588379757,0.20999999999999999,-0.48999999999999999,0.070000000000000007
457,1782588379857,0.14000000000000001,-0.48999999999999999,0.14000000000000001
458,1782588379923,0.20999999999999999,-0.48999999999999999,0.14000000000000001
459,1782588379940,0.20999999999999999,-0.56000000000000005,0.14000000000000001
460,1782588379973,0.14000000000000001,-0.56000000000000005,0.14000000000000001
461,1782588380007,0.14000000000000001,-0.56000000000000005,0.14000000000000001
462,1782588380073,0.20999999999999999,-0.48999999999999999,0.14000000000000001
463,1782588380107,0.20999999999999999,-0.41999999999999998,0
464,1782588380140,0.28000000000000003,-0.48999999999999999,0
465,1782588380173,0.28000000000000003,-0.41999999999999998,0
466,1782588380190,0.28000000000000003,-0.48999999999999999,0.070000000000000007
467,1782588380206,0.20999999999999999,-0.48999999999999999,0.070000000000000007
468,1782588380273,0.20999999999999999,-0.48999999999999999,0.070000000000000007
469,1782588380339,0.20999999999999999,-0.48999999999999999,0.070000000000000007
470,1782588380389,0.20999999999999999,-0.56000000000000005,0.070000000000000007
471,1782588380439,0.20999999999999999,-0.48999999999999999,0.070000000000000007
472,1782588380506,0.20999999999999999,-0.48999999999999999,0.070000000000000007
473,1782588380556,0.28000000000000003,-0.48999999999999999,0.070000000000000007
474,1782588380590,0.28000000000000003,-0.48999999999999999,0.070000000000000007
475,1782588380622,0.28000000000000003,-0.48999999999999999,0
476,1782588380656,0.20999999999999999,-0.48999999999999999,0.070000000000000007
477,1782588380673,0.20999999999999999,-0.48999999999999999,0
478,1782588380722,0.20999999999999999,-0.48999999999999999,0
479,1782588380773,0.20999999999999999,-0.48999999999999999,0
480,1782588380856,0.20999999999999999,-0.48999999999999999,0
481,1782588380889,0.20999999999999999,-0.48999999999999999,0
482,1782588380922,0.20999999999999999,-0.48999999999999999,0
483,1782588380956,0.14000000000000001,-0.48999999999999999,0.070000000000000007
484,1782588381039,0.20999999999999999,-0.41999999999999998,0.070000000000000007
485,1782588381106,0.20999999999999999,-0.41999999999999998,0.070000000000000007
486,1782588381173,0.20999999999999999,-0.41999999999999998,0.070000000000000007
487,1782588381189,0.20999999999999999,-0.41999999999999998,0.070000000000000007
488,1782588381205,0.28000000000000003,-0.41999999999999998,0.070000000000000007
489,1782588381239,0.28000000000000003,-0.48999999999999999,0.070000000000000007
490,1782588381272,0.28000000000000003,-0.48999999999999999,0.070000000000000007
491,1782588381322,0.28000000000000003,-0.48999999999999999,0
492,1782588381372,0.28000000000000003,-0.48999999999999999,0
493,1782588381422,0.28000000000000003,-0.48999999999999999,0.070000000000000007
494,1782588381438,0.28000000000000003,-0.48999999999999999,0.14000000000000001
495,1782588381472,0.28000000000000003,-0.48999999999999999,0.14000000000000001
496,1782588381489,0.20999999999999999,-0.48999999999999999,0.14000000000000001
497,1782588381506,0.20999999999999999,-0.48999999999999999,0.070000000000000007
498,1782588381555,0.14000000000000001,-0.48999999999999999,0.070000000000000007
499,1782588381588,0.20999999999999999,-0.48999999999999999,0.070000000000000007
500,1782588381689,0.20999999999999999,-0.48999999999999999,0.14000000000000001
501,1782588381722,0.20999999999999999,-0.48999999999999999,0.14000000000000001
502,1782588381738,0.20999999999999999,-0.48999999999999999,0.14000000000000001
503,1782588381755,0.20999999999999999,-0.48999999999999999,0.070000000000000007
504,1782588381821,0.20999999999999999,-0.48999999999999999,0.070000000000000007
505,1782588381872,0.28000000000000003,-0.48999999999999999,0.070000000000000007
506,1782588381922,0.28000000000000003,-0.48999999999999999,0.070000000000000007
507,1782588381955,0.28000000000000003,-0.56000000000000005,0.070000000000000007
508,1782588381971,0.28000000000000003,-0.56000000000000005,0.070000000000000007
509,1782588382022,0.28000000000000003,-0.56000000000000005,0.070000000000000007
510,1782588382088,0.28000000000000003,-0.48999999999999999,0.070000000000000007
511,1782588382154,0.20999999999999999,-0.56000000000000005,0.070000000000000007
512,1782588382205,0.20999999999999999,-0.56000000000000005,0.070000000000000007
513,1782588382271,0.14000000000000001,-0.56000000000000005,0.070000000000000007
514,1782588382305,0.20999999999999999,-0.56000000000000005,0.070000000000000007
515,1782588382338,0.20999999999999999,-0.56000000000000005,0.070000000000000007
516,1782588382354,0.20999999999999999,-0.56000000000000005,0.14000000000000001
517,1782588382405,0.14000000000000001,-0.48999999999999999,0.070000000000000007
518,1782588382438,0.20999999999999999,-0.48999999999999999,0.070000000000000007
519,1782588382471,0.20999999999999999,-0.48999999999999999,0.070000000000000007
520,1782588382538,0.20999999999999999,-0.48999999999999999,0.070000000000000007
521,1782588382554,0.20999999999999999,-0.56000000000000005,0.070000000000000007
522,1782588382571,0.20999999999999999,-0.56000000000000005,0.070000000000000007
523,1782588382654,0.20999999999999999,-0.56000000000000005,0.070000000000000007
524,1782588382721,0.20999999999999999,-0.48999999999999999,0.070000000000000007
525,1782588382771,0.20999999999999999,-0.48999999999999999,0.070000000000000007
526,1782588382822,0.20999999999999999,-0.48999999999999999,0.070000000000000007
527,1782588382855,0.20999999999999999,-0.48999999999999999,0.070000000000000007
528,1782588382904,0.20999999999999999,-0.48999999999999999,0.070000000000000007
529,1782588382954,0.28000000000000003,-0.56000000000000005,0.070000000000000007
530,1782588382971,0.28000000000000003,-0.56000000000000005,0.070000000000000007
531,1782588383020,0.28000000000000003,-0.41999999999999998,0.070000000000000007
532,1782588383070,0.28000000000000003,-0.56000000000000005,0.070000000000000007
533,1782588383137,0.20999999999999999,-0.56000000000000005,0.070000000000000007
534,1782588383187,0.20999999999999999,-0.56000000000000005,0.14000000000000001
535,1782588383238,0.20999999999999999,-0.56000000000000005,0.14000000000000001
536,1782588383254,0.20999999999999999,-0.56000000000000005,0.070000000000000007
537,1782588383321,0.28000000000000003,-0.56000000000000005,0.070000000000000007
538,1782588383370,0.20999999999999999,-0.48999999999999999,0.070000000000000007
539,1782588383437,0.20999999999999999,-0.48999999999999999,0.070000000000000007
540,1782588383470,0.20999999999999999,-0.48999999999999999,0.070000000000000007
541,1782588383537,0.14000000000000001,-0.48999999999999999,0.070000000000000007
542,1782588383604,0.20999999999999999,-0.48999999999999999,0.070000000000000007
543,1782588383770,0.14000000000000001,-0.56000000000000005,0.070000000000000007
544,1782588383804,0.14000000000000001,-0.56000000000000005,0.070000000000000007
545,1782588383853,0.28000000000000003,-0.56000000000000005,0.070000000000000007
546,1782588383870,0.20999999999999999,-0.48999999999999999,0.070000000000000007
547,1782588383920,0.20999999999999999,-0.48999999999999999,0.070000000000000007
548,1782588383970,0.20999999999999999,-0.48999999999999999,0.070000000000000007
549,1782588384020,0.20999999999999999,-0.48999999999999999,0.070000000000000007
550,1782588384053,0.20999999999999999,-0.48999999999999999,0.070000000000000007
551,1782588384087,0.20999999999999999,-0.48999999999999999,0.070000000000000007
552,1782588384120,0.14000000000000001,-0.41999999999999998,0.070000000000000007
553,1782588384153,0.14000000000000001,-0.41999999999999998,0.070000000000000007
554,1782588384203,0.20999999999999999,-0.56000000000000005,0.070000000000000007
555,1782588384270,0.20999999999999999,-0.56000000000000005,0.14000000000000001
556,1782588384319,0.20999999999999999,-0.56000000000000005,0.14000000000000001
557,1782588384386,0.20999999999999999,-0.56000000000000005,0.14000000000000001
558,1782588384453,0.14000000000000001,-0.48999999999999999,0.070000000000000007
559,1782588384503,0.14000000000000001,-0.48999999999999999,0.070000000000000007
560,1782588384586,0.14000000000000001,-0.48999999999999999,0.070000000000000007
561,1782588384686,0.14000000000000001,-0.56000000000000005,0.070000000000000007
562,1782588384954,0.20999999999999999,-0.56000000000000005,0.070000000000000007
563,1782588384956,0.20999999999999999,-0.56000000000000005,0.070000000000000007
564,1782588384969,0.20999999999999999,-0.48999999999999999,0.070000000000000007
565,1782588384969,0.20999999999999999,-0.56000000000000005,0.070000000000000007
566,1782588384969,0.20999999999999999,-0.48999999999999999,0.070000000000000007
567,1782588385002,0.20999999999999999,-0.48999999999999999,0.070000000000000007
568,1782588385036,0.20999999999999999,-0.48999999999999999,0.070000000000000007
569,1782588385086,0.20999999999999999,-0.48999999999999999,0.070000000000000007
570,1782588385169,0.20999999999999999,-0.48999999999999999,0.070000000000000007
571,1782588385319,0.28000000000000003,-0.56000000000000005,0.070000000000000007
572,1782588385386,0.28000000000000003,-0.48999999999999999,0.070000000000000007
573,1782588385435,0.28000000000000003,-0.48999999999999999,0.070000000000000007
574,1782588385503,0.28000000000000003,-0.41999999999999998,0
575,1782588385552,0.34999999999999998,-0.48999999999999999,0.070000000000000007
576,1782588385586,0.28000000000000003,-0.48999999999999999,0.070000000000000007
577,1782588385619,0.28000000000000003,-0.56000000000000005,0.070000000000000007
578,1782588385718,0.20999999999999999,-0.56000000000000005,0.070000000000000007
579,1782588385786,0.14000000000000001,-0.56000000000000005,0.070000000000000007
580,1782588385803,0.20999999999999999,-0.56000000000000005,0
581,1782588385836,0.20999999999999999,-0.56000000000000005,0
582,1782588385852,0.20999999999999999,-0.56000000000000005,0
583,1782588385869,0.20999999999999999,-0.48999999999999999,0
584,1782588385902,0.20999999999999999,-0.48999999999999999,0
585,1782588385969,0.20999999999999999,-0.48999999999999999,0
586,1782588386136,0.20999999999999999,-0.56000000000000005,0.070000000000000007
587,1782588386168,0.20999999999999999,-0.48999999999999999,0.070000000000000007
588,1782588386252,0.20999999999999999,-0.48999999999999999,0.070000000000000007
589,1782588386301,0.14000000000000001,-0.48999999999999999,0.070000000000000007
590,1782588386352,0.20999999999999999,-0.48999999999999999,0.070000000000000007
591,1782588386402,0.20999999999999999,-0.48999999999999999,0.070000000000000007
592,1782588386451,0.20999999999999999,-0.48999999999999999,0.070000000000000007
593,1782588386518,0.14000000000000001,-0.48999999999999999,0.070000000000000007
594,1782588386552,0.14000000000000001,-0.48999999999999999,0.070000000000000007
595,1782588386619,0.28000000000000003,-0.56000000000000005,0.070000000000000007
596,1782588386652,0.28000000000000003,-0.56000000000000005,0.070000000000000007
597,1782588386785,0.20999999999999999,-0.56000000000000005,0.070000000000000007
598,1782588386851,0.20999999999999999,-0.56000000000000005,0.070000000000000007
599,1782588386901,0.20999999999999999,-0.56000000000000005,0.070000000000000007
600,1782588386968,0.20999999999999999,-0.56000000000000005,0.070000000000000007
601,1782588387101,0.20999999999999999,-0.56000000000000005,0.070000000000000007
602,1782588387201,0.20999999999999999,-0.56000000000000005,0.070000000000000007
603,1782588387251,0.20999999999999999,-0.41999999999999998,0.070000000000000007
604,1782588387284,0.20999999999999999,-0.48999999999999999,0.070000000000000007
605,1782588387300,0.20999999999999999,-0.48999999999999999,0.070000000000000007
606,1782588387334,0.20999999999999999,-0.41999999999999998,0.070000000000000007
607,1782588387350,0.20999999999999999,-0.41999999999999998,0.070000000000000007
608,1782588387401,0.14000000000000001,-0.41999999999999998,0.070000000000000007
609,1782588387451,0.20999999999999999,-0.41999999999999998,0.070000000000000007
610,1782588387567,0.20999999999999999,-0.48999999999999999,0.070000000000000007
611,1782588387600,0.20999999999999999,-0.48999999999999999,0.070000000000000007
612,1782588387618,0.20999999999999999,-0.48999999999999999,0.070000000000000007
613,1782588387634,0.28000000000000003,-0.48999999999999999,0.070000000000000007
614,1782588387700,0.28000000000000003,-0.48999999999999999,0.070000000000000007
615,1782588387817,0.28000000000000003,-0.48999999999999999,0.070000000000000007
616,1782588387883,0.28000000000000003,-0.41999999999999998,0.14000000000000001
617,1782588387950,0.20999999999999999,-0.48999999999999999,0.070000000000000007
618,1782588387983,0.20999999999999999,-0.48999999999999999,0.070000000000000007
619,1782588388000,0.20999999999999999,-0.56000000000000005,0.070000000000000007
620,1782588388017,0.20999999999999999,-0.48999999999999999,0.070000000000000007
621,1782588388050,0.20999999999999999,-0.48999999999999999,0.070000000000000007
622,1782588388200,0.14000000000000001,-0.41999999999999998,0.070000000000000007
623,1782588388233,0.14000000000000001,-0.41999999999999998,0.070000000000000007
624,1782588388316,0.14000000000000001,-0.41999999999999998,0.070000000000000007
625,1782588388333,0.14000000000000001,-0.34999999999999998,0.070000000000000007
626,1782588388366,0.14000000000000001,-0.41999999999999998,0.070000000000000007
627,1782588388383,0.20999999999999999,-0.41999999999999998,0.070000000000000007
628,1782588388400,0.20999999999999999,-0.56000000000000005,0.070000000000000007
629,1782588388500,0.20999999999999999,-0.48999999999999999,0.14000000000000001
630,1782588388566,0.20999999999999999,-0.56000000000000005,0.14000000000000001
631,1782588388600,0.20999999999999999,-0.48999999999999999,0.14000000000000001
632,1782588388632,0.20999999999999999,-0.48999999999999999,0.070000000000000007
633,1782588388666,0.28000000000000003,-0.48999999999999999,0.070000000000000007
634,1782588388682,0.28000000000000003,-0.48999999999999999,0.070000000000000007
635,1782588388699,0.28000000000000003,-0.41999999999999998,0.070000000000000007
636,1782588388766,0.20999999999999999,-0.56000000000000005,0
637,1782588388799,0.20999999999999999,-0.56000000000000005,0
638,1782588388816,0.20999999999999999,-0.56000000000000005,0
639,1782588388849,0.20999999999999999,-0.56000000000000005,0
640,1782588388883,0.20999999999999999,-0.56000000000000005,0
641,1782588388949,0.20999999999999999,-0.56000000000000005,0
642,1782588388999,0.20999999999999999,-0.56000000000000005,0
643,1782588389032,0.20999999999999999,-0.56000000000000005,0.070000000000000007
644,1782588389049,0.14000000000000001,-0.56000000000000005,0.070000000000000007
645,1782588389116,0.14000000000000001,-0.56000000000000005,0.070000000000000007
646,1782588389216,0.14000000000000001,-0.56000000000000005,0
647,1782588389282,0.14000000000000001,-0.56000000000000005,0
648,1782588389315,0.20999999999999999,-0.48999999999999999,0.070000000000000007
649,1782588389349,0.20999999999999999,-0.56000000000000005,0.070000000000000007
650,1782588389382,0.20999999999999999,-0.48999999999999999,0.070000000000000007
651,1782588389432,0.14000000000000001,-0.56000000000000005,0.070000000000000007
652,1782588389466,0.14000000000000001,-0.56000000000000005,0.070000000000000007
653,1782588389482,0.20999999999999999,-0.56000000000000005,0.070000000000000007
654,1782588389532,0.14000000000000001,-0.56000000000000005,0.070000000000000007
655,1782588389582,0.14000000000000001,-0.56000000000000005,0
656,1782588389598,0.28000000000000003,-0.41999999999999998,0.070000000000000007
657,1782588389632,0.28000000000000003,-0.41999999999999998,0.070000000000000007
658,1782588389666,0.20999999999999999,-0.48999999999999999,0.14000000000000001
659,1782588389682,0.20999999999999999,-0.56000000000000005,0.14000000000000001
660,1782588389698,0.20999999999999999,-0.56000000000000005,0.14000000000000001
661,1782588389748,0.28000000000000003,-0.56000000000000005,0.14000000000000001
662,1782588389898,0.14000000000000001,-0.41999999999999998,0.070000000000000007
663,1782588389965,0.14000000000000001,-0.41999999999999998,0.070000000000000007
664,1782588389982,0.14000000000000001,-0.56000000000000005,0.070000000000000007
665,1782588389998,0.20999999999999999,-0.56000000000000005,0.070000000000000007
666,1782588390048,0.28000000000000003,-0.48999999999999999,0.070000000000000007
667,1782588390082,0.28000000000000003,-0.56000000000000005,0.070000000000000007
668,1782588390148,0.14000000000000001,-0.48999999999999999,0
669,1782588390214,0.28000000000000003,-0.48999999999999999,0
670,1782588390248,0.28000000000000003,-0.48999999999999999,0
671,1782588390315,0.28000000000000003,-0.48999999999999999,0
672,1782588390348,0.14000000000000001,-0.48999999999999999,0.070000000000000007
673,1782588390381,0.14000000000000001,-0.48999999999999999,0.14000000000000001
674,1782588390398,0.14000000000000001,-0.48999999999999999,0.14000000000000001
675,1782588390415,0.14000000000000001,-0.48999999999999999,0.14000000000000001
676,1782588390431,0.20999999999999999,-0.48999999999999999,0.14000000000000001
677,1782588390498,0.14000000000000001,-0.48999999999999999,0.14000000000000001
678,1782588390548,0.14000000000000001,-0.48999999999999999,0.070000000000000007
679,1782588390598,0.20999999999999999,-0.48999999999999999,0.070000000000000007
680,1782588390631,0.20999999999999999,-0.48999999999999999,0.070000000000000007
681,1782588390664,0.28000000000000003,-0.48999999999999999,0.070000000000000007
682,1782588390731,0.28000000000000003,-0.56000000000000005,0.070000000000000007
683,1782588390814,0.20999999999999999,-0.56000000000000005,0.070000000000000007
684,1782588390881,0.20999999999999999,-0.56000000000000005,0.070000000000000007
685,1782588390947,0.14000000000000001,-0.63,0.070000000000000007
686,1782588390997,0.14000000000000001,-0.63,0.070000000000000007
687,1782588391049,0.28000000000000003,-0.34999999999999998,0.070000000000000007
688,1782588391098,0.20999999999999999,-0.41999999999999998,0.070000000000000007
689,1782588391147,0.20999999999999999,-0.41999999999999998,0.070000000000000007
690,1782588391198,0.20999999999999999,-0.41999999999999998,0.070000000000000007
691,1782588391230,0.20999999999999999,-0.41999999999999998,0.070000000000000007
692,1782588391248,0.14000000000000001,-0.41999999999999998,0
693,1782588391264,0.14000000000000001,-0.41999999999999998,-0.070000000000000007
694,1782588391281,0.14000000000000001,-0.48999999999999999,-0.070000000000000007
695,1782588391330,0.14000000000000001,-0.48999999999999999,-0.14000000000000001
696,1782588391348,0.20999999999999999,-0.41999999999999998,-0.070000000000000007
697,1782588391447,0.20999999999999999,-0.41999999999999998,-0.070000000000000007
698,1782588391514,0.14000000000000001,-0.48999999999999999,-0.070000000000000007
699,1782588391547,0.070000000000000007,-0.48999999999999999,-0.070000000000000007
700,1782588391564,0.070000000000000007,-0.56000000000000005,-0.070000000000000007
701,1782588391580,0.070000000000000007,-0.56000000000000005,0
702,1782588391613,0.070000000000000007,-0.48999999999999999,0
703,1782588391647,0.20999999999999999,-0.56000000000000005,0
704,1782588391713,0.20999999999999999,-0.48999999999999999,0
705,1782588391764,0.20999999999999999,-0.48999999999999999,0
706,1782588391780,0.20999999999999999,-0.48999999999999999,0
707,1782588391813,0.20999999999999999,-0.48999999999999999,0
708,1782588391830,0.070000000000000007,-0.48999999999999999,0.070000000000000007
709,1782588391847,0.070000000000000007,-0.48999999999999999,0.070000000000000007
710,1782588391946,0.20999999999999999,-0.41999999999999998,0
711,1782588391996,0.20999999999999999,-0.41999999999999998,0
712,1782588392080,0.20999999999999999,-0.48999999999999999,0
713,1782588392130,0.28000000000000003,-0.48999999999999999,0
714,1782588392163,0.20999999999999999,-0.48999999999999999,0
715,1782588392179,0.20999999999999999,-0.48999999999999999,0
716,1782588392196,0.34999999999999998,-0.41999999999999998,0
717,1782588392263,0.34999999999999998,-0.41999999999999998,0
718,1782588392313,0.34999999999999998,-0.41999999999999998,0
719,1782588392363,0.34999999999999998,-0.48999999999999999,0
720,1782588392379,0.41999999999999998,-0.48999999999999999,0
721,1782588392396,0.41999999999999998,-0.48999999999999999,0
722,1782588392447,0.41999999999999998,-0.48999999999999999,0.070000000000000007
723,1782588392513,0.34999999999999998,-0.48999999999999999,0.070000000000000007
724,1782588392629,0.34999999999999998,-0.48999999999999999,0.070000000000000007
725,1782588392696,0.28000000000000003,-0.48999999999999999,0.14000000000000001
726,1782588392746,0.28000000000000003,-0.56000000000000005,0.14000000000000001
727,1782588392779,0.20999999999999999,-0.56000000000000005,0.070000000000000007
728,1782588392846,0.20999999999999999,-0.56000000000000005,0.070000000000000007
729,1782588392896,0.20999999999999999,-0.56000000000000005,0.070000000000000007
730,1782588392945,0.28000000000000003,-0.56000000000000005,0.070000000000000007
731,1782588393030,0.28000000000000003,-0.56000000000000005,0.070000000000000007
732,1782588393096,0.20999999999999999,-0.48999999999999999,0
733,1782588393195,0.20999999999999999,-0.48999999999999999,0
734,1782588393296,0.20999999999999999,-0.48999999999999999,0
735,1782588393362,0.20999999999999999,-0.48999999999999999,0.070000000000000007
736,1782588393412,0.20999999999999999,-0.48999999999999999,0.070000000000000007
737,1782588393462,0.20999999999999999,-0.48999999999999999,0.070000000000000007
738,1782588393512,0.20999999999999999,-0.48999999999999999,0.14000000000000001
739,1782588393562,0.20999999999999999,-0.48999999999999999,0.20999999999999999
740,1782588393629,0.20999999999999999,-0.48999999999999999,0.20999999999999999
741,1782588393645,0.20999999999999999,-0.48999999999999999,0.14000000000000001
742,1782588393662,0.20999999999999999,-0.48999999999999999,0.14000000000000001
743,1782588393711,0.28000000000000003,-0.56000000000000005,0.070000000000000007
744,1782588393745,0.28000000000000003,-0.48999999999999999,0.070000000000000007
745,1782588393779,0.20999999999999999,-0.48999999999999999,0.070000000000000007
746,1782588393812,0.20999999999999999,-0.48999999999999999,0.070000000000000007
747,1782588393878,0.20999999999999999,-0.48999999999999999,0.070000000000000007
748,1782588393945,0.28000000000000003,-0.48999999999999999,0.070000000000000007
749,1782588393995,0.28000000000000003,-0.48999999999999999,0.070000000000000007
750,1782588394112,0.28000000000000003,-0.48999999999999999,0.070000000000000007
751,1782588394144,0.28000000000000003,-0.48999999999999999,0.070000000000000007
752,1782588394162,0.28000000000000003,-0.48999999999999999,0.070000000000000007
753,1782588394195,0.28000000000000003,-0.48999999999999999,0.070000000000000007
754,1782588394211,0.28000000000000003,-0.48999999999999999,0.070000000000000007
755,1782588394278,0.14000000000000001,-0.48999999999999999,0.14000000000000001
756,1782588394328,0.14000000000000001,-0.48999999999999999,0.14000000000000001
757,1782588394378,0.14000000000000001,-0.48999999999999999,0.070000000000000007
758,1782588394461,0.14000000000000001,-0.41999999999999998,0.070000000000000007
759,1782588394494,0.20999999999999999,-0.48999999999999999,0.070000000000000007
760,1782588394561,0.28000000000000003,-0.48999999999999999,0.070000000000000007
761,1782588394627,0.28000000000000003,-0.48999999999999999,0.070000000000000007
762,1782588394728,0.28000000000000003,-0.56000000000000005,0.070000000000000007
763,1782588394777,0.28000000000000003,-0.48999999999999999,0.070000000000000007
764,1782588394877,0.28000000000000003,-0.48999999999999999,0.070000000000000007
765,1782588394911,0.28000000000000003,-0.48999999999999999,0.070000000000000007
766,1782588394977,0.34999999999999998,-0.48999999999999999,0.070000000000000007
767,1782588395044,0.20999999999999999,-0.48999999999999999,0.070000000000000007
768,1782588395077,0.20999999999999999,-0.48999999999999999,0.070000000000000007
769,1782588395144,0.14000000000000001,-0.48999999999999999,0
770,1782588395310,0.20999999999999999,-0.48999999999999999,0
771,1782588395344,0.20999999999999999,-0.48999999999999999,0
772,1782588395393,0.28000000000000003,-0.48999999999999999,0.070000000000000007
773,1782588395443,0.34999999999999998,-0.48999999999999999,0.070000000000000007
774,1782588395494,0.34999999999999998,-0.48999999999999999,0.070000000000000007
775,1782588395543,0.34999999999999998,-0.56000000000000005,0.070000000000000007
776,1782588395594,0.28000000000000003,-0.56000000000000005,0.070000000000000007
777,1782588395694,0.20999999999999999,-0.48999999999999999,0.070000000000000007
778,1782588395980,0.20999999999999999,-0.48999999999999999,0.070000000000000007
779,1782588395993,0.20999999999999999,-0.48999999999999999,0.070000000000000007
780,1782588395994,0.20999999999999999,-0.41999999999999998,0.070000000000000007
781,1782588395994,0.20999999999999999,-0.41999999999999998,0.070000000000000007
782,1782588395994,0.20999999999999999,-0.48999999999999999,0.070000000000000007
783,1782588396027,0.14000000000000001,-0.48999999999999999,0.070000000000000007
784,1782588396076,0.20999999999999999,-0.41999999999999998,0.070000000000000007
785,1782588396127,0.20999999999999999,-0.41999999999999998,0.070000000000000007
786,1782588396177,0.20999999999999999,-0.41999999999999998,0.070000000000000007
787,1782588396226,0.20999999999999999,-0.41999999999999998,0.070000000000000007
788,1782588396277,0.20999999999999999,-0.41999999999999998,0.070000000000000007
789,1782588396359,0.14000000000000001,-0.41999999999999998,0.070000000000000007
790,1782588396409,0.14000000000000001,-0.41999999999999998,0.070000000000000007
791,1782588396476,0.14000000000000001,-0.41999999999999998,0.070000000000000007
792,1782588396593,0.20999999999999999,-0.48999999999999999,0.070000000000000007
793,1782588396693,0.20999999999999999,-0.48999999999999999,0.070000000000000007
794,1782588396760,0.20999999999999999,-0.48999999999999999,0.070000000000000007
795,1782588396809,0.28000000000000003,-0.48999999999999999,0.070000000000000007
796,1782588396859,0.28000000000000003,-0.48999999999999999,0.070000000000000007
797,1782588396926,0.28000000000000003,-0.48999999999999999,0.070000000000000007
798,1782588396977,0.28000000000000003,-0.48999999999999999,0.070000000000000007
799,1782588397026,0.28000000000000003,-0.48999999999999999,0.070000000000000007
800,1782588397093,0.28000000000000003,-0.48999999999999999,0.070000000000000007
801,1782588397142,0.20999999999999999,-0.56000000000000005,0.070000000000000007
802,1782588397209,0.20999999999999999,-0.56000000000000005,0.070000000000000007
803,1782588397259,0.20999999999999999,-0.48999999999999999,0.070000000000000007
804,1782588397309,0.20999999999999999,-0.48999999999999999,0.070000000000000007
805,1782588397359,0.20999999999999999,-0.56000000000000005,0.070000000000000007
806,1782588397426,0.14000000000000001,-0.48999999999999999,0.070000000000000007
807,1782588397509,0.14000000000000001,-0.41999999999999998,0.14000000000000001
808,1782588397592,0.14000000000000001,-0.41999999999999998,0.070000000000000007
809,1782588397658,0.20999999999999999,-0.41999999999999998,0.070000000000000007
810,1782588397675,0.20999999999999999,-0.48999999999999999,0.070000000000000007
811,1782588397742,0.20999999999999999,-0.48999999999999999,0.070000000000000007
812,1782588397826,0.20999999999999999,-0.48999999999999999,0.070000000000000007
813,1782588397892,0.20999999999999999,-0.48999999999999999,0.070000000000000007
814,1782588397941,0.20999999999999999,-0.48999999999999999,0.070000000000000007
815,1782588398059,0.20999999999999999,-0.48999999999999999,0.070000000000000007
816,1782588398092,0.14000000000000001,-0.48999999999999999,0.14000000000000001
817,1782588398159,0.14000000000000001,-0.48999999999999999,0.14000000000000001
818,1782588398192,0.14000000000000001,-0.48999999999999999,0.14000000000000001
819,1782588398276,0.20999999999999999,-0.48999999999999999,0.070000000000000007
820,1782588398325,0.28000000000000003,-0.48999999999999999,0.070000000000000007
821,1782588398391,0.28000000000000003,-0.48999999999999999,0.14000000000000001
822,1782588398475,0.28000000000000003,-0.48999999999999999,0.14000000000000001
823,1782588398508,0.28000000000000003,-0.48999999999999999,0.070000000000000007
824,1782588398574,0.28000000000000003,-0.48999999999999999,0.070000000000000007
825,1782588398608,0.20999999999999999,-0.48999999999999999,0.070000000000000007
826,1782588398657,0.20999999999999999,-0.56000000000000005,0.070000000000000007
827,1782588398724,0.20999999999999999,-0.48999999999999999,0.070000000000000007
828,1782588398824,0.28000000000000003,-0.56000000000000005,0.070000000000000007
829,1782588398907,0.28000000000000003,-0.48999999999999999,0.070000000000000007
830,1782588399074,0.14000000000000001,-0.48999999999999999,0.070000000000000007
831,1782588399091,0.14000000000000001,-0.48999999999999999,0.070000000000000007
832,1782588399157,0.14000000000000001,-0.48999999999999999,0.14000000000000001
833,1782588399190,0.28000000000000003,-0.48999999999999999,0.070000000000000007
834,1782588399241,0.20999999999999999,-0.48999999999999999,0.070000000000000007
835,1782588399290,0.28000000000000003,-0.48999999999999999,0.070000000000000007
836,1782588399341,0.20999999999999999,-0.48999999999999999,0.070000000000000007
837,1782588399391,0.20999999999999999,-0.48999999999999999,0.070000000000000007
838,1782588399440,0.20999999999999999,-0.48999999999999999,0.14000000000000001
839,1782588399457,0.28000000000000003,-0.56000000000000005,0.14000000000000001
840,1782588399656,0.28000000000000003,-0.48999999999999999,0.070000000000000007
841,1782588399707,0.20999999999999999,-0.48999999999999999,0.070000000000000007
842,1782588399758,0.20999999999999999,-0.48999999999999999,0.070000000000000007
843,1782588399774,0.28000000000000003,-0.48999999999999999,0.070000000000000007
844,1782588399823,0.20999999999999999,-0.56000000000000005,0.070000000000000007
845,1782588399873,0.28000000000000003,-0.56000000000000005,0.070000000000000007
846,1782588399940,0.20999999999999999,-0.56000000000000005,0
847,1782588400039,0.20999999999999999,-0.56000000000000005,0
848,1782588400107,0.28000000000000003,-0.48999999999999999,0.070000000000000007
849,1782588400156,0.28000000000000003,-0.48999999999999999,0
850,1782588400206,0.20999999999999999,-0.56000000000000005,0.070000000000000007
851,1782588400290,0.20999999999999999,-0.48999999999999999,0.070000000000000007
852,1782588400340,0.20999999999999999,-0.56000000000000005,0.070000000000000007
853,1782588400390,0.20999999999999999,-0.56000000000000005,0.070000000000000007
854,1782588400439,0.20999999999999999,-0.56000000000000005,0.070000000000000007
855,1782588400556,0.20999999999999999,-0.48999999999999999,0.070000000000000007
856,1782588400623,0.20999999999999999,-0.48999999999999999,0.070000000000000007
857,1782588400639,0,-0.56000000000000005,0.070000000000000007
858,1782588400689,0,-0.56000000000000005,0.070000000000000007
859,1782588400740,0.070000000000000007,-0.63,0
860,1782588400790,0,-0.56000000000000005,0.070000000000000007
861,1782588400839,0,-0.56000000000000005,0
862,1782588400922,0.14000000000000001,-0.56000000000000005,0
863,1782588400956,0.14000000000000001,-0.48999999999999999,0.070000000000000007
864,1782588401006,0.28000000000000003,-0.48999999999999999,0
865,1782588401041,0.20999999999999999,-0.48999999999999999,0.070000000000000007
866,1782588401072,0.20999999999999999,-0.48999999999999999,0.070000000000000007
867,1782588401089,0.20999999999999999,-0.48999999999999999,0.070000000000000007
868,1782588401106,0.14000000000000001,-0.48999999999999999,0.070000000000000007
869,1782588401139,0.20999999999999999,-0.48999999999999999,0.070000000000000007
870,1782588401189,0.28000000000000003,-0.48999999999999999,0.070000000000000007
871,1782588401239,0.28000000000000003,-0.48999999999999999,0
872,1782588401306,0.20999999999999999,-0.41999999999999998,0
873,1782588401339,0.20999999999999999,-0.41999999999999998,0
874,1782588401389,0.20999999999999999,-0.41999999999999998,0
875,1782588401422,0.20999999999999999,-0.41999999999999998,0
876,1782588401439,0.20999999999999999,-0.41999999999999998,0
877,1782588401488,0.20999999999999999,-0.48999999999999999,0
878,1782588401539,0.20999999999999999,-0.41999999999999998,0
879,1782588401589,0.20999999999999999,-0.48999999999999999,0
880,1782588401705,0.20999999999999999,-0.48999999999999999,0
881,1782588401722,0.20999999999999999,-0.48999999999999999,0
882,1782588401755,0.28000000000000003,-0.41999999999999998,0.070000000000000007
883,1782588401771,0.28000000000000003,-0.41999999999999998,0.070000000000000007
884,1782588401822,0.20999999999999999,-0.41999999999999998,0.070000000000000007
885,1782588401855,0.28000000000000003,-0.56000000000000005,0.14000000000000001
886,1782588401889,0.34999999999999998,-0.56000000000000005,0.14000000000000001
887,1782588401922,0.34999999999999998,-0.48999999999999999,0.070000000000000007
888,1782588401988,0.34999999999999998,-0.48999999999999999,0.070000000000000007
889,1782588402055,0.34999999999999998,-0.48999999999999999,0.070000000000000007
890,1782588402105,0.34999999999999998,-0.41999999999999998,0.070000000000000007
891,1782588402171,0.20999999999999999,-0.48999999999999999,0.070000000000000007
892,1782588402205,0.20999999999999999,-0.48999999999999999,0.14000000000000001
893,1782588402221,0.20999999999999999,-0.48999999999999999,0.070000000000000007
894,1782588402238,0.20999999999999999,-0.48999999999999999,0.070000000000000007
895,1782588402271,0.20999999999999999,-0.48999999999999999,0.070000000000000007
896,1782588402288,0.20999999999999999,-0.48999999999999999,0.070000000000000007
897,1782588402338,0.28000000000000003,-0.56000000000000005,0.070000000000000007
898,1782588402388,0.28000000000000003,-0.56000000000000005,0.070000000000000007
899,1782588402437,0.28000000000000003,-0.56000000000000005,0.070000000000000007
900,1782588402521,0.20999999999999999,-0.56000000000000005,0
901,1782588402554,0.20999999999999999,-0.56000000000000005,0.070000000000000007
902,1782588402604,0.28000000000000003,-0.56000000000000005,0
903,1782588402637,0.28000000000000003,-0.48999999999999999,0.070000000000000007
904,1782588402687,0.28000000000000003,-0.56000000000000005,0.070000000000000007
905,1782588402737,0.28000000000000003,-0.48999999999999999,0.070000000000000007
906,1782588402770,0.28000000000000003,-0.56000000000000005,0.14000000000000001
907,1782588402788,0.28000000000000003,-0.48999999999999999,0.070000000000000007
908,1782588402805,0.28000000000000003,-0.56000000000000005,0.070000000000000007
909,1782588402821,0.28000000000000003,-0.56000000000000005,0
910,1782588402888,0.20999999999999999,-0.56000000000000005,0
911,1782588402921,0.20999999999999999,-0.56000000000000005,0
912,1782588402970,0.20999999999999999,-0.56000000000000005,0
913,1782588403088,0.20999999999999999,-0.48999999999999999,0.070000000000000007
914,1782588403104,0.20999999999999999,-0.48999999999999999,0.070000000000000007
915,1782588403138,0.20999999999999999,-0.48999999999999999,0.070000000000000007
916,1782588403221,0.20999999999999999,-0.56000000000000005,0.070000000000000007
917,1782588403270,0.20999999999999999,-0.56000000000000005,0.070000000000000007
918,1782588403320,0.28000000000000003,-0.56000000000000005,0.070000000000000007
919,1782588403354,0.28000000000000003,-0.56000000000000005,0.070000000000000007
920,1782588403404,0.28000000000000003,-0.48999999999999999,0
921,1782588403453,0.34999999999999998,-0.48999999999999999,0
922,1782588403504,0.28000000000000003,-0.48999999999999999,0
923,1782588403537,0.20999999999999999,-0.48999999999999999,0
924,1782588403603,0.20999999999999999,-0.48999999999999999,0
925,1782588403653,0.20999999999999999,-0.48999999999999999,0
926,1782588403703,0.20999999999999999,-0.48999999999999999,0
927,1782588403720,0.20999999999999999,-0.41999999999999998,0.070000000000000007
928,1782588403770,0.20999999999999999,-0.48999999999999999,0.070000000000000007
929,1782588403837,0.14000000000000001,-0.48999999999999999,0.070000000000000007
930,1782588403953,0.14000000000000001,-0.56000000000000005,0.070000000000000007
931,1782588404020,0.20999999999999999,-0.48999999999999999,0.070000000000000007
932,1782588404086,0.20999999999999999,-0.48999999999999999,0.070000000000000007
933,1782588404153,0.20999999999999999,-0.48999999999999999,0.070000000000000007
934,1782588404253,0.28000000000000003,-0.48999999999999999,0.070000000000000007
935,1782588404320,0.20999999999999999,-0.48999999999999999,0.070000000000000007
936,1782588404386,0.20999999999999999,-0.48999999999999999,0.070000000000000007
937,1782588404420,0.20999999999999999,-0.48999999999999999,0.070000000000000007
938,1782588404470,0.20999999999999999,-0.48999999999999999,0.070000000000000007
939,1782588404519,0.20999999999999999,-0.48999999999999999,0.070000000000000007
940,1782588404569,0.28000000000000003,-0.48999999999999999,0.070000000000000007
941,1782588404603,0.20999999999999999,-0.56000000000000005,0.070000000000000007
942,1782588404636,0.20999999999999999,-0.48999999999999999,0.070000000000000007
943,1782588404703,0.20999999999999999,-0.48999999999999999,0.070000000000000007
944,1782588404769,0.20999999999999999,-0.41999999999999998,0.070000000000000007
945,1782588404802,0.20999999999999999,-0.41999999999999998,0.070000000000000007
946,1782588404852,0.28000000000000003,-0.48999999999999999,0.070000000000000007
947,1782588404903,0.20999999999999999,-0.56000000000000005,0.070000000000000007
948,1782588404969,0.14000000000000001,-0.48999999999999999,0.070000000000000007
949,1782588405019,0.14000000000000001,-0.48999999999999999,0.070000000000000007
950,1782588405036,0.14000000000000001,-0.48999999999999999,0.070000000000000007
951,1782588405053,0.14000000000000001,-0.48999999999999999,0.070000000000000007
952,1782588405085,0.20999999999999999,-0.48999999999999999,0.070000000000000007
953,1782588405102,0.20999999999999999,-0.48999999999999999,0.070000000000000007
954,1782588405152,0.20999999999999999,-0.48999999999999999,0.070000000000000007
955,1782588405202,0.20999999999999999,-0.63,0.070000000000000007
956,1782588405252,0.20999999999999999,-0.63,0.070000000000000007
957,1782588405286,0.20999999999999999,-0.48999999999999999,0
958,1782588405352,0.20999999999999999,-0.48999999999999999,0
959,1782588405419,0.20999999999999999,-0.48999999999999999,0.070000000000000007
960,1782588405468,0.20999999999999999,-0.48999999999999999,0.070000000000000007
961,1782588405519,0.28000000000000003,-0.48999999999999999,0.070000000000000007
962,1782588405586,0.20999999999999999,-0.48999999999999999,0.070000000000000007
963,1782588405618,0.28000000000000003,-0.56000000000000005,0
964,1782588405669,0.28000000000000003,-0.56000000000000005,0
965,1782588405736,0.28000000000000003,-0.48999999999999999,0.070000000000000007
966,1782588405785,0.28000000000000003,-0.41999999999999998,0.070000000000000007
967,1782588405802,0.20999999999999999,-0.41999999999999998,0.070000000000000007
968,1782588405851,6.7199999999999998,-0.48999999999999999,0.070000000000000007
969,1782588405902,0.20999999999999999,-0.48999999999999999,0.070000000000000007
970,1782588405919,0.20999999999999999,-0.48999999999999999,0.070000000000000007
971,1782588405951,0.20999999999999999,-0.56000000000000005,0.070000000000000007
972,1782588406001,0.34999999999999998,-0.56000000000000005,0.070000000000000007
973,1782588406034,0.34999999999999998,-0.56000000000000005,0.070000000000000007
974,1782588406102,0.34999999999999998,-0.56000000000000005,0.070000000000000007
975,1782588406151,0.20999999999999999,-0.56000000000000005,0.070000000000000007
976,1782588406201,0.20999999999999999,-0.48999999999999999,0.070000000000000007
977,1782588406252,0.20999999999999999,-0.48999999999999999,0.070000000000000007
978,1782588406318,0.20999999999999999,-0.48999999999999999,0.070000000000000007
979,1782588406352,0.28000000000000003,-0.48999999999999999,0.14000000000000001
980,1782588406403,0.28000000000000003,-0.41999999999999998,0.14000000000000001
981,1782588406467,0.28000000000000003,-0.41999999999999998,0.14000000000000001
982,1782588406518,0.28000000000000003,-0.41999999999999998,0.14000000000000001
983,1782588406584,0.28000000000000003,-0.41999999999999998,0.14000000000000001
984,1782588406618,0.28000000000000003,-0.41999999999999998,0.14000000000000001
985,1782588406634,0.20999999999999999,-0.48999999999999999,0.070000000000000007
986,1782588406717,-0.48999999999999999,-0.28000000000000003,0.28000000000000003
987,1782588406991,-0.48999999999999999,-0.070000000000000007,0.34999999999999998
988,1782588407001,-0.48999999999999999,0.070000000000000007,0.48999999999999999
989,1782588407001,0.34999999999999998,0.070000000000000007,0.48999999999999999
990,1782588407001,0.34999999999999998,0.070000000000000007,0.56000000000000005
991,1782588407001,0.34999999999999998,0,0.56000000000000005
992,1782588407001,0.070000000000000007,-0.34999999999999998,0.48999999999999999
993,1782588407001,0,-0.63,0.41999999999999998
994,1782588407017,0,-0.63,0.34999999999999998
995,1782588407067,0.34999999999999998,-0.48999999999999999,0.070000000000000007
996,1782588407134,0.48999999999999999,-0.56000000000000005,0.14000000000000001
997,1782588407200,0.48999999999999999,-0.63,0.14000000000000001
998,1782588407283,0.48999999999999999,-0.56000000000000005,0.14000000000000001
999,1782588407333,0.28000000000000003,-0.41999999999999998,0.14000000000000001
1000,1782588407384,0.34999999999999998,-0.69999999999999996,0.070000000000000007
1001,1782588407433,0.34999999999999998,-0.56000000000000005,0.070000000000000007
1002,1782588407483,0.28000000000000003,-0.48999999999999999,0.14000000000000001
1003,1782588407517,0.20999999999999999,-0.48999999999999999,0.20999999999999999
1004,1782588407533,0.20999999999999999,-0.48999999999999999,0.20999999999999999
1005,1782588407550,0.14000000000000001,-0.48999999999999999,0.20999999999999999
1006,1782588407583,0.14000000000000001,-0.48999999999999999,0.20999999999999999
1007,1782588407600,0.14000000000000001,-0.56000000000000005,0.20999999999999999
1008,1782588407683,0.14000000000000001,-0.56000000000000005,0.20999999999999999
1009,1782588407751,0.14000000000000001,-0.56000000000000005,0.14000000000000001
1010,1782588407817,0.28000000000000003,-0.56000000000000005,0.070000000000000007
1011,1782588407851,0.28000000000000003,-0.56000000000000005,0.070000000000000007
1012,1782588407917,0.28000000000000003,-0.48999999999999999,0.070000000000000007
1013,1782588407968,0.20999999999999999,-0.56000000000000005,0.070000000000000007
1014,1782588408034,0.20999999999999999,-0.56000000000000005,0.070000000000000007
1015,1782588408084,0.20999999999999999,-0.56000000000000005,0.070000000000000007
1016,1782588408100,0.14000000000000001,-0.48999999999999999,0.14000000000000001
1017,1782588408168,0.14000000000000001,-0.48999999999999999,0.14000000000000001
1018,1782588408233,0.14000000000000001,-0.48999999999999999,0.14000000000000001
1019,1782588408267,0.14000000000000001,-0.48999999999999999,0.070000000000000007
1020,1782588408316,0.20999999999999999,-0.48999999999999999,0.14000000000000001
1021,1782588408333,0.20999999999999999,-0.48999999999999999,0.14000000000000001
1022,1782588408366,0.20999999999999999,-0.41999999999999998,0.14000000000000001
1023,1782588408384,0.20999999999999999,-0.41999999999999998,0.14000000000000001
1024,1782588408400,0.20999999999999999,-0.41999999999999998,0.14000000000000001
1025,1782588408449,0.14000000000000001,-0.48999999999999999,0.14000000000000001
1026,1782588408467,0.20999999999999999,-0.41999999999999998,0.070000000000000007
1027,1782588408517,0.070000000000000007,-0.56000000000000005,0.070000000000000007
1028,1782588408566,0.20999999999999999,-0.56000000000000005,0.070000000000000007
1029,1782588408617,0.34999999999999998,-0.56000000000000005,0.070000000000000007
1030,1782588408667,0.14000000000000001,-0.56000000000000005,0.070000000000000007
1031,1782588408716,0.14000000000000001,-0.56000000000000005,0.070000000000000007
1032,1782588408766,0.34999999999999998,-0.56000000000000005,0.070000000000000007
1033,1782588408816,0.20999999999999999,-0.28000000000000003,0.070000000000000007
1034,1782588408882,0.20999999999999999,-0.48999999999999999,0.070000000000000007
1035,1782588408933,0.20999999999999999,-0.56000000000000005,0.070000000000000007
1036,1782588408999,0.20999999999999999,-0.48999999999999999,0.070000000000000007
1037,1782588409049,0.20999999999999999,-0.48999999999999999,0.070000000000000007
1038,1782588409116,0.20999999999999999,-0.56000000000000005,0.070000000000000007
1039,1782588409149,0.28000000000000003,-0.56000000000000005,0.070000000000000007
1040,1782588409216,0.28000000000000003,-0.56000000000000005,0
1041,1782588409249,0.28000000000000003,-0.56000000000000005,0
1042,1782588409265,0.28000000000000003,-0.56000000000000005,0
1043,1782588409282,0.28000000000000003,-0.56000000000000005,0
1044,1782588409299,0.28000000000000003,-0.56000000000000005,0
1045,1782588409332,0.28000000000000003,-0.41999999999999998,0.070000000000000007
1046,1782588409382,0.20999999999999999,-0.41999999999999998,0.070000000000000007
1047,1782588409432,0.20999999999999999,-0.41999999999999998,0
1048,1782588409498,0.20999999999999999,-0.41999999999999998,0
1049,1782588409532,0.20999999999999999,-0.56000000000000005,0.14000000000000001
1050,1782588409598,0.14000000000000001,-0.56000000000000005,0.070000000000000007
1051,1782588409631,0.20999999999999999,-0.63,0.070000000000000007
1052,1782588409699,0.20999999999999999,-0.63,0.070000000000000007
1053,1782588409748,0.28000000000000003,-0.56000000000000005,0.070000000000000007
1054,1782588409815,0.28000000000000003,-0.48999999999999999,0
1055,1782588409898,0.20999999999999999,-0.48999999999999999,0.070000000000000007
1056,1782588409948,0.20999999999999999,-0.48999999999999999,0.070000000000000007
1057,1782588410015,0.20999999999999999,-0.48999999999999999,0.070000000000000007
1058,1782588410065,0.28000000000000003,-0.48999999999999999,0.070000000000000007
1059,1782588410081,0.28000000000000003,-0.48999999999999999,0.070000000000000007
1060,1782588410115,0.28000000000000003,-0.48999999999999999,0
1061,1782588410147,0.28000000000000003,-0.48999999999999999,0
1062,1782588410198,0.28000000000000003,-0.48999999999999999,0.070000000000000007
1063,1782588410215,0.28000000000000003,-0.56000000000000005,0
1064,1782588410248,0.28000000000000003,-0.41999999999999998,0
1065,1782588410281,0.28000000000000003,-0.56000000000000005,0
1066,1782588410365,0.28000000000000003,-0.63,0.070000000000000007
1067,1782588410431,0.28000000000000003,-0.56000000000000005,0.070000000000000007
1068,1782588410515,0.20999999999999999,-0.48999999999999999,0.070000000000000007
1069,1782588410547,0.20999999999999999,-0.63,0.070000000000000007
1070,1782588410598,0.20999999999999999,-0.56000000000000005,0.070000000000000007
1071,1782588410664,0.20999999999999999,-0.56000000000000005,0.070000000000000007
1072,1782588410698,0.28000000000000003,-0.56000000000000005,0.070000000000000007
1073,1782588410764,0.28000000000000003,-0.48999999999999999,0.14000000000000001
1074,1782588410814,0.34999999999999998,-0.48999999999999999,0.14000000000000001
1075,1782588410847,0.34999999999999998,-0.48999999999999999,0.14000000000000001
1076,1782588410864,0.34999999999999998,-0.48999999999999999,0.070000000000000007
1077,1782588410914,0.20999999999999999,-0.48999999999999999,0.070000000000000007
1078,1782588410964,0.20999999999999999,-0.48999999999999999,0.070000000000000007
1079,1782588410997,0.20999999999999999,-0.48999999999999999,0.070000000000000007
1080,1782588411014,0.20999999999999999,-0.41999999999999998,0.070000000000000007
1081,1782588411031,0.20999999999999999,-0.48999999999999999,0.070000000000000007
1082,1782588411064,0.20999999999999999,-0.48999999999999999,0.20999999999999999
1083,1782588411097,0.20999999999999999,-0.48999999999999999,0.20999999999999999
1084,1782588411147,0.20999999999999999,-0.48999999999999999,0.20999999999999999
1085,1782588411214,0.20999999999999999,-0.48999999999999999,0.070000000000000007
1086,1782588411264,0.20999999999999999,-0.48999999999999999,0.070000000000000007
1087,1782588411297,0.20999999999999999,-0.56000000000000005,0.070000000000000007
1088,1782588411363,0.20999999999999999,-0.48999999999999999,0.070000000000000007
1089,1782588411414,0.20999999999999999,-0.48999999999999999,0.070000000000000007
1090,1782588411480,0.20999999999999999,-0.48999999999999999,0.070000000000000007
1091,1782588411513,0.20999999999999999,-0.48999999999999999,0
1092,1782588411580,0.20999999999999999,-0.48999999999999999,0
1093,1782588411646,0.28000000000000003,-0.48999999999999999,0.070000000000000007
1094,1782588411680,0.20999999999999999,-0.48999999999999999,0.070000000000000007
1095,1782588411746,0.28000000000000003,-0.48999999999999999,0.070000000000000007
1096,1782588411780,0.28000000000000003,-0.48999999999999999,0.070000000000000007
1097,1782588411830,0.28000000000000003,-0.48999999999999999,0.070000000000000007
1098,1782588411863,0.28000000000000003,-0.48999999999999999,0.070000000000000007
1099,1782588411879,0.28000000000000003,-0.48999999999999999,0.070000000000000007
1100,1782588411897,0.28000000000000003,-0.48999999999999999,0.070000000000000007
1101,1782588411980,0.20999999999999999,-0.48999999999999999,0.070000000000000007
1102,1782588412013,0.20999999999999999,-0.48999999999999999,0.070000000000000007
1103,1782588412063,0.20999999999999999,-0.48999999999999999,0.070000000000000007
1104,1782588412129,0.20999999999999999,-0.48999999999999999,0.070000000000000007
1105,1782588412179,0.20999999999999999,-0.48999999999999999,0.070000000000000007
1106,1782588412230,0.20999999999999999,-0.48999999999999999,0
1107,1782588412296,0.20999999999999999,-0.48999999999999999,0
1108,1782588412346,0.28000000000000003,-0.56000000000000005,0.070000000000000007
1109,1782588412379,0.20999999999999999,-0.48999999999999999,0.070000000000000007
1110,1782588412447,0.20999999999999999,-0.56000000000000005,0.070000000000000007
1111,1782588412479,0.20999999999999999,-0.48999999999999999,0.070000000000000007
1112,1782588412546,0.20999999999999999,-0.48999999999999999,0.14000000000000001
1113,1782588412580,0.20999999999999999,-0.48999999999999999,0.070000000000000007
1114,1782588412613,0.20999999999999999,-0.48999999999999999,0.070000000000000007
1115,1782588412629,0.20999999999999999,-0.48999999999999999,0.070000000000000007
1116,1782588412646,0.20999999999999999,-0.48999999999999999,0
1117,1782588412696,0.20999999999999999,-0.56000000000000005,0.070000000000000007
1118,1782588412729,0.20999999999999999,-0.56000000000000005,0
1119,1782588412745,0.20999999999999999,-0.48999999999999999,0
1120,1782588412779,0.20999999999999999,-0.48999999999999999,0.070000000000000007
1121,1782588412796,0.20999999999999999,-0.48999999999999999,0.070000000000000007
1122,1782588412829,0.20999999999999999,-0.48999999999999999,0.070000000000000007
1123,1782588412879,0.20999999999999999,-0.48999999999999999,0.070000000000000007
1124,1782588412946,0.20999999999999999,-0.48999999999999999,0.070000000000000007
1125,1782588412995,0.20999999999999999,-0.48999999999999999,0.070000000000000007
1126,1782588413196,0.28000000000000003,-0.48999999999999999,0.14000000000000001
1127,1782588413229,0.20999999999999999,-0.48999999999999999,0.14000000000000001
1128,1782588413278,0.20999999999999999,-0.48999999999999999,0.070000000000000007
1129,1782588413345,0.20999999999999999,-0.48999999999999999,0.070000000000000007
1130,1782588413395,0.14000000000000001,-0.48999999999999999,0.070000000000000007
1131,1782588413428,0.14000000000000001,-0.48999999999999999,0.070000000000000007
1132,1782588413479,0.20999999999999999,-0.48999999999999999,0.070000000000000007
1133,1782588413495,0.28000000000000003,-0.48999999999999999,0.070000000000000007
1134,1782588413528,0.14000000000000001,-0.48999999999999999,0.070000000000000007
1135,1782588413545,0.28000000000000003,-0.48999999999999999,0.070000000000000007
1136,1782588413579,0.28000000000000003,-0.56000000000000005,0.070000000000000007
1137,1782588413645,0.28000000000000003,-0.56000000000000005,0.070000000000000007
1138,1782588413728,0.28000000000000003,-0.41999999999999998,0.070000000000000007
1139,1782588413778,0.28000000000000003,-0.56000000000000005,0.070000000000000007
1140,1782588413828,0.28000000000000003,-0.48999999999999999,0.070000000000000007
1141,1782588413895,0.34999999999999998,-0.48999999999999999,0.070000000000000007
1142,1782588413945,0.34999999999999998,-0.48999999999999999,0.070000000000000007
1143,1782588413995,0.34999999999999998,-0.48999999999999999,0.070000000000000007
1144,1782588414044,0.34999999999999998,-0.48999999999999999,0.070000000000000007
1145,1782588414096,0.20999999999999999,-0.48999999999999999,0.070000000000000007
1146,1782588414145,0.20999999999999999,-0.48999999999999999,0.070000000000000007
1147,1782588414195,0.20999999999999999,-0.48999999999999999,0.070000000000000007
1148,1782588414245,0.20999999999999999,-0.48999999999999999,0.070000000000000007
1149,1782588414294,0.20999999999999999,-0.48999999999999999,0.070000000000000007
1150,1782588414328,0.20999999999999999,-0.48999999999999999,0.070000000000000007
1151,1782588414344,0.20999999999999999,-0.48999999999999999,0.070000000000000007
1152,1782588414361,0.20999999999999999,-0.48999999999999999,0.070000000000000007
1153,1782588414394,0.20999999999999999,-0.48999999999999999,0.070000000000000007
1154,1782588414428,0.28000000000000003,-0.48999999999999999,0.070000000000000007
1155,1782588414461,0.28000000000000003,-0.34999999999999998,0
1156,1782588414511,0.28000000000000003,-0.41999999999999998,0
1157,1782588414527,0.20999999999999999,-0.56000000000000005,0
1158,1782588414594,0.20999999999999999,-0.56000000000000005,0.070000000000000007
1159,1782588414644,0.20999999999999999,-0.56000000000000005,0.070000000000000007
1160,1782588414711,0.20999999999999999,-0.56000000000000005,0.070000000000000007
1161,1782588414745,0.14000000000000001,-0.56000000000000005,0.070000000000000007
1162,1782588414794,0.28000000000000003,-0.48999999999999999,0.14000000000000001
1163,1782588414861,0.28000000000000003,-0.56000000000000005,0.14000000000000001
1164,1782588414911,0.20999999999999999,-0.56000000000000005,0.070000000000000007
1165,1782588414961,0.20999999999999999,-0.56000000000000005,0.14000000000000001
1166,1782588415010,0.20999999999999999,-0.48999999999999999,0.070000000000000007
1167,1782588415110,0.20999999999999999,-0.56000000000000005,0.070000000000000007
1168,1782588415160,0.20999999999999999,-0.48999999999999999,0.070000000000000007
1169,1782588415211,0.20999999999999999,-0.48999999999999999,0.070000000000000007
1170,1782588415227,0.20999999999999999,-0.48999999999999999,0.070000000000000007
1171,1782588415244,0.20999999999999999,-0.48999999999999999,0.070000000000000007
1172,1782588415277,0.20999999999999999,-0.48999999999999999,0.070000000000000007
1173,1782588415293,0.20999999999999999,-0.56000000000000005,0.070000000000000007
1174,1782588415343,0.20999999999999999,-0.41999999999999998,0.070000000000000007
1175,1782588415393,0.20999999999999999,-0.41999999999999998,0.070000000000000007
1176,1782588415460,0.14000000000000001,-0.69999999999999996,0.070000000000000007
1177,1782588415560,0.20999999999999999,-0.34999999999999998,0.070000000000000007
1178,1782588415593,0.14000000000000001,-0.34999999999999998,0.070000000000000007
1179,1782588415660,0.14000000000000001,-0.48999999999999999,0.070000000000000007
1180,1782588415710,0.28000000000000003,-0.48999999999999999,0.070000000000000007
1181,1782588415760,0.20999999999999999,-0.41999999999999998,0
1182,1782588415810,0.20999999999999999,-0.48999999999999999,0.070000000000000007
1183,1782588415860,0.20999999999999999,-0.48999999999999999,0.070000000000000007
1184,1782588415926,0.28000000000000003,-0.48999999999999999,0.070000000000000007
1185,1782588415977,0.28000000000000003,-0.48999999999999999,0.070000000000000007
1186,1782588416010,0.20999999999999999,-0.56000000000000005,0.070000000000000007
1187,1782588416043,0.20999999999999999,-0.56000000000000005,0.070000000000000007
1188,1782588416076,0.20999999999999999,-0.56000000000000005,0.14000000000000001
1189,1782588416093,0.20999999999999999,-0.48999999999999999,0.070000000000000007
1190,1782588416110,0.20999999999999999,-0.48999999999999999,0.070000000000000007
1191,1782588416159,0.28000000000000003,-0.48999999999999999,0.070000000000000007
1192,1782588416177,0.20999999999999999,-0.48999999999999999,0.070000000000000007
1193,1782588416210,0.20999999999999999,-0.48999999999999999,0.070000000000000007
1194,1782588416226,0.20999999999999999,-0.56000000000000005,0.070000000000000007
1195,1782588416243,0.20999999999999999,-0.48999999999999999,0.070000000000000007
1196,1782588416276,0.20999999999999999,-0.48999999999999999,0.070000000000000007
1197,1782588416309,0.28000000000000003,-0.48999999999999999,0
1198,1782588416393,0.28000000000000003,-0.48999999999999999,0.070000000000000007
1199,1782588416526,0.28000000000000003,-0.48999999999999999,0
1200,1782588416593,0.14000000000000001,-0.56000000000000005,0.070000000000000007
1201,1782588416642,0.14000000000000001,-0.48999999999999999,0.070000000000000007
1202,1782588416759,0.14000000000000001,-0.48999999999999999,0.070000000000000007
1203,1782588416809,0.20999999999999999,-0.48999999999999999,0.070000000000000007
1204,1782588416859,0.20999999999999999,-0.48999999999999999,0.070000000000000007
1205,1782588416909,0.20999999999999999,-0.48999999999999999,0.070000000000000007
1206,1782588416975,0.20999999999999999,-0.48999999999999999,0.070000000000000007
1207,1782588417059,0.20999999999999999,-0.56000000000000005,0.070000000000000007
1208,1782588417092,0.28000000000000003,-0.48999999999999999,0.070000000000000007
1209,1782588417192,0.20999999999999999,-0.48999999999999999,0.070000000000000007
1210,1782588417242,0.14000000000000001,-0.48999999999999999,0.14000000000000001
1211,1782588417292,0.20999999999999999,-0.48999999999999999,0.14000000000000001
1212,1782588417342,0.20999999999999999,-0.48999999999999999,0.14000000000000001
1213,1782588417375,0.20999999999999999,-0.48999999999999999,0.070000000000000007
1214,1782588417392,0.28000000000000003,-0.56000000000000005,0.070000000000000007
1215,1782588417442,0.20999999999999999,-0.56000000000000005,0.070000000000000007
1216,1782588417541,0.20999999999999999,-0.56000000000000005,0.070000000000000007
1217,1782588417608,0.20999999999999999,-0.56000000000000005,0.070000000000000007
1218,1782588417972,0.20999999999999999,-0.48999999999999999,0.070000000000000007
1219,1782588417973,0.20999999999999999,-0.56000000000000005,0.070000000000000007
1220,1782588417991,0.28000000000000003,-0.48999999999999999,0.070000000000000007
1221,1782588417991,0.28000000000000003,-0.48999999999999999,0.070000000000000007
1222,1782588417992,0.14000000000000001,-0.56000000000000005,0
1223,1782588417992,0.14000000000000001,-0.56000000000000005,0
1224,1782588418025,0.14000000000000001,-0.48999999999999999,0.070000000000000007
1225,1782588418091,0.20999999999999999,-0.56000000000000005,0.070000000000000007
1226,1782588418141,0.14000000000000001,-0.48999999999999999,0.070000000000000007
1227,1782588418241,0.20999999999999999,-0.48999999999999999,0.070000000000000007
1228,1782588418324,0.20999999999999999,-0.48999999999999999,0.070000000000000007
1229,1782588418408,0.20999999999999999,-0.48999999999999999,0.070000000000000007
1230,1782588418441,0.20999999999999999,-0.48999999999999999,0.070000000000000007
1231,1782588418474,0.28000000000000003,-0.48999999999999999,0.070000000000000007
1232,1782588418508,0.28000000000000003,-0.48999999999999999,0.070000000000000007
1233,1782588418574,0.28000000000000003,-0.48999999999999999,0.070000000000000007
1234,1782588418624,0.20999999999999999,-0.48999999999999999,0.070000000000000007
1235,1782588418690,0.20999999999999999,-0.48999999999999999,0.070000000000000007
1236,1782588418742,0.20999999999999999,-0.56000000000000005,0.070000000000000007
1237,1782588418758,0.20999999999999999,-0.48999999999999999,0.070000000000000007
1238,1782588418808,0.20999999999999999,-0.56000000000000005,0.070000000000000007
1239,1782588418858,0.20999999999999999,-0.56000000000000005,0.070000000000000007
1240,1782588418891,0.20999999999999999,-0.56000000000000005,0.070000000000000007
1241,1782588418924,0.20999999999999999,-0.56000000000000005,0.070000000000000007
1242,1782588418958,0.20999999999999999,-0.48999999999999999,0
1243,1782588419007,0.20999999999999999,-0.48999999999999999,0
1244,1782588419024,0.20999999999999999,-0.48999999999999999,0
1245,1782588419107,0.20999999999999999,-0.41999999999999998,0.070000000000000007
1246,1782588419159,0.20999999999999999,-0.48999999999999999,0.070000000000000007
1247,1782588419191,0.20999999999999999,-0.48999999999999999,0.070000000000000007
1248,1782588419224,0.20999999999999999,-0.48999999999999999,0.070000000000000007
1249,1782588419273,0.20999999999999999,-0.56000000000000005,0.14000000000000001
1250,1782588419373,0.20999999999999999,-0.48999999999999999,0.070000000000000007
1251,1782588419424,0.20999999999999999,-0.48999999999999999,0.070000000000000007
1252,1782588419524,0.20999999999999999,-0.48999999999999999,0.070000000000000007
1253,1782588419590,0.20999999999999999,-0.48999999999999999,0.070000000000000007
1254,1782588419608,0.28000000000000003,-0.48999999999999999,0.070000000000000007
1255,1782588419690,0.20999999999999999,-0.48999999999999999,0.070000000000000007
1256,1782588419807,0.20999999999999999,-0.48999999999999999,0.070000000000000007
1257,1782588419891,0.20999999999999999,-0.48999999999999999,0.070000000000000007
1258,1782588420007,0.20999999999999999,-0.48999999999999999,0.070000000000000007
1259,1782588420106,0.20999999999999999,-0.48999999999999999,0.070000000000000007
1260,1782588420156,0.20999999999999999,-0.48999999999999999,0.070000000000000007
1261,1782588420239,0.20999999999999999,-0.48999999999999999,0.070000000000000007
1262,1782588420323,0.20999999999999999,-0.48999999999999999,0.070000000000000007
1263,1782588420356,0.20999999999999999,-0.48999999999999999,0.070000000000000007
1264,1782588420422,0.20999999999999999,-0.48999999999999999,0.070000000000000007
1265,1782588420456,0.20999999999999999,-0.48999999999999999,0.070000000000000007
1266,1782588420489,0.20999999999999999,-0.48999999999999999,0.070000000000000007
1267,1782588420540,0.28000000000000003,-0.48999999999999999,0.070000000000000007
1268,1782588420589,0.28000000000000003,-0.48999999999999999,0.070000000000000007
1269,1782588420639,0.28000000000000003,-0.48999999999999999,0.070000000000000007
1270,1782588420689,0.28000000000000003,-0.48999999999999999,0.070000000000000007
1271,1782588420722,0.28000000000000003,-0.48999999999999999,0.070000000000000007
1272,1782588420756,0.28000000000000003,-0.48999999999999999,0.070000000000000007
1273,1782588420774,0.20999999999999999,-0.48999999999999999,0.070000000000000007
1274,1782588420789,0.20999999999999999,-0.56000000000000005,0.070000000000000007
1275,1782588420822,0.20999999999999999,-0.56000000000000005,0.070000000000000007
1276,1782588420889,0.20999999999999999,-0.56000000000000005,0.070000000000000007
1277,1782588420939,0.20999999999999999,-0.56000000000000005,0.070000000000000007
1278,1782588420989,0.20999999999999999,-0.48999999999999999,0.070000000000000007
1279,1782588421006,0.20999999999999999,-0.48999999999999999,0.070000000000000007
1280,1782588421039,0.20999999999999999,-0.48999999999999999,0.070000000000000007
1281,1782588421072,0.20999999999999999,-0.48999999999999999,0.070000000000000007
1282,1782588421239,0.20999999999999999,-0.48999999999999999,0.070000000000000007
1283,1782588421272,0.20999999999999999,-0.48999999999999999,0.070000000000000007
1284,1782588421338,0.20999999999999999,-0.48999999999999999,0.070000000000000007
1285,1782588421405,0.20999999999999999,-0.48999999999999999,0.070000000000000007
1286,1782588421438,0.20999999999999999,-0.48999999999999999,0.070000000000000007
1287,1782588421505,0.20999999999999999,-0.48999999999999999,0
1288,1782588421556,0.20999999999999999,-0.56000000000000005,0.070000000000000007
1289,1782588421622,0.20999999999999999,-0.48999999999999999,0.070000000000000007
1290,1782588421655,0.20999999999999999,-0.48999999999999999,0.070000000000000007
1291,1782588421721,0.20999999999999999,-0.48999999999999999,0.070000000000000007
1292,1782588421788,0.20999999999999999,-0.48999999999999999,0.070000000000000007
1293,1782588421838,0.20999999999999999,-0.48999999999999999,0.070000000000000007
1294,1782588421888,0.28000000000000003,-0.48999999999999999,0.070000000000000007
1295,1782588421954,0.20999999999999999,-0.48999999999999999,0.070000000000000007
1296,1782588421972,0.20999999999999999,-0.48999999999999999,0.070000000000000007
1297,1782588422038,0.20999999999999999,-0.48999999999999999,0.070000000000000007
1298,1782588422072,0.20999999999999999,-0.48999999999999999,0.070000000000000007
1299,1782588422138,0.28000000000000003,-0.48999999999999999,0.070000000000000007
1300,1782588422222,0.28000000000000003,-0.48999999999999999,0.070000000000000007
1301,1782588422238,0.28000000000000003,-0.48999999999999999,0.070000000000000007
1302,1782588422271,0.28000000000000003,-0.48999999999999999,0.070000000000000007
1303,1782588422338,0.28000000000000003,-0.48999999999999999,0.070000000000000007
1304,1782588422405,0.28000000000000003,-0.48999999999999999,0.070000000000000007
1305,1782588422538,0.28000000000000003,-0.48999999999999999,0.070000000000000007
1306,1782588422604,0.28000000000000003,-0.48999999999999999,0.14000000000000001
1307,1782588422621,0.20999999999999999,-0.48999999999999999,0.14000000000000001
1308,1782588422637,0.20999999999999999,-0.48999999999999999,0.070000000000000007
1309,1782588422671,0.20999999999999999,-0.48999999999999999,0
1310,1782588422721,0.20999999999999999,-0.48999999999999999,0.070000000000000007
1311,1782588422787,0.20999999999999999,-0.48999999999999999,0.070000000000000007
1312,1782588422820,0.20999999999999999,-0.48999999999999999,0.070000000000000007
1313,1782588422854,0.20999999999999999,-0.48999999999999999,0.070000000000000007
1314,1782588422871,0.20999999999999999,-0.48999999999999999,0.070000000000000007
1315,1782588422904,0.20999999999999999,-0.48999999999999999,0.070000000000000007
1316,1782588423053,0.28000000000000003,-0.48999999999999999,0.070000000000000007
1317,1782588423187,0.28000000000000003,-0.48999999999999999,0.070000000000000007
1318,1782588423254,0.28000000000000003,-0.48999999999999999,0.070000000000000007
1319,1782588423270,0.20999999999999999,-0.48999999999999999,0.070000000000000007
1320,1782588423370,0.20999999999999999,-0.48999999999999999,0.14000000000000001
1321,1782588423420,0.20999999999999999,-0.48999999999999999,0.14000000000000001
1322,1782588423470,0.20999999999999999,-0.48999999999999999,0.20999999999999999
1323,1782588423536,0.20999999999999999,-0.48999999999999999,0.20999999999999999
1324,1782588423587,0.28000000000000003,-0.48999999999999999,0.070000000000000007
1325,1782588423636,0.28000000000000003,-0.48999999999999999,0.070000000000000007
1326,1782588423686,0.20999999999999999,-0.48999999999999999,0.070000000000000007
1327,1782588423737,0.28000000000000003,-0.56000000000000005,0.14000000000000001
1328,1782588423803,0.28000000000000003,-0.48999999999999999,0.14000000000000001
1329,1782588423870,0.28000000000000003,-0.48999999999999999,0.14000000000000001
1330,1782588423986,0.20999999999999999,-0.48999999999999999,0.070000000000000007
1331,1782588424020,0.20999999999999999,-0.56000000000000005,0.070000000000000007
1332,1782588424103,0.20999999999999999,-0.56000000000000005,0.070000000000000007
1333,1782588424136,0.20999999999999999,-0.56000000000000005,0.070000000000000007
1334,1782588424154,0.20999999999999999,-0.56000000000000005,0.070000000000000007
1335,1782588424186,0.20999999999999999,-0.56000000000000005,0
1336,1782588424219,0.20999999999999999,-0.56000000000000005,0
1337,1782588424286,0.20999999999999999,-0.56000000000000005,0.070000000000000007
1338,1782588424319,0.20999999999999999,-0.56000000000000005,0.070000000000000007
1339,1782588424352,0.20999999999999999,-0.56000000000000005,0.070000000000000007
1340,1782588424486,0.20999999999999999,-0.48999999999999999,0.070000000000000007
1341,1782588424570,0.20999999999999999,-0.48999999999999999,0.070000000000000007
1342,1782588424636,0.20999999999999999,-0.48999999999999999,0.070000000000000007
1343,1782588424669,0.14000000000000001,-0.56000000000000005,0.070000000000000007
1344,1782588424702,0.20999999999999999,-0.48999999999999999,0.070000000000000007
1345,1782588424719,0.14000000000000001,-0.48999999999999999,0.070000000000000007
1346,1782588424735,0.20999999999999999,-0.48999999999999999,0.070000000000000007
1347,1782588424802,0,-0.56000000000000005,0.34999999999999998
1348,1782588424969,-0.14000000000000001,-0.48999999999999999,0.28000000000000003
1349,1782588424985,-0.14000000000000001,-0.48999999999999999,0.070000000000000007
1350,1782588425035,-0.14000000000000001,-0.77000000000000002,0.070000000000000007
1351,1782588425085,0.28000000000000003,-0.48999999999999999,0
1352,1782588425136,0.28000000000000003,-0.41999999999999998,0.14000000000000001
1353,1782588425185,0.28000000000000003,-0.41999999999999998,0.14000000000000001
1354,1782588425218,0.20999999999999999,-0.41999999999999998,0.14000000000000001
1355,1782588425252,0.20999999999999999,-0.41999999999999998,0.14000000000000001
1356,1782588425268,0.20999999999999999,-0.41999999999999998,0.14000000000000001
1357,1782588425286,0.20999999999999999,-0.56000000000000005,0.070000000000000007
1358,1782588425318,0.20999999999999999,-0.41999999999999998,0.070000000000000007
1359,1782588425385,0.28000000000000003,-0.48999999999999999,0
1360,1782588425418,0.28000000000000003,-0.41999999999999998,0
1361,1782588425519,0.28000000000000003,-0.41999999999999998,0.070000000000000007
1362,1782588425535,0.20999999999999999,-0.41999999999999998,0.070000000000000007
1363,1782588425569,0.20999999999999999,-0.41999999999999998,0.14000000000000001
1364,1782588425768,0.14000000000000001,-0.41999999999999998,0.070000000000000007
1365,1782588425819,0.14000000000000001,-0.41999999999999998,0.070000000000000007
1366,1782588425851,0.28000000000000003,-0.34999999999999998,0.070000000000000007
1367,1782588425868,0.28000000000000003,-0.34999999999999998,0.070000000000000007
1368,1782588425901,0.28000000000000003,-0.34999999999999998,0.070000000000000007
1369,1782588425918,0.14000000000000001,-0.48999999999999999,0.14000000000000001
1370,1782588425968,0.14000000000000001,-0.48999999999999999,0.14000000000000001
1371,1782588426001,0.14000000000000001,-0.56000000000000005,0.14000000000000001
1372,1782588426069,0.14000000000000001,-0.56000000000000005,0.14000000000000001
1373,1782588426101,0.20999999999999999,-0.56000000000000005,0.14000000000000001
1374,1782588426134,0.14000000000000001,-0.56000000000000005,0.070000000000000007
1375,1782588426151,0.14000000000000001,-0.56000000000000005,0.070000000000000007
1376,1782588426168,0.14000000000000001,-0.56000000000000005,0.070000000000000007
1377,1782588426201,0.14000000000000001,-0.56000000000000005,0.070000000000000007
1378,1782588426252,0.14000000000000001,-0.48999999999999999,0.070000000000000007
1379,1782588426318,0.34999999999999998,-0.41999999999999998,0
1380,1782588426417,0.34999999999999998,-0.41999999999999998,0
1381,1782588426551,0.20999999999999999,-0.48999999999999999,0.14000000000000001
1382,1782588426617,0.28000000000000003,-0.48999999999999999,0.14000000000000001
1383,1782588426634,0.28000000000000003,-0.48999999999999999,0.14000000000000001
1384,1782588426717,0.20999999999999999,-0.48999999999999999,0.14000000000000001
1385,1782588426751,0.28000000000000003,-0.48999999999999999,0.070000000000000007
1386,1782588426784,0.28000000000000003,-0.48999999999999999,0.070000000000000007
1387,1782588426835,0.20999999999999999,-0.48999999999999999,0.070000000000000007
1388,1782588426884,0.20999999999999999,-0.48999999999999999,0.14000000000000001
1389,1782588426901,0.20999999999999999,-0.48999999999999999,0.14000000000000001
1390,1782588426934,0.34999999999999998,-0.48999999999999999,0.14000000000000001
1391,1782588426950,0.28000000000000003,-0.48999999999999999,0.14000000000000001
1392,1782588426967,0.28000000000000003,-0.48999999999999999,0.14000000000000001
1393,1782588427017,0.28000000000000003,-0.48999999999999999,0.14000000000000001
1394,1782588427067,0.28000000000000003,-0.48999999999999999,0.070000000000000007
1395,1782588427117,0.28000000000000003,-0.48999999999999999,0.070000000000000007
1396,1782588427167,0.28000000000000003,-0.48999999999999999,0.070000000000000007
1397,1782588427233,0.20999999999999999,-0.48999999999999999,0.070000000000000007
1398,1782588427300,0.28000000000000003,-0.48999999999999999,0.070000000000000007
1399,1782588427433,0.28000000000000003,-0.48999999999999999,0.070000000000000007
1400,1782588427517,0.20999999999999999,-0.41999999999999998,0.070000000000000007
1401,1782588427533,0.20999999999999999,-0.41999999999999998,0.070000000000000007
1402,1782588427584,0.20999999999999999,-0.48999999999999999,0.070000000000000007
1403,1782588427634,0.20999999999999999,-0.48999999999999999,0.070000000000000007
1404,1782588427683,0.20999999999999999,-0.48999999999999999,0.070000000000000007
1405,1782588427733,0.20999999999999999,-0.48999999999999999,0.14000000000000001
1406,1782588427750,0.28000000000000003,-0.48999999999999999,0.070000000000000007
1407,1782588427816,0.20999999999999999,-0.48999999999999999,0.070000000000000007
1408,1782588427866,0.20999999999999999,-0.48999999999999999,0
1409,1782588427916,0.20999999999999999,-0.48999999999999999,0
1410,1782588427966,0.20999999999999999,-0.48999999999999999,0
1411,1782588428033,0.14000000000000001,-0.48999999999999999,0
1412,1782588428067,0.20999999999999999,-0.48999999999999999,0.070000000000000007
1413,1782588428166,0.20999999999999999,-0.48999999999999999,0.070000000000000007
1414,1782588428266,0.28000000000000003,-0.48999999999999999,0.14000000000000001
1415,1782588428316,0.34999999999999998,-0.48999999999999999,0.14000000000000001
1416,1782588428350,0.20999999999999999,-0.48999999999999999,0.14000000000000001
1417,1782588428400,0.20999999999999999,-0.48999999999999999,0.14000000000000001
1418,1782588428466,0.20999999999999999,-0.48999999999999999,0.14000000000000001
1419,1782588428517,0.28000000000000003,-0.48999999999999999,0.14000000000000001
1420,1782588428582,0.28000000000000003,-0.48999999999999999,0.070000000000000007
1421,1782588428649,0.28000000000000003,-0.48999999999999999,0.070000000000000007
1422,1782588428716,0.20999999999999999,-0.48999999999999999,0
1423,1782588429015,0.20999999999999999,-0.41999999999999998,0
1424,1782588429015,0.28000000000000003,-0.41999999999999998,0.14000000000000001
1425,1782588429015,0.28000000000000003,-0.41999999999999998,0.14000000000000001
1426,1782588429015,0.14000000000000001,-0.56000000000000005,0.070000000000000007
1427,1782588429049,0.20999999999999999,-0.56000000000000005,0.070000000000000007
1428,1782588429099,0.20999999999999999,-0.56000000000000005,0.070000000000000007
1429,1782588429166,0.20999999999999999,-0.48999999999999999,0.070000000000000007
1430,1782588429232,0.20999999999999999,-0.48999999999999999,0.070000000000000007
1431,1782588429282,0.28000000000000003,-0.48999999999999999,0.070000000000000007
1432,1782588429332,0.34999999999999998,-0.48999999999999999,0.070000000000000007
1433,1782588429432,0.34999999999999998,-0.48999999999999999,0.070000000000000007
1434,1782588429498,0.34999999999999998,-0.48999999999999999,0.070000000000000007
1435,1782588429548,0.20999999999999999,-0.48999999999999999,0.070000000000000007
1436,1782588429598,0.20999999999999999,-0.48999999999999999,0
1437,1782588429632,0.28000000000000003,-0.48999999999999999,0.070000000000000007
1438,1782588429698,0.20999999999999999,-0.48999999999999999,0.070000000000000007
1439,1782588429748,0.20999999999999999,-0.56000000000000005,0.070000000000000007
1440,1782588429782,0.20999999999999999,-0.56000000000000005,0
1441,1782588429831,0.14000000000000001,-0.63,0.28000000000000003
1442,1782588429915,0.14000000000000001,-0.63,0.20999999999999999
1443,1782588429998,0.14000000000000001,-0.56000000000000005,0.14000000000000001
1444,1782588430065,0.14000000000000001,-0.48999999999999999,0
1445,1782588430115,0.20999999999999999,-0.48999999999999999,0
1446,1782588430131,0.20999999999999999,-0.48999999999999999,0
1447,1782588430148,0.20999999999999999,-0.56000000000000005,0
1448,1782588430231,0.28000000000000003,-0.56000000000000005,0.070000000000000007
1449,1782588430264,0.28000000000000003,-0.56000000000000005,0.070000000000000007
1450,1782588430381,0.28000000000000003,-0.48999999999999999,0.14000000000000001
1451,1782588430431,0.34999999999999998,-0.48999999999999999,0.14000000000000001
1452,1782588430531,0.34999999999999998,-0.48999999999999999,0.14000000000000001
1453,1782588430564,0.34999999999999998,-0.48999999999999999,0.14000000000000001
1454,1782588430614,0.28000000000000003,-0.48999999999999999,0
1455,1782588430697,0.28000000000000003,-0.48999999999999999,0.070000000000000007
1456,1782588430781,0.28000000000000003,-0.48999999999999999,0.070000000000000007
1457,1782588430865,0.41999999999999998,-0.20999999999999999,0.14000000000000001
1458,1782588430914,0.41999999999999998,-0.20999999999999999,0.14000000000000001
1459,1782588430948,0.34999999999999998,-0.28000000000000003,0.070000000000000007
1460,1782588431031,0.28000000000000003,-0.41999999999999998,0.070000000000000007
1461,1782588431065,0.20999999999999999,-0.48999999999999999,0.070000000000000007
1462,1782588431114,0.14000000000000001,-0.56000000000000005,0.070000000000000007
1463,1782588431164,0.070000000000000007,-0.77000000000000002,0.070000000000000007
1464,1782588431180,0.20999999999999999,-0.56000000000000005,0.070000000000000007
1465,1782588431314,0.14000000000000001,-0.48999999999999999,0.070000000000000007
1466,1782588431381,0.20999999999999999,-0.48999999999999999,0.070000000000000007
1467,1782588431430,0.20999999999999999,-0.48999999999999999,0.070000000000000007
1468,1782588431447,0.14000000000000001,-0.56000000000000005,0
1469,1782588431513,0.14000000000000001,-0.56000000000000005,0
1470,1782588431613,0.14000000000000001,-0.56000000000000005,0
1471,1782588431696,0.20999999999999999,-0.56000000000000005,0
1472,1782588431763,0.20999999999999999,-0.56000000000000005,0.070000000000000007
1473,1782588431846,0.20999999999999999,-0.56000000000000005,0.070000000000000007
1474,1782588431897,0.20999999999999999,-0.48999999999999999,0.14000000000000001
1475,1782588431946,0.20999999999999999,-0.48999999999999999,0.14000000000000001
1476,1782588431979,0.28000000000000003,-0.56000000000000005,0.070000000000000007
1477,1782588432013,0.34999999999999998,-0.48999999999999999,0.070000000000000007
1478,1782588432047,0.34999999999999998,-0.48999999999999999,0.070000000000000007
1479,1782588432096,0.28000000000000003,-0.48999999999999999,0.070000000000000007
1480,1782588432163,0.34999999999999998,-0.48999999999999999,0.14000000000000001
1481,1782588432279,0.20999999999999999,-0.56000000000000005,0.070000000000000007
1482,1782588432313,0.20999999999999999,-0.56000000000000005,0.070000000000000007
1483,1782588432329,0.28000000000000003,-0.56000000000000005,0.070000000000000007
1484,1782588432346,0.20999999999999999,-0.56000000000000005,0.070000000000000007
1485,1782588432396,0.20999999999999999,-0.56000000000000005,0.070000000000000007
1486,1782588432413,0.20999999999999999,-0.56000000000000005,0.070000000000000007
1487,1782588432512,0.28000000000000003,-0.56000000000000005,0.14000000000000001
1488,1782588432563,0.28000000000000003,-0.56000000000000005,0.14000000000000001
1489,1782588432613,0.28000000000000003,-0.56000000000000005,0.14000000000000001
1490,1782588432679,0.28000000000000003,-0.56000000000000005,0.070000000000000007
1491,1782588432779,0.20999999999999999,-0.48999999999999999,0.14000000000000001
1492,1782588432830,0.14000000000000001,-0.56000000000000005,0.14000000000000001
1493,1782588432896,0.14000000000000001,-0.56000000000000005,0.070000000000000007
1494,1782588432962,0.20999999999999999,-0.48999999999999999,0.070000000000000007
1495,1782588433030,0.20999999999999999,-0.48999999999999999,0.14000000000000001
1496,1782588433078,0.20999999999999999,-0.48999999999999999,0.14000000000000001
1497,1782588433129,0.20999999999999999,-0.48999999999999999,0.14000000000000001
1498,1782588433179,0.20999999999999999,-0.48999999999999999,0.070000000000000007
1499,1782588433262,0.20999999999999999,-0.56000000000000005,0.070000000000000007
1500,1782588433361,0.14000000000000001,-0.48999999999999999,0.070000000000000007
1501,1782588433395,0.14000000000000001,-0.48999999999999999,0.070000000000000007
1502,1782588433445,0.14000000000000001,-0.48999999999999999,0.070000000000000007
1503,1782588433495,0.14000000000000001,-0.56000000000000005,0.070000000000000007
1504,1782588433561,0.14000000000000001,-0.48999999999999999,0.070000000000000007
1505,1782588433646,0.20999999999999999,-0.48999999999999999,0.070000000000000007
1506,1782588433711,0.20999999999999999,-0.48999999999999999,0.070000000000000007
1507,1782588433761,0.20999999999999999,-0.48999999999999999,0.070000000000000007
1508,1782588433811,0.20999999999999999,-0.48999999999999999,0.070000000000000007
1509,1782588433878,0.20999999999999999,-0.48999999999999999,0.070000000000000007
1510,1782588433961,0.20999999999999999,-0.48999999999999999,0.070000000000000007
1511,1782588434078,0.20999999999999999,-0.41999999999999998,0.070000000000000007
1512,1782588434161,0.14000000000000001,-0.56000000000000005,0.070000000000000007
1513,1782588434177,0.14000000000000001,-0.56000000000000005,0.070000000000000007
1514,1782588434227,0.14000000000000001,-0.56000000000000005,0
1515,1782588434294,0.14000000000000001,-0.56000000000000005,0
1516,1782588434361,0.20999999999999999,-0.56000000000000005,0
1517,1782588434394,0.20999999999999999,-0.48999999999999999,0.14000000000000001
1518,1782588434477,0.20999999999999999,-0.41999999999999998,0.20999999999999999
1519,1782588434527,0.14000000000000001,-0.41999999999999998,0.20999999999999999
1520,1782588434561,0.14000000000000001,-0.41999999999999998,0.20999999999999999
1521,1782588434594,0.14000000000000001,-0.48999999999999999,0.20999999999999999
1522,1782588434627,0.20999999999999999,-0.48999999999999999,0.20999999999999999
1523,1782588434744,0.14000000000000001,-0.48999999999999999,0
1524,1782588434793,0.070000000000000007,-0.48999999999999999,0
1525,1782588434844,0.14000000000000001,-0.48999999999999999,0
1526,1782588434894,0.14000000000000001,-0.48999999999999999,0
1527,1782588434944,0.20999999999999999,-0.41999999999999998,0.14000000000000001
1528,1782588434977,0.20999999999999999,-0.48999999999999999,0.14000000000000001
1529,1782588435077,0.20999999999999999,-0.48999999999999999,0.14000000000000001
1530,1782588435143,0.20999999999999999,-0.48999999999999999,0.14000000000000001
1531,1782588435210,0.14000000000000001,-0.48999999999999999,0.14000000000000001
1532,1782588435243,0.14000000000000001,-0.48999999999999999,0.070000000000000007
1533,1782588435276,0.14000000000000001,-0.48999999999999999,0.070000000000000007
1534,1782588435360,0.14000000000000001,-0.48999999999999999,0.070000000000000007
1535,1782588435476,0.14000000000000001,-0.48999999999999999,0
