index,ACCEL_X,ACCEL_Y,ACCEL_Z,1,2,3,4,5
0,1338,8039,349,0,0,0,0,0
1,1354,8042,352,0,0,0,0,0
2,1341,8046,361,0,0,0,0,0
3,1334,8039,356,0,0,0,0,0
4,1352,8034,342,0,0,0,0,0
5,1343,8035,363,0,0,0,0,0
6,1354,8040,355,0,0,0,0,0
7,1340,8048,366,0,0,0,0,0
8,1347,8039,372,0,0,0,0,0
9,1345,8044,351,0,0,0,0,0
10,1349,8030,347,0,0,0,0,0
11,1342,8048,370,0,0,0,0,0
12,1354,8028,373,0,0,0,0,0
13,1352,8032,340,0,0,0,0,0
14,1332,8030,344,0,0,0,0,0
15,1334,8041,356,0,0,0,0,0
16,1341,8029,356,0,0,0,0,0
17,1353,8043,369,0,0,0,0,0
18,1343,8048,353,0,0,0,0,0
19,1348,8043,366,0,0,0,0,0
20,1335,8037,356,0,0,0,0,0
21,1342,8030,365,0,0,0,0,0
22,1351,8043,360,0,0,0,0,0
23,1343,8038,364,0,0,0,0,0
24,1339,8027,351,0,0,0,0,0
25,1340,8021,356,0,0,0,0,0
26,1337,8038,365,0,0,0,0,0
27,1343,8054,357,0,0,0,0,0
28,1348,8021,355,0,0,0,0,0
29,1340,8046,343,0,0,0,0,0
30,1351,8024,358,0,0,0,0,0
31,1344,8048,361,0,0,0,0,0
32,1349,8037,365,0,0,0,0,0
33,1338,8027,363,0,0,0,0,0
34,1359,8062,370,0,0,0,0,0
35,1366,8064,362,0,0,0,0,0
36,1328,8030,356,0,0,0,0,0
37,1348,8026,339,0,0,0,0,0
38,1334,8033,359,0,0,0,0,0
39,1345,8039,366,0,0,0,0,0
40,2040,7318,1089,0,0,0,0,0
41,458,6968,-66,0,0,0,0,0
42,1731,7040,1352,0,0,0,0,0
43,2603,8638,2934,0,0,0,0,0
44,1355,6932,-1224,0,0,0,0,0
45,1578,7299,1472,0,0,0,0,0
46,999,8088,602,0,0,0,0,0
47,1004,8058,558,0,0,0,0,0
48,988,8079,556,0,0,0,0,0
49,1024,8074,563,0,0,0,0,0
50,1008,8083,593,0,0,0,0,0
51,1017,8082,581,0,0,0,0,0
52,1007,8081,581,0,0,0,0,0
53,1018,8070,597,0,0,0,0,0
54,1024,8086,616,0,0,0,0,0
55,1008,8056,599,0,0,0,0,0
56,1030,8081,614,0,0,0,0,0
57,1015,8073,644,0,0,0,0,0
58,1009,8071,591,0,0,0,0,0
59,1014,8074,587,0,0,0,0,0
60,1018,8082,636,0,0,0,0,0
61,1022,8070,626,0,0,0,0,0
62,1016,8066,599,0,0,0,0,0
63,1024,8087,587,0,0,0,0,0
64,1020,8080,612,0,0,0,0,0
65,1024,8057,624,0,0,0,0,0
66,1007,8079,596,0,0,0,0,0
67,1034,8068,618,0,0,0,0,0
68,1014,8073,609,0,0,0,0,0
69,1019,8083,583,0,0,0,0,0
70,1038,8071,621,0,0,0,0,0
71,1010,8061,615,0,0,0,0,0
72,1011,8082,630,0,0,0,0,0
73,1064,8046,600,0,0,0,0,0
74,1017,8086,650,0,0,0,0,0
75,1000,8082,636,0,0,0,0,0
76,1034,8053,607,0,0,0,0,0
77,1046,8085,604,0,0,0,0,0
78,1005,8099,595,0,0,0,0,0
79,1017,8041,640,0,0,0,0,0
80,1057,8075,647,0,0,0,0,0
81,1008,8065,597,0,0,0,0,0
82,999,8078,618,0,0,0,0,0
83,1038,8067,627,0,0,0,0,0
84,1013,8062,633,0,0,0,0,0
85,1009,8072,600,0,0,0,0,0
86,1036,8076,608,0,0,0,0,0
87,1025,8068,623,0,0,0,0,0
88,771,8075,600,0,0,0,0,0
89,1016,8077,608,0,0,0,0,0
90,1028,8078,614,0,0,0,0,0
91,1027,8078,605,0,0,0,0,0
92,1012,8070,613,0,0,0,0,0
93,1030,8079,622,0,0,0,0,0
94,1013,8075,612,0,0,0,0,0
95,1016,8078,611,0,0,0,0,0
96,1022,8077,613,0,0,0,0,0
97,1023,8070,610,0,0,0,0,0
98,1010,8065,590,0,0,0,0,0
99,1025,8082,617,0,0,0,0,0
100,1025,8074,609,0,0,0,0,0
101,1014,8076,602,0,0,0,0,0
102,1017,8082,612,0,0,0,0,0
103,1020,8080,635,0,0,0,0,0
104,1017,8070,619,0,0,0,0,0
105,1017,8084,612,0,0,0,0,0
106,1025,8079,610,0,0,0,0,0
107,1021,8064,599,0,0,0,0,0
108,1027,8080,613,0,0,0,0,0
109,1013,8076,606,0,0,0,0,0
110,1022,8071,616,0,0,0,0,0
111,1022,8060,593,0,0,0,0,0
112,1020,8081,597,0,0,0,0,0
113,1017,8074,621,0,0,0,0,0
114,1014,8088,618,0,0,0,0,0
115,1015,8082,612,0,0,0,0,0
116,1026,8068,602,0,0,0,0,0
117,1018,8077,610,0,0,0,0,0
118,1013,8080,614,0,0,0,0,0
119,1031,8072,614,0,0,0,0,0
120,1018,8080,598,0,0,0,0,0
121,1011,8075,605,0,0,0,0,0
122,1027,8076,613,0,0,0,0,0
123,1022,8072,602,0,0,0,0,0
124,1020,8074,608,0,0,0,0,0
125,1016,8070,595,0,0,0,0,0
126,772,8076,606,0,0,0,0,0
127,1005,8080,645,0,0,0,0,0
128,1018,8076,615,0,0,0,0,0
129,1021,8064,593,0,0,0,0,0
130,1014,8076,613,0,0,0,0,0
131,1012,8064,612,0,0,0,0,0
132,1020,8079,609,0,0,0,0,0
133,1008,8078,596,0,0,0,0,0
134,1024,8064,608,0,0,0,0,0
135,1022,8071,624,0,0,0,0,0
136,1023,8080,608,0,0,0,0,0
137,1011,8064,598,0,0,0,0,0
138,1018,8068,604,0,0,0,0,0
139,1031,8078,624,0,0,0,0,0
140,999,8060,616,0,0,0,0,0
141,1019,8072,608,0,0,0,0,0
142,1030,8080,605,0,0,0,0,0
143,1008,8072,619,0,0,0,0,0
144,1005,8078,605,0,0,0,0,0
145,1038,8071,611,0,0,0,0,0
146,1014,8077,614,0,0,0,0,0
147,986,8066,625,0,0,0,0,0
148,1034,8089,614,0,0,0,0,0
149,1046,8059,599,0,0,0,0,0
150,988,8080,642,0,0,0,0,0
151,1001,8061,601,0,0,0,0,0
152,1047,8065,616,0,0,0,0,0
153,988,8073,604,0,0,0,0,0
154,1026,8078,610,0,0,0,0,0
155,1046,8074,589,0,0,0,0,0
156,1004,8077,620,0,0,0,0,0
157,1015,8078,628,0,0,0,0,0
158,1022,8074,592,0,0,0,0,0
159,1014,8085,602,0,0,0,0,0
160,1004,8079,616,0,0,0,0,0
161,1029,8072,632,0,0,0,0,0
162,1016,8084,601,0,0,0,0,0
163,1027,8058,618,0,0,0,0,0
164,1022,8068,606,0,0,0,0,0
165,1002,8088,610,0,0,0,0,0
166,1026,8062,601,0,0,0,0,0
167,1010,8090,606,0,0,0,0,0
168,1014,8076,634,0,0,0,0,0
169,1019,8080,612,0,0,0,0,0
170,1021,8060,620,0,0,0,0,0
171,1007,8080,600,0,0,0,0,0
172,1025,8084,613,0,0,0,0,0
173,1016,8081,614,0,0,0,0,0
174,1031,8066,610,0,0,0,0,0
175,1015,8060,602,0,0,0,0,0
176,1018,8085,613,0,0,0,0,0
177,1025,8069,625,0,0,0,0,0
178,1014,8064,610,0,0,0,0,0
179,1030,8076,622,0,0,0,0,0
180,1020,8068,598,0,0,0,0,0
181,1016,8082,625,0,0,0,0,0
182,1018,8073,613,0,0,0,0,0
183,1019,8076,611,0,0,0,0,0
184,1021,8070,600,0,0,0,0,0
185,1017,8070,613,0,0,0,0,0
186,1009,8080,612,0,0,0,0,0
187,1016,8070,626,0,0,0,0,0
188,1016,8072,606,0,0,0,0,0
189,1025,8072,605,0,0,0,0,0
190,1015,8068,618,0,0,0,0,0
191,1014,8072,616,0,0,0,0,0
192,1018,8072,595,0,0,0,0,0
193,1017,8070,616,0,0,0,0,0
194,1014,8076,617,0,0,0,0,0
195,1028,8079,604,0,0,0,0,0
196,1020,8073,608,0,0,0,0,0
197,1022,8077,611,0,0,0,0,0
198,1022,8069,622,0,0,0,0,0
199,1020,8066,612,0,0,0,0,0
200,1019,8068,610,0,0,0,0,0
201,1009,8070,615,0,0,0,0,0
202,1024,8072,605,0,0,0,0,0
203,1023,8076,616,0,0,0,0,0
204,1008,8080,618,0,0,0,0,0
205,1016,8062,598,0,0,0,0,0
206,1029,8077,608,0,0,0,0,0
207,1018,8094,616,0,0,0,0,0
208,1009,8062,603,0,0,0,0,0
209,1019,8074,615,0,0,0,0,0
210,1015,8084,614,0,0,0,0,0
211,1010,8063,614,0,0,0,0,0
212,1028,8070,597,0,0,0,0,0
213,1010,8071,605,0,0,0,0,0
214,1024,8078,618,0,0,0,0,0
215,1020,8077,615,0,0,0,0,0
216,1010,8075,600,0,0,0,0,0
217,1029,8076,614,0,0,0,0,0
218,1010,8074,616,0,0,0,0,0
219,1019,8080,596,0,0,0,0,0
220,1008,8072,615,0,0,0,0,0
221,1008,8078,602,0,0,0,0,0
222,1028,8073,612,0,0,0,0,0
223,1010,8077,614,0,0,0,0,0
224,1019,8061,604,0,0,0,0,0
225,1024,8075,623,0,0,0,0,0
226,1008,8074,596,0,0,0,0,0
227,1025,8077,613,0,0,0,0,0
228,1007,8063,606,0,0,0,0,0
229,1022,8080,614,0,0,0,0,0
230,1030,8072,612,0,0,0,0,0
231,1024,8078,616,0,0,0,0,0
232,1008,8078,610,0,0,0,0,0
233,1013,8058,614,0,0,0,0,0
234,1040,8084,607,0,0,0,0,0
235,1015,8076,613,0,0,0,0,0
236,1021,8068,621,0,0,0,0,0
237,1024,8089,615,0,0,0,0,0
238,1008,8067,617,0,0,0,0,0
239,1008,8071,617,0,0,0,0,0
240,1022,8078,602,0,0,0,0,0
241,1016,8070,605,0,0,0,0,0
242,1006,8075,611,0,0,0,0,0
243,1009,8070,601,0,0,0,0,0
244,1018,8072,614,0,0,0,0,0
245,1023,8077,618,0,0,0,0,0
246,1010,8075,605,0,0,0,0,0
247,1017,8073,595,0,0,0,0,0
248,1020,8070,628,0,0,0,0,0
249,1018,8070,604,0,0,0,0,0
250,1005,8080,603,0,0,0,0,0
251,1029,8069,606,0,0,0,0,0
252,1018,8082,615,0,0,0,0,0
253,1007,8064,585,0,0,0,0,0
254,1030,8071,580,0,0,0,0,0
255,1013,8068,633,0,0,0,0,0
256,1007,8064,649,0,0,0,0,0
257,1027,8078,588,0,0,0,0,0
258,1040,8068,586,0,0,0,0,0
259,1006,8080,600,0,0,0,0,0
260,1006,8074,628,0,0,0,0,0
261,1025,8076,608,0,0,0,0,0
262,1016,8071,588,0,0,0,0,0
263,1014,8076,616,0,0,0,0,0
264,1025,8081,608,0,0,0,0,0
265,1019,8071,626,0,0,0,0,0
266,1015,8080,606,0,0,0,0,0
267,1020,8072,604,0,0,0,0,0
268,1015,8070,613,0,0,0,0,0
269,1026,8076,616,0,0,0,0,0
270,1021,8084,612,0,0,0,0,0
271,1012,8080,602,0,0,0,0,0
272,1021,8082,612,0,0,0,0,0
273,1013,8074,610,0,0,0,0,0
274,1025,8076,608,0,0,0,0,0
275,1026,8080,602,0,0,0,0,0
276,1016,8067,602,0,0,0,0,0
277,1022,8082,616,0,0,0,0,0
278,1020,8068,608,0,0,0,0,0
279,1023,8093,625,0,0,0,0,0
280,1006,8050,606,0,0,0,0,0
281,1022,8064,598,0,0,0,0,0
282,1019,8077,607,0,0,0,0,0
283,1019,8078,633,0,0,0,0,0
284,1012,8067,596,0,0,0,0,0
285,1018,8081,604,0,0,0,0,0
286,1014,8070,612,0,0,0,0,0
287,1024,8067,616,0,0,0,0,0
288,1024,8064,600,0,0,0,0,0
289,1034,8099,597,0,0,0,0,0
290,669,8571,716,0,0,0,0,0
291,340,7449,112,0,0,0,0,0
292,1400,8491,1161,0,0,0,0,0
293,763,7581,331,1277,0,0,0,0
294,817,8756,-798,0,0,0,0,0
295,278,7690,796,275,0,0,0,0
296,410,8475,298,0,0,0,0,0
297,-2,7629,-742,0,0,0,0,0
298,1021,8739,300,0,0,0,0,0
299,534,8086,-122,0,0,0,0,0
300,962,8706,-112,0,0,0,0,0
301,1755,9337,122,0,0,0,0,0
302,1240,7969,244,0,0,0,0,0
303,1210,8281,172,231,0,0,0,0
304,958,7943,-34,0,0,0,0,0
305,1676,7621,1588,229,0,0,0,0
306,133,7895,-504,0,0,0,0,0
307,803,8525,540,1312,0,0,0,0
308,710,8611,529,0,0,0,0,0
309,371,6912,134,0,0,0,0,0
310,364,7931,-290,1039,0,0,0,0
311,1092,8117,340,0,0,0,0,0
312,1204,8556,-105,1038,0,0,0,0
313,774,7360,198,0,0,0,0,0
314,362,7853,-51,1317,0,0,0,0
315,680,7016,-803,0,0,0,0,0
316,183,8710,507,1039,0,0,0,0
317,481,7540,478,0,0,0,0,0
318,10,7975,1406,0,0,0,0,0
319,758,8729,473,0,0,0,0,0
320,716,7678,-493,0,0,0,0,0
321,640,8232,760,0,0,0,0,0
322,-128,8370,-627,981,0,0,0,0
323,1402,7646,-74,0,0,0,0,0
324,-498,7179,165,0,0,0,0,0
325,335,8148,281,0,0,0,0,0
326,293,9024,787,0,0,0,0,0
327,-90,8229,567,0,0,0,0,0
328,634,7976,488,0,0,0,0,0
329,646,8414,-782,0,0,0,0,0
330,36,7253,946,0,0,0,0,0
331,-92,8011,-236,0,0,0,0,0
332,1467,8726,-8,193,0,0,0,0
333,898,7401,-434,0,0,0,0,0
334,45,8182,180,1329,0,0,0,0
335,257,8293,-28,0,0,0,0,0
336,1028,8713,843,1330,0,0,0,0
337,-311,8228,-418,0,0,0,0,0
338,-186,6950,85,1333,0,0,0,0
339,531,8179,-146,0,0,0,0,0
340,-75,7706,-1722,0,0,0,0,0
341,33,7190,293,0,0,0,0,0
342,17,8208,181,0,0,0,0,0
343,540,7485,-1018,0,0,0,0,0
344,215,8425,9,0,0,0,0,0
345,-66,8856,363,0,0,0,0,0
346,432,6878,241,0,0,0,0,0
347,-16,8467,224,0,0,0,0,0
348,285,7789,-1012,0,0,0,0,0
349,43,7534,212,0,0,0,0,0
350,692,8897,758,0,0,0,0,0
351,28,8674,553,0,0,0,0,0
352,-39,7676,10,0,0,0,0,0
353,-38,8564,929,0,0,0,0,0
354,0,7959,1617,0,0,0,0,0
355,-454,7884,-591,0,0,0,0,0
356,400,8233,906,0,0,0,0,0
357,319,8826,1220,344,0,0,0,0
358,319,7826,148,0,0,0,0,0
359,-152,7916,1097,1335,0,0,0,0
360,1022,6528,1170,0,0,0,0,0
361,527,9034,-941,0,0,0,0,0
362,602,8595,538,0,0,0,0,0
363,668,8920,596,0,0,0,0,0
364,654,8004,1151,0,0,0,0,0
365,229,7046,-255,0,0,0,0,0
366,809,6514,-69,0,0,0,0,0
367,946,8986,232,0,0,0,0,0
368,390,8888,-697,0,0,0,0,0
369,1196,8690,939,0,0,0,0,0
370,94,7478,298,0,0,0,0,0
371,298,6948,434,0,0,0,0,0
372,8,8880,-613,0,0,0,0,0
373,950,8278,-754,0,0,0,0,0
374,173,8677,126,0,0,0,0,0
375,358,8104,244,0,0,0,0,0
376,71,8004,48,0,0,0,0,0
377,492,7521,-64,0,0,0,0,0
378,612,8690,-576,0,0,0,0,0
379,661,7836,-206,0,0,0,0,0
380,354,8310,16,0,0,0,0,0
381,1104,8559,-763,0,0,0,0,0
382,405,7334,-1106,0,0,0,0,0
383,340,8514,446,0,0,0,0,0
384,1546,8263,662,0,0,0,0,0
385,946,8290,-414,0,0,0,0,0
386,53,6614,22,0,0,0,0,0
387,299,9039,-1650,0,0,0,0,0
388,1100,7517,233,523,0,0,0,0
389,1048,7964,881,0,0,0,0,0
390,678,7813,-261,105,0,0,0,0
391,539,8325,-817,0,0,0,0,0
392,400,7954,-231,132,0,0,0,0
393,436,8164,289,0,0,0,0,0
394,-182,8537,-1154,566,0,0,0,0
395,646,7681,-672,0,0,0,0,0
396,959,7678,-90,1235,0,0,0,0
397,476,8954,218,0,0,0,0,0
398,527,7359,-638,0,0,0,0,0
399,236,8690,1051,0,0,0,0,0
400,1162,8316,-1731,0,0,0,0,0
401,938,7156,-2458,0,0,0,0,0
402,1013,7038,-544,0,0,0,0,0
403,-26,7351,-1148,0,0,0,0,0
404,1098,9357,-856,0,0,0,0,0
405,-220,8606,40,0,0,0,0,0
406,154,7568,-1592,0,0,0,0,0
407,1140,8860,-558,0,0,0,0,0
408,1371,7971,932,0,0,0,0,0
409,424,9204,-498,0,0,0,0,0
410,974,7942,-684,0,0,0,0,0
411,1198,9169,217,0,0,0,0,0
412,26,8607,-805,0,0,0,0,0
413,182,7882,20,0,0,0,0,0
414,215,7404,-2601,0,0,0,0,0
415,1406,8254,-1232,0,0,0,0,0
416,-351,6628,-73,220,0,0,0,0
417,369,9271,-50,0,0,0,0,0
418,902,7650,128,179,0,0,0,0
419,411,7552,-1184,0,0,0,0,0
420,512,8448,-465,144,0,0,0,0
421,-1211,8113,-2030,0,0,0,0,0
422,787,7676,-604,0,0,0,0,0
423,128,7308,-1296,0,0,0,0,0
424,372,7341,308,0,0,0,0,0
425,834,7435,-353,0,0,0,0,0
426,1276,9320,652,0,0,0,0,0
427,-736,8131,22,0,0,0,0,0
428,822,8873,-1177,0,0,0,0,0
429,141,6904,-757,0,0,0,0,0
430,1073,7941,-586,-699,0,0,0,0
431,531,7950,481,0,0,0,0,0
432,751,8792,-250,-691,0,0,0,0
433,1038,8311,368,0,0,0,0,0
434,284,8210,-1053,0,0,0,0,0
435,1180,7021,-1478,0,0,0,0,0
436,466,7988,-328,0,0,0,0,0
437,1043,7126,-41,0,0,0,0,0
438,142,7100,-55,0,0,0,0,0
439,252,8750,820,0,0,0,0,0
440,188,8428,-454,0,0,0,0,0
441,727,8335,-1060,0,0,0,0,0
442,244,7708,-836,0,0,0,0,0
443,885,8330,264,0,0,0,0,0
444,-253,7712,-984,0,0,0,0,0
445,1128,7764,-758,0,0,0,0,0
446,844,8366,-1849,0,0,0,0,0
447,373,8121,506,0,0,0,0,0
448,1079,7682,-1282,0,0,0,0,0
449,886,9441,136,0,0,0,0,0
450,335,8018,-1338,0,0,0,0,0
451,757,7509,-61,0,0,0,0,0
452,675,8775,-936,0,0,0,0,0
453,448,7504,-58,0,0,0,0,0
454,739,8108,803,0,0,0,0,0
455,148,7470,-98,0,0,0,0,0
456,549,8610,-64,0,0,0,0,0
457,489,8417,-394,593,0,0,0,0
458,250,8581,-711,0,0,0,0,0
459,109,7401,-1122,594,0,0,0,0
460,150,9028,139,0,0,0,0,0
461,1175,8076,-28,10,0,0,0,0
462,676,8321,-604,0,0,0,0,0
463,410,8422,454,10,0,0,0,0
464,519,7855,-132,0,0,0,0,0
465,255,8098,118,10,0,0,0,0
466,797,8204,-269,0,0,0,0,0
467,632,8663,-1096,0,0,0,0,0
468,564,7998,822,0,0,0,0,0
469,872,7507,274,-709,0,0,0,0
470,655,8028,297,0,0,0,0,0
471,360,7736,-328,0,0,0,0,0
472,819,8135,-849,0,0,0,0,0
473,800,8495,-177,0,0,0,0,0
474,1026,8497,-64,0,0,0,0,0
475,799,8301,-1054,0,0,0,0,0
476,673,8504,-1039,0,0,0,0,0
477,659,7872,-291,0,0,0,0,0
478,211,8158,-1318,0,0,0,0,0
479,682,8142,-390,0,0,0,0,0
480,498,7951,-1016,0,0,0,0,0
481,733,8673,346,-704,0,0,0,0
482,596,8108,138,0,0,0,0,0
483,896,8507,-742,-700,0,0,0,0
484,859,8401,433,0,0,0,0,0
485,918,7936,-822,0,0,0,0,0
486,532,7962,-467,0,0,0,0,0
487,352,7955,11,0,0,0,0,0
488,389,8512,-42,0,0,0,0,0
489,630,8171,455,0,0,0,0,0
490,650,7693,-617,0,0,0,0,0
491,642,8191,14,0,0,0,0,0
492,407,8022,-719,0,0,0,0,0
493,436,7886,290,0,0,0,0,0
494,1062,8276,351,0,0,0,0,0
495,332,7755,-558,0,0,0,0,0
496,872,8237,-396,0,0,0,0,0
497,1026,7968,-544,0,0,0,0,0
498,460,8093,-388,0,0,0,0,0
499,294,8216,-210,0,0,0,0,0
500,912,8382,-818,0,0,0,0,0
501,1192,7938,-747,0,0,0,0,0
502,212,8070,-428,0,0,0,0,0
503,684,7595,-822,0,0,0,0,0
504,1024,8419,89,0,0,0,0,0
505,450,8063,-1056,0,0,0,0,0
506,915,8258,-176,0,0,0,0,0
507,813,7748,-129,0,0,0,0,0
508,90,8446,-1418,0,0,0,0,0
509,1378,7888,-258,0,0,0,0,0
510,761,7678,-729,0,0,0,0,0
511,422,8526,-1189,0,0,0,0,0
512,844,8036,-313,0,0,0,0,0
513,810,8165,-448,0,0,0,0,0
514,512,8160,-937,0,0,0,0,0
515,568,8400,-514,0,0,0,0,0
516,537,8285,-551,0,0,0,0,0
517,666,8168,-999,469,0,0,0,0
518,404,8123,-601,14,0,0,0,0
519,752,8264,-663,0,0,0,0,0
520,772,8168,-606,0,0,0,0,0
521,263,7994,-582,0,0,0,0,0
522,790,8205,-588,0,0,0,0,0
523,486,8075,-484,0,0,0,0,0
524,409,8045,-360,0,0,0,0,0
525,788,8195,-230,647,0,0,0,0
526,776,8142,-112,0,0,0,0,0
527,607,8178,-5,0,0,0,0,0
528,617,8075,23,0,0,0,0,0
529,870,8088,342,0,0,0,0,0
530,826,8118,470,0,0,0,0,0
531,739,8084,471,0,0,0,0,0
532,862,8082,598,0,0,0,0,0
533,842,8056,662,0,0,0,0,0
534,942,8156,903,0,0,0,0,0
535,848,8083,654,0,0,0,0,0
536,872,8082,691,0,0,0,0,0
537,739,8169,792,0,0,0,0,0
538,974,8184,624,0,0,0,0,0
539,910,8086,701,0,0,0,0,0
540,930,8044,852,0,0,0,0,0
541,910,8016,720,0,0,0,0,0
542,872,8185,465,0,0,0,0,0
543,1072,7952,730,0,0,0,0,0
544,993,8152,731,0,0,0,0,0
545,998,8114,920,0,0,0,0,0
546,822,8156,638,0,0,0,0,0
547,1149,7992,326,0,0,0,0,0
548,937,8078,933,0,0,0,0,0
549,1096,8082,536,0,0,0,0,0
550,1024,8049,540,0,0,0,0,0
551,1005,8311,482,0,0,0,0,0
552,1104,8161,556,0,0,0,0,0
553,965,8038,657,239,0,0,0,0
554,1138,8334,428,0,0,0,0,0
555,1208,7884,186,423,0,0,0,0
556,829,7718,246,0,0,0,0,0
557,652,8015,708,286,0,0,0,0
558,962,8269,-112,0,0,0,0,0
559,1040,8255,675,375,0,0,0,0
560,799,7814,406,0,0,0,0,0
561,869,8200,286,337,0,0,0,0
562,838,8344,737,0,0,0,0,0
563,1045,8173,772,358,0,0,0,0
564,556,7725,-200,0,0,0,0,0
565,-68,8146,-75,998,0,0,0,0
566,412,8492,565,0,0,0,0,0
567,236,8178,413,0,0,0,0,0
568,-695,7880,-134,0,0,0,0,0
569,272,8251,570,0,0,0,0,0
570,-352,8444,379,0,0,0,0,0
571,-96,7950,380,992,0,0,0,0
572,390,7864,-131,0,0,0,0,0
573,121,8249,-246,0,0,0,0,0
574,589,7861,436,959,0,0,0,0
575,320,7918,-26,0,0,0,0,0
576,740,8035,696,0,0,0,0,0
577,1132,7748,-181,0,0,0,0,0
578,888,8121,-142,0,0,0,0,0
579,1010,7722,223,0,0,0,0,0
580,1145,8366,885,0,0,0,0,0
581,480,8135,-132,0,0,0,0,0
582,1296,7724,1262,0,0,0,0,0
583,861,8313,323,0,0,0,0,0
584,704,7814,678,0,0,0,0,0
585,1698,8008,908,0,0,0,0,0
586,1347,7538,-81,0,0,0,0,0
587,1294,7924,80,0,0,0,0,0
588,1317,7954,502,0,0,0,0,0
589,1000,7897,870,0,0,0,0,0
590,1598,7790,423,0,0,0,0,0
591,2020,7638,864,0,0,0,0,0
592,2215,8093,-65,0,0,0,0,0
593,1554,8012,567,0,0,0,0,0
594,2850,8062,-257,0,0,0,0,0
595,1414,8313,344,0,0,0,0,0
596,1872,7758,-249,0,0,0,0,0
597,1807,7482,-1151,768,0,0,0,0
598,1886,7022,-814,993,0,0,0,0
599,2141,8134,-882,0,0,0,0,0
600,1947,8182,-766,0,0,0,0,0
601,1880,8070,-572,0,0,0,0,0
602,1422,8009,-541,0,0,0,0,0
603,1959,7465,-1292,0,0,0,0,0
604,1547,7626,-1196,0,0,0,0,0
605,2019,8230,-90,0,0,0,0,0
606,1313,8045,41,0,0,0,0,0
607,1288,8026,81,0,0,0,0,0
608,1281,8049,69,0,0,0,0,0
609,1308,8038,25,0,0,0,0,0
610,1307,8037,-38,0,0,0,0,0
611,1321,8077,24,0,0,0,0,0
612,1309,8078,47,0,0,0,0,0
613,1313,8033,112,0,0,0,0,0
614,1273,8059,54,0,0,0,0,0
615,1284,8021,93,0,0,0,0,0
616,1329,8051,57,0,0,0,0,0
617,1322,8054,-6,0,0,0,0,0
618,1317,8066,-28,0,0,0,0,0
619,1288,8056,-10,0,0,0,0,0
620,1304,8054,52,0,0,0,0,0
621,1316,8042,69,0,0,0,0,0
622,1307,8060,21,0,0,0,0,0
623,1259,8033,67,0,0,0,0,0
624,1315,8022,101,0,0,0,0,0
625,1318,8066,52,0,0,0,0,0
626,1291,8060,69,0,0,0,0,0
627,1294,8046,67,0,0,0,0,0
628,1304,8068,70,0,0,0,0,0
629,1322,8030,4,0,0,0,0,0
630,1340,8050,6,0,0,0,0,0
631,1336,8045,-12,0,0,0,0,0
632,1264,7980,10,0,0,0,0,0
633,1235,8135,-9,0,0,0,0,0
634,1339,8097,38,0,0,0,0,0
635,1342,7995,180,0,0,0,0,0
636,1249,8043,86,0,0,0,0,0
637,1333,8077,98,0,0,0,0,0
638,1374,8042,77,0,0,0,0,0
639,1277,8090,54,0,0,0,0,0
640,1203,8021,81,0,0,0,0,0
641,1354,8123,22,0,0,0,0,0
642,1387,8048,5,0,0,0,0,0
643,1291,7986,-44,0,0,0,0,0
644,1166,8018,-26,0,0,0,0,0
645,1365,8125,45,0,0,0,0,0
646,1427,8053,124,0,0,0,0,0
647,1216,8009,44,0,0,0,0,0
648,1242,8084,110,0,0,0,0,0
649,1356,8072,96,0,0,0,0,0
650,1310,8019,54,0,0,0,0,0
651,1246,8021,-40,0,0,0,0,0
652,1288,8121,-34,0,0,0,0,0
653,1415,8023,100,0,0,0,0,0
654,1314,8017,53,0,0,0,0,0
655,1243,8160,44,0,0,0,0,0
656,1300,7948,-249,0,0,0,0,0
657,1365,8076,6,0,0,0,0,0
658,1313,8030,-9,0,0,0,0,0
659,1259,8006,-19,0,0,0,0,0
660,1300,8092,110,0,0,0,0,0
661,1368,8062,58,0,0,0,0,0
662,1300,8037,114,0,0,0,0,0
663,1212,8012,100,0,0,0,0,0
664,1248,8017,194,0,0,0,0,0
665,1372,8108,31,0,0,0,0,0
666,1328,8038,23,0,0,0,0,0
667,1269,8032,-24,0,0,0,0,0
668,1268,8036,0,0,0,0,0,0
669,1331,8039,88,0,0,0,0,0
670,1326,8026,2,0,0,0,0,0
671,1284,8066,72,0,0,0,0,0
672,1276,8068,31,0,0,0,0,0
673,1320,8032,82,0,0,0,0,0
674,1314,8078,107,0,0,0,0,0
675,1318,8108,144,0,0,0,0,0
676,1258,7946,-241,0,0,0,0,0
677,1328,8104,-10,0,0,0,0,0
678,1364,8022,-48,0,0,0,0,0
679,1268,8017,133,0,0,0,0,0
680,1248,8077,42,0,0,0,0,0
681,1323,8015,80,0,0,0,0,0
682,1284,8060,57,0,0,0,0,0
683,1287,8063,33,0,0,0,0,0
684,1348,8110,7,0,0,0,0,0
685,1362,8023,-4,0,0,0,0,0
686,1280,8008,-47,0,0,0,0,0
687,1270,8052,28,0,0,0,0,0
688,1362,8032,-42,0,0,0,0,0
689,1332,8032,30,0,0,0,0,0
690,1288,8074,-250,0,0,0,0,0
691,1280,8029,161,0,0,0,0,0
692,1348,8054,89,0,0,0,0,0
693,1244,8076,24,0,0,0,0,0
694,1296,8048,82,0,0,0,0,0
695,1315,8008,78,0,0,0,0,0
696,1275,8077,20,0,0,0,0,0
697,1322,8074,30,0,0,0,0,0
698,1315,8012,54,0,0,0,0,0
699,1303,8058,36,0,0,0,0,0
700,1313,8036,48,0,0,0,0,0
701,1278,8074,16,0,0,0,0,0
702,1312,8055,51,0,0,0,0,0
703,1317,8039,37,0,0,0,0,0
704,1290,8030,34,0,0,0,0,0
705,1300,8058,51,0,0,0,0,0
706,1286,8034,78,0,0,0,0,0
707,1308,8039,53,0,0,0,0,0
708,1305,8055,387,0,0,0,0,0
709,1324,8026,344,0,0,0,0,0
710,1275,8050,346,0,0,0,0,0
711,1342,8028,347,0,0,0,0,0
712,1299,8046,370,0,0,0,0,0
713,1332,8037,364,0,0,0,0,0
714,1330,8046,364,0,0,0,0,0
715,1302,8050,383,0,0,0,0,0
716,1306,8030,332,0,0,0,0,0
717,1336,8035,353,0,0,0,0,0
718,1310,8050,373,0,0,0,0,0
719,1323,8050,385,0,0,0,0,0
720,1324,8032,390,0,0,0,0,0
721,1318,8052,387,0,0,0,0,0
722,1320,8044,390,0,0,0,0,0
723,1327,8035,385,0,0,0,0,0
724,1318,8039,372,0,0,0,0,0
725,1310,8050,375,0,0,0,0,0
726,1320,8034,384,0,0,0,0,0
727,1321,8046,387,0,0,0,0,0
728,1318,8053,389,0,0,0,0,0
729,1326,8041,383,0,0,0,0,0
730,1320,8050,381,0,0,0,0,0
731,1324,8060,388,0,0,0,0,0
732,1322,8026,387,0,0,0,0,0
733,1327,8042,376,0,0,0,0,0
734,1316,8044,382,0,0,0,0,0
735,1321,8042,374,0,0,0,0,0
736,1320,8045,375,0,0,0,0,0
737,1318,8049,374,0,0,0,0,0
738,1321,8032,392,0,0,0,0,0
739,1320,8047,386,0,0,0,0,0
740,1326,8052,384,0,0,0,0,0
741,1326,8036,381,0,0,0,0,0
742,1317,8045,374,0,0,0,0,0
743,1323,8038,391,0,0,0,0,0
744,1321,8042,375,0,0,0,0,0
745,1320,8058,387,0,0,0,0,0
746,1324,8056,388,0,0,0,0,0
747,1322,8043,388,0,0,0,0,0
748,1326,8042,384,0,0,0,0,0
749,1326,8035,388,0,0,0,0,0
750,1319,8039,382,0,0,0,0,0
751,1318,8055,383,0,0,0,0,0
752,1318,8042,386,0,0,0,0,0
753,1320,8028,389,0,0,0,0,0
754,1328,8047,365,0,0,0,0,0
755,1317,8044,354,0,0,0,0,0
756,1325,8044,380,0,0,0,0,0
757,1314,8048,392,0,0,0,0,0
758,1316,8040,406,0,0,0,0,0
759,1328,8046,382,0,0,0,0,0
760,1330,8045,372,0,0,0,0,0
761,1320,8043,366,0,0,0,0,0
762,1315,8037,372,0,0,0,0,0
763,1321,8046,382,0,0,0,0,0
764,1325,8042,402,0,0,0,0,0
765,1318,8044,396,0,0,0,0,0
766,1314,8048,375,0,0,0,0,0
767,1325,8028,372,0,0,0,0,0
768,1318,8039,374,0,0,0,0,0
769,1315,8044,383,0,0,0,0,0
770,1322,8034,406,0,0,0,0,0
771,1318,8044,396,0,0,0,0,0
772,1324,8056,394,0,0,0,0,0
773,1314,8031,364,0,0,0,0,0
774,1326,8041,375,0,0,0,0,0
775,1314,8048,385,0,0,0,0,0
776,1319,8044,391,0,0,0,0,0
777,1325,8046,399,0,0,0,0,0
778,1320,8040,380,0,0,0,0,0
779,1316,8038,377,0,0,0,0,0
780,1320,8055,383,0,0,0,0,0
781,1321,8042,386,0,0,0,0,0
782,1320,8036,384,0,0,0,0,0
783,1322,8053,379,0,0,0,0,0
784,1320,8037,378,0,0,0,0,0
785,1319,8042,374,0,0,0,0,0
786,1322,8044,385,0,0,0,0,0
787,1320,8039,389,0,0,0,0,0
788,1322,8050,386,0,0,0,0,0
789,1317,8044,376,0,0,0,0,0
790,1324,8048,379,0,0,0,0,0
791,1327,8033,371,0,0,0,0,0
792,1326,8046,388,0,0,0,0,0
793,1314,8045,387,0,0,0,0,0
794,1327,8048,371,0,0,0,0,0
795,1321,8040,398,0,0,0,0,0
796,1312,8047,397,0,0,0,0,0
797,1319,8039,346,0,0,0,0,0
798,1322,8045,372,0,0,0,0,0
799,1312,8034,397,0,0,0,0,0
800,1311,8052,388,0,0,0,0,0
801,1357,8091,358,0,0,0,0,0
802,1323,8072,449,0,0,0,0,0
803,1330,8037,438,0,0,0,0,0
804,1358,8076,430,0,0,0,0,0
805,1303,8062,401,0,0,0,0,0
806,1299,8057,392,0,0,0,0,0
807,1342,8044,379,0,0,0,0,0
808,1321,8033,387,0,0,0,0,0
809,1296,8034,374,0,0,0,0,0
810,1327,8056,382,0,0,0,0,0
811,1329,8044,384,0,0,0,0,0
812,1305,8032,388,0,0,0,0,0
813,1320,8046,376,0,0,0,0,0
814,1338,8044,372,0,0,0,0,0
815,1311,8040,381,0,0,0,0,0
816,1322,8039,397,0,0,0,0,0
817,1333,8030,391,0,0,0,0,0
818,1316,8044,379,0,0,0,0,0
819,1314,8042,384,0,0,0,0,0
820,1323,8039,375,0,0,0,0,0
821,1318,8047,388,0,0,0,0,0
822,1310,8039,384,0,0,0,0,0
823,1328,8036,387,0,0,0,0,0
824,1325,8040,375,0,0,0,0,0
825,1311,8044,385,0,0,0,0,0
826,1325,8033,383,0,0,0,0,0
827,1329,8045,382,0,0,0,0,0
828,1322,8048,390,0,0,0,0,0
829,1321,8045,388,0,0,0,0,0
830,1326,8048,380,0,0,0,0,0
831,1326,8044,379,0,0,0,0,0
832,1318,8054,412,0,0,0,0,0
833,1330,8042,392,0,0,0,0,0
834,1327,8034,357,0,0,0,0,0
835,1318,8044,374,0,0,0,0,0
836,1320,8037,393,0,0,0,0,0
837,1322,8039,392,0,0,0,0,0
838,1317,8041,382,0,0,0,0,0
839,1316,8053,380,0,0,0,0,0
840,1320,8038,378,0,0,0,0,0
841,1308,8034,383,0,0,0,0,0
842,1321,8050,382,0,0,0,0,0
843,1328,8040,386,0,0,0,0,0
844,1324,8041,370,0,0,0,0,0
845,1314,8050,379,0,0,0,0,0
846,1310,8033,372,0,0,0,0,0
847,1323,8046,398,0,0,0,0,0
848,1326,8052,393,0,0,0,0,0
849,1320,8039,370,0,0,0,0,0
850,1318,8032,374,0,0,0,0,0
851,1326,8069,382,0,0,0,0,0
852,1322,8048,387,0,0,0,0,0
853,1310,8033,381,0,0,0,0,0
854,1325,8061,389,0,0,0,0,0
855,1329,8033,397,0,0,0,0,0
856,1311,8046,375,0,0,0,0,0
857,1316,8042,382,0,0,0,0,0
858,1328,8042,392,0,0,0,0,0
859,1320,8050,395,0,0,0,0,0
860,1328,8042,376,0,0,0,0,0
861,1327,8044,392,0,0,0,0,0
862,1325,8044,379,0,0,0,0,0
863,1326,8047,377,0,0,0,0,0
864,1337,8034,383,0,0,0,0,0
865,1316,8041,380,0,0,0,0,0
866,1324,8042,384,0,0,0,0,0
867,1324,8044,374,0,0,0,0,0
868,1316,8027,380,0,0,0,0,0
869,1317,8049,386,0,0,0,0,0
870,1320,8050,393,0,0,0,0,0
871,1314,8042,378,0,0,0,0,0
872,1321,8036,372,0,0,0,0,0
873,1334,8046,382,0,0,0,0,0
874,1311,8045,393,0,0,0,0,0
875,1308,8032,384,0,0,0,0,0
876,1321,8047,382,0,0,0,0,0
877,1330,8037,374,0,0,0,0,0
878,1307,8038,368,0,0,0,0,0
879,1323,8039,389,0,0,0,0,0
880,1322,8048,371,0,0,0,0,0
881,1323,8028,395,0,0,0,0,0
882,1315,8047,384,0,0,0,0,0
883,1312,8045,384,0,0,0,0,0
884,1319,8038,363,0,0,0,0,0
885,1322,8044,384,0,0,0,0,0
886,1336,8040,388,0,0,0,0,0
887,1310,8038,388,0,0,0,0,0
888,1313,8028,362,0,0,0,0,0
889,1314,8050,383,0,0,0,0,0
890,1330,8038,396,0,0,0,0,0
891,1307,8039,372,0,0,0,0,0
892,1321,8052,381,0,0,0,0,0
893,1317,8035,384,0,0,0,0,0
894,1314,8043,385,0,0,0,0,0
895,1318,8056,382,0,0,0,0,0
896,1329,8022,370,0,0,0,0,0
897,1314,8033,376,0,0,0,0,0
898,1310,8050,380,0,0,0,0,0
899,1316,8032,383,0,0,0,0,0
900,1317,8054,379,0,0,0,0,0
901,1320,8042,383,0,0,0,0,0
902,1316,8030,379,0,0,0,0,0
903,1328,8046,380,0,0,0,0,0
904,1312,8034,382,0,0,0,0,0
905,1316,8041,393,0,0,0,0,0
906,1324,8048,376,0,0,0,0,0
907,1312,8035,382,0,0,0,0,0
908,1327,8050,375,0,0,0,0,0
909,1316,8037,371,0,0,0,0,0
910,1328,8038,390,0,0,0,0,0
911,1320,8044,394,0,0,0,0,0
912,1323,8039,402,0,0,0,0,0
913,1316,8050,391,0,0,0,0,0
914,1310,8053,356,0,0,0,0,0
915,1318,8032,370,0,0,0,0,0
916,1328,8045,382,0,0,0,0,0
917,1307,8046,378,0,0,0,0,0
918,1333,8032,379,0,0,0,0,0
919,1324,8046,385,0,0,0,0,0
920,1323,8050,391,0,0,0,0,0
921,1310,8036,368,0,0,0,0,0
922,1314,8035,377,0,0,0,0,0
923,1312,8042,377,0,0,0,0,0
924,1326,8046,382,0,0,0,0,0
925,1323,8046,380,0,0,0,0,0
926,1310,8041,368,0,0,0,0,0
927,1326,8042,392,0,0,0,0,0
928,1319,8044,386,0,0,0,0,0
929,1312,8049,393,0,0,0,0,0
930,1312,8026,377,0,0,0,0,0
931,1335,8044,387,0,0,0,0,0
932,1313,8052,378,0,0,0,0,0
933,1316,8032,378,0,0,0,0,0
934,1333,8054,386,0,0,0,0,0
935,1319,8050,387,0,0,0,0,0
936,1331,8030,394,0,0,0,0,0
937,1322,8049,362,0,0,0,0,0
938,1322,8054,382,0,0,0,0,0
939,1323,8032,365,0,0,0,0,0
940,1320,8056,404,0,0,0,0,0
941,1312,8038,390,0,0,0,0,0
942,1322,8043,386,0,0,0,0,0
943,1323,8046,393,0,0,0,0,0
944,1331,8046,396,0,0,0,0,0
945,1307,8030,366,0,0,0,0,0
946,1326,8055,365,0,0,0,0,0
947,1319,8025,379,0,0,0,0,0
948,1297,8044,402,0,0,0,0,0
949,1329,8048,393,0,0,0,0,0
950,1325,8039,366,0,0,0,0,0
951,1316,8031,380,0,0,0,0,0
952,1311,8038,381,0,0,0,0,0
953,1316,8047,378,0,0,0,0,0
954,1331,8025,394,0,0,0,0,0
955,1311,8058,390,0,0,0,0,0
956,1331,8041,378,0,0,0,0,0
957,1308,8015,358,0,0,0,0,0
958,1329,8058,372,0,0,0,0,0
959,1318,8043,374,0,0,0,0,0
960,1330,8034,392,0,0,0,0,0
961,1325,8048,382,0,0,0,0,0
962,1319,8049,386,0,0,0,0,0
963,1314,8054,378,0,0,0,0,0
964,1322,8044,366,0,0,0,0,0
965,1314,8038,389,0,0,0,0,0
966,1326,8046,379,0,0,0,0,0
967,1314,8028,376,0,0,0,0,0
968,1313,8049,380,0,0,0,0,0
969,1314,8049,377,0,0,0,0,0
970,1323,8030,374,0,0,0,0,0
971,1322,8046,377,0,0,0,0,0
972,1318,8044,396,0,0,0,0,0
973,1323,8039,394,0,0,0,0,0
974,1326,8048,384,0,0,0,0,0
975,1312,8040,370,0,0,0,0,0
976,1315,8034,366,0,0,0,0,0
977,1326,8047,397,0,0,0,0,0
978,1313,8032,390,0,0,0,0,0
979,1321,8046,375,0,0,0,0,0
980,1316,8048,370,0,0,0,0,0
981,1323,8036,384,0,0,0,0,0
982,1312,8048,387,0,0,0,0,0
983,1320,8046,382,0,0,0,0,0
984,1314,8041,380,0,0,0,0,0
985,1323,8049,376,0,0,0,0,0
986,1321,8038,367,0,0,0,0,0
987,1317,8048,370,0,0,0,0,0
988,1318,8046,391,0,0,0,0,0
989,1318,8041,387,0,0,0,0,0
990,1321,8047,380,0,0,0,0,0
991,1321,8042,379,0,0,0,0,0
992,1318,8051,386,0,0,0,0,0
993,1327,8050,381,0,0,0,0,0
994,1322,8037,380,0,0,0,0,0
995,1328,8039,384,0,0,0,0,0
996,1318,8045,372,0,0,0,0,0
997,1320,8043,375,0,0,0,0,0
998,1323,8043,374,0,0,0,0,0
999,1316,8043,373,0,0,0,0,0
1000,688,7876,1017,0,0,0,0,0
1001,1198,7613,988,1201,0,0,0,0
1002,1152,8182,1602,0,0,0,0,0
1003,1188,8787,938,1230,0,0,0,0
1004,1258,7054,793,0,0,0,0,0
1005,1327,8153,1772,1278,0,0,0,0
1006,700,7492,380,0,0,0,0,0
1007,1452,7535,1449,1273,0,0,0,0
1008,1250,8397,630,0,0,0,0,0
1009,1530,8001,1729,0,0,0,0,0
1010,1078,7826,812,0,0,0,0,0
1011,1198,9140,1261,0,0,0,0,0
1012,629,8041,1124,0,0,0,0,0
1013,1042,6923,725,0,0,0,0,0
1014,1318,6984,2521,0,0,0,0,0
1015,1515,10365,3050,0,0,0,0,0
1016,1143,7943,955,0,0,0,0,0
1017,1098,7364,1006,1253,0,0,0,0
1018,647,7470,672,0,0,0,0,0
1019,1086,8207,250,1255,0,0,0,0
1020,1142,9026,385,0,0,0,0,0
1021,1782,8538,915,0,0,0,0,0
1022,1003,7501,1256,0,0,0,0,0
1023,626,7536,785,0,0,0,0,0
1024,1122,7616,824,0,0,0,0,0
1025,1148,7830,1940,0,0,0,0,0
1026,956,8080,218,0,0,0,0,0
1027,651,7682,1703,0,0,0,0,0
1028,1500,8950,1895,0,0,0,0,0
1029,2156,8549,2009,0,0,0,0,0
1030,1458,8256,1262,0,0,0,0,0
1031,1124,8214,640,0,0,0,0,0
1032,1373,7978,1766,0,0,0,0,0
1033,467,8559,700,0,0,0,0,0
1034,648,8238,608,0,0,0,0,0
1035,2026,9351,1122,0,0,0,0,0
1036,972,7037,-356,0,0,0,0,0
1037,1426,8245,2393,0,0,0,0,0
1038,928,8265,1216,0,0,0,0,0
1039,1011,8464,1190,0,0,0,0,0
1040,1265,7733,29,0,0,0,0,0
1041,1332,7871,1734,0,0,0,0,0
1042,1170,7057,1035,0,0,0,0,0
1043,1110,8449,1603,0,0,0,0,0
1044,2221,8086,-9,0,0,0,0,0
1045,1457,8836,1377,0,0,0,0,0
1046,1182,7058,-527,1936,0,0,0,0
1047,1442,9111,1072,0,0,0,0,0
1048,1664,7818,1822,1276,0,0,0,0
1049,-28,9060,962,0,0,0,0,0
1050,1120,7656,995,1993,0,0,0,0
1051,1153,8819,1892,0,0,0,0,0
1052,1885,7574,985,1278,0,0,0,0
1053,516,7095,640,0,0,0,0,0
1054,754,7840,706,1282,0,0,0,0
1055,-25,7596,-452,1282,0,0,0,0
1056,1141,8647,2619,0,0,0,0,0
1057,1198,9062,761,0,0,0,0,0
1058,1644,10268,682,0,0,0,0,0
1059,2208,8480,1736,0,0,0,0,0
1060,1532,8114,1551,0,0,0,0,0
1061,1144,7280,-278,0,0,0,0,0
1062,1240,9153,756,0,0,0,0,0
1063,1426,8478,832,0,0,0,0,0
1064,2185,7869,2892,0,0,0,0,0
1065,1882,8114,492,0,0,0,0,0
1066,2336,8621,1491,0,0,0,0,0
1067,1477,8356,2546,0,0,0,0,0
1068,1164,7888,1005,0,0,0,0,0
1069,1540,8203,-41,0,0,0,0,0
1070,626,7882,2221,0,0,0,0,0
1071,1612,6596,585,0,0,0,0,0
1072,1734,8443,-364,0,0,0,0,0
1073,276,7241,1500,0,0,0,0,0
1074,1703,7514,2002,0,0,0,0,0
1075,494,8443,458,0,0,0,0,0
1076,2109,9564,3077,0,0,0,0,0
1077,1718,7158,507,1285,0,0,0,0
1078,2002,7306,-726,2543,0,0,0,0
1079,1332,8914,1704,0,0,0,0,0
1080,2075,8516,145,2567,0,0,0,0
1081,1824,6717,1238,0,0,0,0,0
1082,1232,7251,1066,2592,0,0,0,0
1083,694,7953,-855,0,0,0,0,0
1084,1377,8131,797,793,0,0,0,0
1085,2892,9054,2164,0,0,0,0,0
1086,1348,6624,-493,792,0,0,0,0
1087,1050,8517,1592,0,0,0,0,0
1088,2544,7752,383,0,0,0,0,0
1089,734,8145,1552,0,0,0,0,0
1090,1800,7842,814,0,0,0,0,0
1091,2456,9270,774,0,0,0,0,0
1092,2110,7648,1728,0,0,0,0,0
1093,1601,8442,1737,0,0,0,0,0
1094,1146,7782,-88,0,0,0,0,0
1095,1794,9696,1896,0,0,0,0,0
1096,1204,7038,3100,0,0,0,0,0
1097,1716,9049,1220,0,0,0,0,0
1098,1614,7799,440,0,0,0,0,0
1099,2098,7077,-455,0,0,0,0,0
1100,1051,7174,-549,0,0,0,0,0
1101,1444,7919,-216,0,0,0,0,0
1102,2155,8417,2345,2904,0,0,0,0
1103,2332,9527,2767,0,0,0,0,0
1104,720,6869,266,0,0,0,0,0
1105,887,8169,1592,0,0,0,0,0
1106,1481,9106,2294,0,0,0,0,0
1107,2368,8956,1982,0,0,0,0,0
1108,2643,8252,1657,0,0,0,0,0
1109,1600,8091,-1746,1294,0,0,0,0
1110,3007,8542,-5202,0,0,0,0,0
1111,1431,8029,202,0,0,0,0,0
1112,1430,8026,203,0,0,0,0,0
1113,1427,7991,205,0,0,0,0,0
1114,1435,8021,239,0,0,0,0,0
1115,1437,8002,216,0,0,0,0,0
1116,1438,8038,233,0,0,0,0,0
1117,1430,8036,236,0,0,0,0,0
1118,1443,8015,217,0,0,0,0,0
1119,1434,8036,224,0,0,0,0,0
1120,1447,8029,178,0,0,0,0,0
1121,1443,8024,235,0,0,0,0,0
1122,1438,8026,214,0,0,0,0,0
1123,1437,8031,224,0,0,0,0,0
1124,1439,8019,213,0,0,0,0,0
1125,1430,8022,227,0,0,0,0,0
1126,1434,8027,216,0,0,0,0,0
1127,1435,8021,225,0,0,0,0,0
1128,1441,8031,229,0,0,0,0,0
1129,1460,8071,168,0,0,0,0,0
1130,1422,8044,227,0,0,0,0,0
1131,1430,8034,236,0,0,0,0,0
1132,1466,8014,256,0,0,0,0,0
1133,1467,8024,230,0,0,0,0,0
1134,1418,8036,206,0,0,0,0,0
1135,1400,8002,242,0,0,0,0,0
1136,1461,8046,265,0,0,0,0,0
1137,1442,8032,227,0,0,0,0,0
1138,1450,8033,236,0,0,0,0,0
1139,1436,8017,196,0,0,0,0,0
1140,1452,8029,242,0,0,0,0,0
1141,1434,8024,203,0,0,0,0,0
1142,1475,8021,288,0,0,0,0,0
1143,1460,8025,315,0,0,0,0,0
1144,1453,8031,186,0,0,0,0,0
1145,1472,8024,264,0,0,0,0,0
1146,1426,8028,257,0,0,0,0,0
1147,1435,8020,206,0,0,0,0,0
1148,1447,8018,206,0,0,0,0,0
1149,1437,8016,288,0,0,0,0,0
1150,1443,8055,273,0,0,0,0,0
1151,1454,8024,188,0,0,0,0,0
1152,1446,8022,216,0,0,0,0,0
1153,1420,8006,207,0,0,0,0,0
1154,1448,8037,268,0,0,0,0,0
1155,1453,8040,244,0,0,0,0,0
1156,1414,8016,222,0,0,0,0,0
1157,1434,8022,204,0,0,0,0,0
1158,1448,8014,234,0,0,0,0,0
1159,1449,8046,280,0,0,0,0,0
1160,1448,8010,204,0,0,0,0,0
1161,1466,8025,280,0,0,0,0,0
1162,1417,7992,202,0,0,0,0,0
1163,1464,8032,225,0,0,0,0,0
1164,1449,8018,200,0,0,0,0,0
1165,1450,8034,264,0,0,0,0,0
1166,1431,8013,227,0,0,0,0,0
1167,1452,8037,214,0,0,0,0,0
1168,1456,8034,243,0,0,0,0,0
1169,1425,8025,253,0,0,0,0,0
1170,1438,8031,209,0,0,0,0,0
1171,1439,8020,220,0,0,0,0,0
1172,1431,8024,234,0,0,0,0,0
1173,1442,8039,234,0,0,0,0,0
1174,1436,8008,231,0,0,0,0,0
1175,1446,8008,228,0,0,0,0,0
1176,1451,8031,236,0,0,0,0,0
1177,1431,8017,230,0,0,0,0,0
1178,1432,8026,230,0,0,0,0,0
1179,1445,8030,235,0,0,0,0,0
1180,1434,8013,222,0,0,0,0,0
1181,1433,8035,232,0,0,0,0,0
1182,1438,8020,222,0,0,0,0,0
1183,1448,8012,243,0,0,0,0,0
1184,1442,8037,242,0,0,0,0,0
1185,1428,8035,235,0,0,0,0,0
1186,1431,8010,219,0,0,0,0,0
1187,1448,8027,226,0,0,0,0,0
1188,1438,8023,228,0,0,0,0,0
1189,1444,8023,242,0,0,0,0,0
1190,1446,8038,228,0,0,0,0,0
1191,1441,8018,237,0,0,0,0,0
1192,1438,8035,229,0,0,0,0,0
1193,1444,8028,228,0,0,0,0,0
1194,1432,8024,244,0,0,0,0,0
1195,1441,8023,232,0,0,0,0,0
1196,1437,8026,219,0,0,0,0,0
1197,1448,8023,243,0,0,0,0,0
1198,1428,8023,224,0,0,0,0,0
1199,1447,8024,235,0,0,0,0,0
1200,1434,8022,222,0,0,0,0,0
1201,1448,8030,242,0,0,0,0,0
1202,1424,8018,222,0,0,0,0,0
1203,1445,8028,239,0,0,0,0,0
1204,1431,8026,216,0,0,0,0,0
1205,1458,8026,237,0,0,0,0,0
1206,1441,8034,201,0,0,0,0,0
1207,1439,8030,254,0,0,0,0,0
1208,1432,8024,224,0,0,0,0,0
1209,1441,8019,220,0,0,0,0,0
1210,1430,8021,230,0,0,0,0,0
1211,1442,8020,233,0,0,0,0,0
1212,1442,8035,228,0,0,0,0,0
1213,1438,8024,220,0,0,0,0,0
1214,1438,8024,245,0,0,0,0,0
1215,1441,8024,246,0,0,0,0,0
1216,1431,8035,240,0,0,0,0,0
1217,1444,8030,232,0,0,0,0,0
1218,1452,8024,237,0,0,0,0,0
1219,1447,8014,218,0,0,0,0,0
1220,1428,8031,204,0,0,0,0,0
1221,1440,8054,283,0,0,0,0,0
1222,1434,8020,250,0,0,0,0,0
1223,1451,8034,230,0,0,0,0,0
1224,1441,8047,255,0,0,0,0,0
1225,1437,8018,272,0,0,0,0,0
1226,1448,8022,215,0,0,0,0,0
1227,1436,8018,206,0,0,0,0,0
1228,1446,8020,248,0,0,0,0,0
1229,1447,8023,246,0,0,0,0,0
1230,1435,8026,210,0,0,0,0,0
1231,1445,8018,238,0,0,0,0,0
1232,1426,8000,181,0,0,0,0,0
1233,1442,8037,280,0,0,0,0,0
1234,1436,8032,271,0,0,0,0,0
1235,1450,8035,181,0,0,0,0,0
1236,1432,8017,204,0,0,0,0,0
1237,1446,8049,273,0,0,0,0,0
1238,1442,8022,220,0,0,0,0,0
1239,1442,8027,213,0,0,0,0,0
1240,1447,8035,265,0,0,0,0,0
1241,1423,8022,221,0,0,0,0,0
1242,1432,8010,220,0,0,0,0,0
1243,1441,8030,258,0,0,0,0,0
1244,1453,8041,222,0,0,0,0,0
1245,1426,8025,197,0,0,0,0,0
1246,1424,8012,263,0,0,0,0,0
1247,1449,8034,254,0,0,0,0,0
1248,1451,8012,185,0,0,0,0,0
1249,1414,8019,229,0,0,0,0,0
1250,1456,8034,230,0,0,0,0,0
1251,1430,8010,212,0,0,0,0,0
1252,1440,8032,230,0,0,0,0,0
1253,1443,8043,243,0,0,0,0,0
1254,1443,8010,226,0,0,0,0,0
1255,1428,8018,214,0,0,0,0,0
1256,1450,8043,242,0,0,0,0,0
1257,1451,8020,238,0,0,0,0,0
1258,1436,8030,221,0,0,0,0,0
1259,1432,8029,225,0,0,0,0,0
1260,1446,8022,240,0,0,0,0,0
1261,1447,8028,239,0,0,0,0,0
1262,1443,8030,237,0,0,0,0,0
1263,1445,8028,242,0,0,0,0,0
1264,1432,8016,233,0,0,0,0,0
1265,1433,8021,220,0,0,0,0,0
1266,1449,8030,236,0,0,0,0,0
1267,1444,8026,236,0,0,0,0,0
1268,1428,8024,232,0,0,0,0,0
1269,1446,8015,228,0,0,0,0,0
1270,1459,8047,240,0,0,0,0,0
1271,1432,7994,228,0,0,0,0,0
1272,1439,8017,246,0,0,0,0,0
1273,1454,8039,223,0,0,0,0,0
1274,1445,8009,242,0,0,0,0,0
1275,1452,8044,216,0,0,0,0,0
1276,1445,8068,205,0,0,0,0,0
1277,1449,7989,253,0,0,0,0,0
1278,1474,8049,244,0,0,0,0,0
1279,1436,8018,232,0,0,0,0,0
1280,1407,8009,219,0,0,0,0,0
1281,1486,8068,253,0,0,0,0,0
1282,1450,7992,270,0,0,0,0,0
1283,1390,8025,218,0,0,0,0,0
1284,1426,7968,233,0,0,0,0,0
1285,1442,8054,204,0,0,0,0,0
1286,1432,8038,272,0,0,0,0,0
1287,1416,8012,176,0,0,0,0,0
1288,1439,8022,194,0,0,0,0,0
1289,1432,8059,254,0,0,0,0,0
1290,1403,8003,199,0,0,0,0,0
1291,1451,8040,232,0,0,0,0,0
1292,1429,8044,263,0,0,0,0,0
1293,1430,8040,202,0,0,0,0,0
1294,1419,8014,174,0,0,0,0,0
1295,1427,8025,247,0,0,0,0,0
1296,1432,8011,196,0,0,0,0,0
1297,1428,8016,199,0,0,0,0,0
1298,1424,8014,251,0,0,0,0,0
1299,1454,8016,193,0,0,0,0,0
1300,1443,8044,237,0,0,0,0,0
1301,1433,8012,232,0,0,0,0,0
1302,1446,8036,222,0,0,0,0,0
1303,1442,8021,216,0,0,0,0,0
1304,1424,8017,208,0,0,0,0,0
1305,1451,8022,238,0,0,0,0,0
1306,1445,8023,223,0,0,0,0,0
1307,1420,8022,243,0,0,0,0,0
1308,1429,8026,202,0,0,0,0,0
1309,1452,8007,226,0,0,0,0,0
1310,1452,8030,250,0,0,0,0,0
1311,1438,8025,214,0,0,0,0,0
1312,1422,8030,216,0,0,0,0,0
1313,1442,8034,226,0,0,0,0,0
1314,1436,8017,238,0,0,0,0,0
1315,1434,8022,237,0,0,0,0,0
1316,1453,8033,206,0,0,0,0,0
1317,1464,8013,232,0,0,0,0,0
1318,1414,8030,238,0,0,0,0,0
1319,1421,8030,260,0,0,0,0,0
1320,1444,8032,199,0,0,0,0,0
1321,916,8073,452,0,0,0,0,0
1322,902,8088,446,0,0,0,0,0
1323,897,8138,549,0,0,0,0,0
1324,910,8088,508,0,0,0,0,0
1325,890,8088,512,0,0,0,0,0
1326,885,8091,519,0,0,0,0,0
1327,905,8097,513,0,0,0,0,0
1328,891,8073,491,0,0,0,0,0
1329,888,8089,454,0,0,0,0,0
1330,861,8096,544,0,0,0,0,0
1331,923,8084,506,0,0,0,0,0
1332,913,8096,566,0,0,0,0,0
1333,864,8094,543,0,0,0,0,0
1334,906,8092,520,0,0,0,0,0
1335,921,8114,542,0,0,0,0,0
1336,885,8088,539,0,0,0,0,0
1337,878,8087,527,0,0,0,0,0
1338,910,8091,523,0,0,0,0,0
1339,911,8094,524,0,0,0,0,0
1340,885,8090,545,0,0,0,0,0
1341,890,8099,527,0,0,0,0,0
1342,913,8094,544,0,0,0,0,0
1343,897,8089,530,0,0,0,0,0
1344,887,8105,536,0,0,0,0,0
1345,906,8090,529,0,0,0,0,0
1346,900,8111,536,0,0,0,0,0
1347,886,8090,536,0,0,0,0,0
1348,898,8099,526,0,0,0,0,0
1349,907,8105,520,0,0,0,0,0
1350,876,8091,543,0,0,0,0,0
1351,896,8091,541,0,0,0,0,0
1352,908,8097,527,0,0,0,0,0
1353,897,8082,521,0,0,0,0,0
1354,885,8100,527,0,0,0,0,0
1355,898,8097,542,0,0,0,0,0
1356,902,8087,519,0,0,0,0,0
1357,887,8098,515,0,0,0,0,0
1358,895,8094,523,0,0,0,0,0
1359,896,8084,527,0,0,0,0,0
1360,894,8095,535,0,0,0,0,0
1361,894,8108,548,0,0,0,0,0
1362,900,8086,522,0,0,0,0,0
1363,893,8084,527,0,0,0,0,0
1364,893,8102,544,0,0,0,0,0
1365,898,8101,538,0,0,0,0,0
1366,892,8085,524,0,0,0,0,0
1367,893,8100,530,0,0,0,0,0
1368,898,8095,520,0,0,0,0,0
1369,902,8081,538,0,0,0,0,0
1370,901,8101,526,0,0,0,0,0
1371,891,8091,520,0,0,0,0,0
1372,895,8090,525,0,0,0,0,0
1373,892,8103,544,0,0,0,0,0
1374,891,8091,530,0,0,0,0,0
1375,889,8082,520,0,0,0,0,0
1376,897,8100,540,0,0,0,0,0
1377,889,8090,540,0,0,0,0,0
1378,900,8089,528,0,0,0,0,0
1379,891,8106,528,0,0,0,0,0
1380,890,8085,536,0,0,0,0,0
1381,888,8089,534,0,0,0,0,0
1382,871,8103,574,0,0,0,0,0
1383,877,8087,526,0,0,0,0,0
1384,901,8099,537,0,0,0,0,0
1385,909,8097,522,0,0,0,0,0
1386,887,8100,546,0,0,0,0,0
1387,889,8078,520,0,0,0,0,0
1388,906,8097,536,0,0,0,0,0
1389,889,8099,530,0,0,0,0,0
1390,885,8094,537,0,0,0,0,0
1391,907,8093,520,0,0,0,0,0
1392,904,8099,534,0,0,0,0,0
1393,884,8091,528,0,0,0,0,0
1394,900,8086,531,0,0,0,0,0
1395,910,8105,528,0,0,0,0,0
1396,890,8089,530,0,0,0,0,0
1397,894,8102,534,0,0,0,0,0
1398,902,8093,525,0,0,0,0,0
1399,902,8090,534,0,0,0,0,0
1400,896,8110,529,0,0,0,0,0
1401,890,8082,525,0,0,0,0,0
1402,898,8089,530,0,0,0,0,0
1403,893,8099,521,0,0,0,0,0
1404,897,8094,528,0,0,0,0,0
1405,908,8102,526,0,0,0,0,0
1406,889,8098,549,0,0,0,0,0
1407,885,8080,508,0,0,0,0,0
1408,896,8090,500,0,0,0,0,0
1409,897,8108,548,0,0,0,0,0
1410,901,8094,601,0,0,0,0,0
1411,881,8075,488,0,0,0,0,0
1412,904,8100,490,0,0,0,0,0
1413,896,8100,563,0,0,0,0,0
1414,902,8081,536,0,0,0,0,0
1415,901,8098,533,0,0,0,0,0
1416,886,8101,528,0,0,0,0,0
1417,901,8066,488,0,0,0,0,0
1418,905,8108,556,0,0,0,0,0
1419,896,8114,555,0,0,0,0,0
1420,878,8081,483,0,0,0,0,0
1421,892,8087,510,0,0,0,0,0
1422,905,8106,546,0,0,0,0,0
1423,897,8089,542,0,0,0,0,0
1424,900,8100,501,0,0,0,0,0
1425,897,8095,532,0,0,0,0,0
1426,883,8092,551,0,0,0,0,0
1427,895,8105,527,0,0,0,0,0
1428,903,8095,493,0,0,0,0,0
1429,906,8090,542,0,0,0,0,0
1430,891,8095,547,0,0,0,0,0
1431,897,8092,522,0,0,0,0,0
1432,902,8092,521,0,0,0,0,0
1433,895,8089,534,0,0,0,0,0
1434,903,8090,532,0,0,0,0,0
1435,896,8089,535,0,0,0,0,0
1436,894,8097,510,0,0,0,0,0
1437,901,8089,526,0,0,0,0,0
1438,891,8106,532,0,0,0,0,0
1439,899,8096,528,0,0,0,0,0
1440,898,8084,528,0,0,0,0,0
1441,891,8114,534,0,0,0,0,0
1442,894,8097,518,0,0,0,0,0
1443,904,8090,532,0,0,0,0,0
1444,899,8105,532,0,0,0,0,0
1445,890,8090,527,0,0,0,0,0
1446,905,8081,532,0,0,0,0,0
1447,900,8099,544,0,0,0,0,0
1448,890,8101,537,0,0,0,0,0
1449,898,8093,516,0,0,0,0,0
1450,904,8096,530,0,0,0,0,0
1451,893,8097,547,0,0,0,0,0
1452,896,8087,520,0,0,0,0,0
1453,902,8100,531,0,0,0,0,0
1454,890,8092,530,0,0,0,0,0
1455,894,8100,530,0,0,0,0,0
1456,902,8084,526,0,0,0,0,0
1457,890,8087,526,0,0,0,0,0
1458,895,8106,526,0,0,0,0,0
1459,904,8084,528,0,0,0,0,0
1460,902,8106,563,0,0,0,0,0
1461,909,8089,515,0,0,0,0,0
1462,883,8082,518,0,0,0,0,0
1463,875,8105,545,0,0,0,0,0
1464,911,8086,532,0,0,0,0,0
1465,894,8084,534,0,0,0,0,0
1466,894,8098,525,0,0,0,0,0
1467,904,8085,528,0,0,0,0,0
1468,885,8093,529,0,0,0,0,0
1469,888,8089,530,0,0,0,0,0
1470,904,8106,519,0,0,0,0,0
1471,896,8099,532,0,0,0,0,0
1472,888,8086,519,0,0,0,0,0
1473,892,8089,523,0,0,0,0,0
1474,894,8106,539,0,0,0,0,0
1475,884,8091,510,0,0,0,0,0
1476,902,8089,516,0,0,0,0,0
1477,892,8109,544,0,0,0,0,0
1478,895,8068,524,0,0,0,0,0
1479,896,8093,534,0,0,0,0,0
1480,898,8099,528,0,0,0,0,0
1481,895,8080,534,0,0,0,0,0
1482,895,8094,556,0,0,0,0,0
1483,895,8106,521,0,0,0,0,0
1484,893,8068,509,0,0,0,0,0
1485,900,8107,536,0,0,0,0,0
1486,898,8098,540,0,0,0,0,0
1487,894,8088,521,0,0,0,0,0
1488,899,8100,513,0,0,0,0,0
1489,897,8098,530,0,0,0,0,0
1490,896,8087,548,0,0,0,0,0
1491,896,8097,529,0,0,0,0,0
1492,884,8082,505,0,0,0,0,0
1493,904,8102,546,0,0,0,0,0
1494,892,8093,544,0,0,0,0,0
1495,886,8085,527,0,0,0,0,0
1496,902,8088,508,0,0,0,0,0
1497,890,8092,524,0,0,0,0,0
1498,896,8098,535,0,0,0,0,0
1499,890,8095,528,0,0,0,0,0
1500,900,8088,532,0,0,0,0,0
1501,888,8100,521,0,0,0,0,0
1502,890,8092,534,0,0,0,0,0
1503,912,8090,507,0,0,0,0,0
1504,894,8090,540,0,0,0,0,0
1505,889,8094,527,0,0,0,0,0
1506,906,8100,502,0,0,0,0,0
1507,890,8092,543,0,0,0,0,0
1508,900,8100,519,0,0,0,0,0
1509,900,8086,522,0,0,0,0,0
1510,895,8108,545,0,0,0,0,0
1511,896,8073,525,0,0,0,0,0
1512,905,8107,522,0,0,0,0,0
1513,892,8105,548,0,0,0,0,0
1514,892,8083,528,0,0,0,0,0
1515,894,8097,520,0,0,0,0,0
1516,900,8102,533,0,0,0,0,0
1517,900,8080,533,0,0,0,0,0
1518,888,8088,534,0,0,0,0,0
1519,898,8103,532,0,0,0,0,0
1520,896,8100,526,0,0,0,0,0
1521,896,8096,521,0,0,0,0,0
1522,891,8100,531,0,0,0,0,0
1523,895,8103,530,0,0,0,0,0
1524,898,8101,525,0,0,0,0,0
1525,896,8092,534,0,0,0,0,0
1526,900,8085,526,0,0,0,0,0
1527,904,8108,524,0,0,0,0,0
1528,884,8089,528,0,0,0,0,0
1529,888,8080,546,0,0,0,0,0
1530,890,8098,530,0,0,0,0,0
1531,892,8091,521,0,0,0,0,0
1532,892,8088,530,0,0,0,0,0
1533,900,8092,534,0,0,0,0,0
1534,893,8092,539,0,0,0,0,0
1535,890,8091,517,0,0,0,0,0
1536,903,8095,538,0,0,0,0,0
1537,891,8092,535,0,0,0,0,0
1538,894,8094,531,0,0,0,0,0
1539,903,8094,541,0,0,0,0,0
1540,878,8102,526,0,0,0,0,0
1541,907,8105,522,0,0,0,0,0
1542,892,8097,540,0,0,0,0,0
1543,894,8100,518,0,0,0,0,0
1544,900,8093,529,0,0,0,0,0
1545,891,8081,529,0,0,0,0,0
1546,884,8096,526,0,0,0,0,0
1547,901,8102,530,0,0,0,0,0
1548,908,8076,529,0,0,0,0,0
1549,885,8103,526,0,0,0,0,0
1550,904,8081,538,0,0,0,0,0
1551,894,8084,510,0,0,0,0,0
1552,896,8116,551,0,0,0,0,0
1553,900,8086,553,0,0,0,0,0
1554,890,8088,503,0,0,0,0,0
1555,896,8108,513,0,0,0,0,0
1556,910,8093,559,0,0,0,0,0
1557,890,8084,525,0,0,0,0,0
1558,889,8094,515,0,0,0,0,0
1559,898,8104,529,0,0,0,0,0
1560,891,8072,547,0,0,0,0,0
1561,890,8108,529,0,0,0,0,0
1562,905,8104,520,0,0,0,0,0
1563,906,8077,522,0,0,0,0,0
1564,894,8090,530,0,0,0,0,0
1565,890,8085,550,0,0,0,0,0
1566,894,8096,516,0,0,0,0,0
1567,906,8088,564,0,0,0,0,0
1568,886,8105,543,0,0,0,0,0
1569,888,8078,518,0,0,0,0,0
1570,903,8102,516,0,0,0,0,0
1571,883,8093,524,0,0,0,0,0
1572,894,8097,529,0,0,0,0,0
1573,891,8078,523,0,0,0,0,0
1574,1124,8182,962,0,0,0,0,0
1575,858,8043,768,0,0,0,0,0
1576,978,8098,570,817,0,0,0,0
1577,1016,8099,747,0,0,0,0,0
1578,667,8124,919,1023,0,0,0,0
1579,1563,7741,2252,0,0,0,0,0
1580,1060,8699,1054,0,0,0,0,0
1581,415,7661,346,0,0,0,0,0
1582,670,7893,915,0,0,0,0,0
1583,1266,8111,1502,0,0,0,0,0
1584,1134,8187,945,0,0,0,0,0
1585,795,8002,772,0,0,0,0,0
1586,927,7708,1078,0,0,0,0,0
1587,1006,8218,958,0,0,0,0,0
1588,1160,8093,967,0,0,0,0,0
1589,934,8114,1209,0,0,0,0,0
1590,1002,8135,616,0,0,0,0,0
1591,979,7811,1274,0,0,0,0,0
1592,1062,8252,919,0,0,0,0,0
1593,1128,8123,974,0,0,0,0,0
1594,1058,8231,1010,0,0,0,0,0
1595,1071,8230,814,0,0,0,0,0
1596,981,7972,849,0,0,0,0,0
1597,1009,7811,824,0,0,0,0,0
1598,1076,8268,1340,0,0,0,0,0
1599,1051,7754,270,0,0,0,0,0
1600,968,8283,903,0,0,0,0,0
1601,1060,8014,1084,0,0,0,0,0
1602,988,8159,951,0,0,0,0,0
1603,1136,8057,739,0,0,0,0,0
1604,1002,8023,811,0,0,0,0,0
1605,1186,8109,914,0,0,0,0,0
1606,1050,7846,646,0,0,0,0,0
1607,1085,8080,1034,0,0,0,0,0
1608,1087,8081,956,0,0,0,0,0
1609,999,8358,645,0,0,0,0,0
1610,991,8028,1334,0,0,0,0,0
1611,1296,7729,-704,0,0,0,0,0
1612,1163,7931,488,0,0,0,0,0
1613,1306,7973,846,0,0,0,0,0
1614,960,7849,994,0,0,0,0,0
1615,1264,8913,1584,0,0,0,0,0
1616,1184,7752,639,0,0,0,0,0
1617,913,7999,1626,0,0,0,0,0
1618,1493,8104,1172,0,0,0,0,0
1619,1345,8077,879,0,0,0,0,0
1620,983,8120,1050,0,0,0,0,0
1621,1432,8044,1012,0,0,0,0,0
1622,1708,8212,1112,0,0,0,0,0
1623,1248,8173,592,0,0,0,0,0
1624,1035,7836,17,0,0,0,0,0
1625,1415,7948,220,0,0,0,0,0
1626,1346,8078,1117,0,0,0,0,0
1627,1100,7788,877,0,0,0,0,0
1628,1031,8260,705,0,0,0,0,0
1629,1255,7865,616,636,0,0,0,0
1630,1436,8128,1121,0,0,0,0,0
1631,1810,7942,826,497,0,0,0,0
1632,1293,7909,1068,0,0,0,0,0
1633,1696,8236,534,0,0,0,0,0
1634,1428,7684,808,0,0,0,0,0
1635,1777,8364,754,0,0,0,0,0
1636,1447,7703,98,0,0,0,0,0
1637,1419,8120,601,0,0,0,0,0
1638,1078,8120,79,0,0,0,0,0
1639,1279,7845,245,0,0,0,0,0
1640,1276,7732,135,0,0,0,0,0
1641,1765,7920,592,0,0,0,0,0
1642,1300,8153,744,0,0,0,0,0
1643,1334,8057,77,0,0,0,0,0
1644,1294,7784,116,0,0,0,0,0
1645,1446,8402,1453,0,0,0,0,0
1646,1630,8471,1085,0,0,0,0,0
1647,1656,8173,212,0,0,0,0,0
1648,1584,8171,719,0,0,0,0,0
1649,1514,8588,108,0,0,0,0,0
1650,1401,7621,362,0,0,0,0,0
1651,1245,7517,454,0,0,0,0,0
1652,1517,7879,280,0,0,0,0,0
1653,1997,7845,-254,0,0,0,0,0
1654,1662,8066,1073,0,0,0,0,0
1655,1292,7874,23,0,0,0,0,0
1656,1325,7893,260,0,0,0,0,0
1657,1236,7530,-346,0,0,0,0,0
1658,1993,7773,255,0,0,0,0,0
1659,1768,8073,774,0,0,0,0,0
1660,1483,8116,844,0,0,0,0,0
1661,1311,8046,307,0,0,0,0,0
1662,1815,8024,214,0,0,0,0,0
1663,1780,7999,462,0,0,0,0,0
1664,1670,7715,884,0,0,0,0,0
1665,1424,8284,-525,0,0,0,0,0
1666,1553,7743,324,0,0,0,0,0
1667,1311,8233,905,0,0,0,0,0
1668,1305,8230,-444,0,0,0,0,0
1669,805,8488,666,0,0,0,0,0
1670,613,7971,836,0,0,0,0,0
1671,-209,7909,-128,0,0,0,0,0
1672,649,8166,323,0,0,0,0,0
1673,356,8175,-587,0,0,0,0,0
1674,758,8108,691,0,0,0,0,0
1675,412,7459,527,0,0,0,0,0
1676,760,8864,1002,0,0,0,0,0
1677,783,8392,950,0,0,0,0,0
1678,280,7578,-42,0,0,0,0,0
1679,249,7899,370,0,0,0,0,0
1680,251,7933,-512,0,0,0,0,0
1681,660,8508,1142,0,0,0,0,0
1682,408,8313,528,0,0,0,0,0
1683,476,8444,1700,0,0,0,0,0
1684,578,8015,1396,0,0,0,0,0
1685,687,8254,419,0,0,0,0,0
1686,417,8050,89,0,0,0,0,0
1687,746,7655,-110,0,0,0,0,0
1688,1061,9082,1356,0,0,0,0,0
1689,36,8062,724,0,0,0,0,0
1690,880,8861,472,0,0,0,0,0
1691,432,8028,-105,1064,0,0,0,0
1692,634,8187,1318,0,0,0,0,0
1693,347,8216,988,1066,0,0,0,0
1694,387,8366,630,0,0,0,0,0
1695,632,8099,564,0,0,0,0,0
1696,227,7810,533,0,0,0,0,0
1697,220,8545,942,0,0,0,0,0
1698,635,8216,574,0,0,0,0,0
1699,712,7598,351,0,0,0,0,0
1700,852,8065,855,0,0,0,0,0
1701,231,8950,923,0,0,0,0,0
1702,322,8038,654,0,0,0,0,0
1703,106,8713,285,970,0,0,0,0
1704,406,7540,364,0,0,0,0,0
1705,-106,7580,-233,985,0,0,0,0
1706,568,8137,478,0,0,0,0,0
1707,761,8720,1585,1001,0,0,0,0
1708,556,8846,234,0,0,0,0,0
1709,101,7312,79,0,0,0,0,0
1710,814,8770,1195,0,0,0,0,0
1711,616,7796,189,474,0,0,0,0
1712,922,9063,1012,0,0,0,0,0
1713,1160,7904,444,481,0,0,0,0
1714,900,8534,-904,0,0,0,0,0
1715,542,7422,277,0,0,0,0,0
1716,391,8396,340,0,0,0,0,0
1717,1280,7914,-644,0,0,0,0,0
1718,406,7352,297,0,0,0,0,0
1719,-82,7266,18,0,0,0,0,0
1720,295,9471,2336,0,0,0,0,0
1721,1195,7796,945,0,0,0,0,0
1722,287,8867,529,0,0,0,0,0
1723,381,7535,1963,0,0,0,0,0
1724,1530,8798,802,0,0,0,0,0
1725,562,8262,650,0,0,0,0,0
1726,913,7585,427,0,0,0,0,0
1727,799,8250,1078,0,0,0,0,0
1728,783,9127,436,0,0,0,0,0
1729,-248,7795,809,0,0,0,0,0
1730,1342,8264,991,0,0,0,0,0
1731,666,7394,-823,0,0,0,0,0
1732,1407,8108,898,0,0,0,0,0
1733,623,7353,607,0,0,0,0,0
1734,340,9556,672,0,0,0,0,0
1735,-134,7390,-100,0,0,0,0,0
1736,300,8919,366,0,0,0,0,0
1737,464,8004,578,0,0,0,0,0
1738,52,7725,616,0,0,0,0,0
1739,569,7236,-141,0,0,0,0,0
1740,272,8354,443,0,0,0,0,0
1741,810,7550,-429,0,0,0,0,0
1742,692,8627,818,1007,0,0,0,0
1743,1253,7908,286,0,0,0,0,0
1744,625,8902,208,0,0,0,0,0
1745,308,7820,-736,0,0,0,0,0
1746,1073,7881,891,0,0,0,0,0
1747,1169,8615,976,0,0,0,0,0
1748,209,8956,995,0,0,0,0,0
1749,841,8542,-364,0,0,0,0,0
1750,805,8093,767,1063,0,0,0,0
1751,510,8583,-50,1338,0,0,0,0
1752,-135,6838,361,0,0,0,0,0
1753,191,8520,1630,334,0,0,0,0
1754,198,8377,-71,0,0,0,0,0
1755,638,8148,-277,0,0,0,0,0
1756,1024,7882,6,0,0,0,0,0
1757,1416,8402,153,0,0,0,0,0
1758,-466,8411,542,0,0,0,0,0
1759,-619,7561,-415,0,0,0,0,0
1760,647,7780,229,0,0,0,0,0
1761,917,8699,595,0,0,0,0,0
1762,228,7852,-96,0,0,0,0,0
1763,704,8364,537,0,0,0,0,0
1764,930,7838,148,0,0,0,0,0
1765,-76,7831,-267,0,0,0,0,0
1766,311,8438,1118,0,0,0,0,0
1767,1174,8636,964,0,0,0,0,0
1768,720,7430,388,0,0,0,0,0
1769,486,8805,70,0,0,0,0,0
1770,863,7606,1032,1017,0,0,0,0
1771,899,8282,11,0,0,0,0,0
1772,260,8696,1398,1017,0,0,0,0
1773,1215,7876,1346,0,0,0,0,0
1774,242,8140,-3,0,0,0,0,0
1775,25,9516,-770,0,0,0,0,0
1776,537,9528,728,0,0,0,0,0
1777,-506,8258,-1317,0,0,0,0,0
1778,565,6956,-1357,0,0,0,0,0
1779,204,7900,464,0,0,0,0,0
1780,-210,7661,-284,0,0,0,0,0
1781,247,8968,378,0,0,0,0,0
1782,349,7824,-103,0,0,0,0,0
1783,-124,8599,530,0,0,0,0,0
1784,156,9400,-194,0,0,0,0,0
1785,90,6624,-1192,0,0,0,0,0
1786,532,9080,-587,0,0,0,0,0
1787,1018,8199,339,0,0,0,0,0
1788,1757,7602,-157,0,0,0,0,0
1789,1514,8495,144,0,0,0,0,0
1790,1589,7692,-688,0,0,0,0,0
1791,1714,7596,-172,0,0,0,0,0
1792,1162,8234,250,0,0,0,0,0
1793,1552,7466,-576,0,0,0,0,0
1794,2598,7997,-872,0,0,0,0,0
1795,2830,8332,-773,0,0,0,0,0
1796,1945,8481,-138,0,0,0,0,0
1797,1907,7838,980,984,0,0,0,0
1798,1657,7489,-698,987,0,0,0,0
1799,1501,8314,-1225,0,0,0,0,0
1800,2249,7662,-480,0,0,0,0,0
1801,810,7827,-636,0,0,0,0,0
1802,1107,8051,-1978,0,0,0,0,0
1803,1342,8430,-138,0,0,0,0,0
1804,1230,7961,-224,0,0,0,0,0
1805,1368,7892,-1114,0,0,0,0,0
1806,1628,8338,-872,0,0,0,0,0
1807,1219,8061,-645,0,0,0,0,0
1808,1424,8056,-131,0,0,0,0,0
1809,1550,8392,44,0,0,0,0,0
1810,1462,8076,-432,0,0,0,0,0
1811,1315,8144,-273,0,0,0,0,0
1812,1462,8103,-498,0,0,0,0,0
1813,1127,7922,-470,0,0,0,0,0
1814,1428,8120,-247,0,0,0,0,0
1815,1450,8110,-301,0,0,0,0,0
1816,1338,8051,-598,0,0,0,0,0
1817,1220,8323,-400,471,0,0,0,0
1818,1286,7787,-583,0,0,0,0,0
1819,1045,8016,-271,517,0,0,0,0
1820,1325,8259,-108,0,0,0,0,0
1821,1156,8233,-472,562,0,0,0,0
1822,1298,8126,-635,0,0,0,0,0
1823,1330,8022,-200,629,0,0,0,0
1824,1212,8032,-699,0,0,0,0,0
1825,1211,7903,-282,715,0,0,0,0
1826,1380,8124,-673,1639,0,0,0,0
1827,1130,8090,-64,0,0,0,0,0
1828,1221,7893,-208,507,0,0,0,0
1829,1686,8323,2838,0,0,0,0,0
1830,2070,7836,2032,0,0,0,0,0
1831,1624,9159,-438,0,0,0,0,0
1832,1636,7706,890,0,0,0,0,0
1833,891,7942,-1512,0,0,0,0,0
1834,1395,7990,174,0,0,0,0,0
1835,1292,8066,152,0,0,0,0,0
1836,1281,8034,97,0,0,0,0,0
1837,1353,8015,323,0,0,0,0,0
1838,1378,8066,342,0,0,0,0,0
1839,1361,8031,316,0,0,0,0,0
1840,1350,8017,330,0,0,0,0,0
1841,1371,8046,320,0,0,0,0,0
1842,1384,8052,320,0,0,0,0,0
1843,1349,8022,319,0,0,0,0,0
1844,1370,8045,319,0,0,0,0,0
1845,1346,8022,334,0,0,0,0,0
1846,1364,8044,322,0,0,0,0,0
1847,1381,8036,330,0,0,0,0,0
1848,1352,8050,281,0,0,0,0,0
1849,1357,8045,311,0,0,0,0,0
1850,1374,8031,337,0,0,0,0,0
1851,1371,8035,334,0,0,0,0,0
1852,1363,8038,328,0,0,0,0,0
1853,1352,8031,319,0,0,0,0,0
1854,1374,8039,328,0,0,0,0,0
1855,1390,8041,326,0,0,0,0,0
1856,1346,8018,328,0,0,0,0,0
1857,1350,8054,342,0,0,0,0,0
1858,1385,8030,323,0,0,0,0,0
1859,1372,8037,305,0,0,0,0,0
1860,1351,8036,311,0,0,0,0,0
1861,1368,8031,332,0,0,0,0,0
1862,1385,8043,324,0,0,0,0,0
1863,1364,8027,314,0,0,0,0,0
1864,1348,8031,302,0,0,0,0,0
1865,1374,8045,319,0,0,0,0,0
1866,1378,8038,314,0,0,0,0,0
1867,1357,8025,335,0,0,0,0,0
1868,1359,8042,346,0,0,0,0,0
1869,1386,8050,335,0,0,0,0,0
1870,1377,8034,324,0,0,0,0,0
1871,1351,8038,310,0,0,0,0,0
1872,1367,8047,292,0,0,0,0,0
1873,1372,8035,316,0,0,0,0,0
1874,1352,8036,331,0,0,0,0,0
1875,1356,8038,329,0,0,0,0,0
1876,1386,8042,349,0,0,0,0,0
1877,1370,8040,333,0,0,0,0,0
1878,1354,8034,306,0,0,0,0,0
1879,1366,8042,317,0,0,0,0,0
1880,1367,8054,294,0,0,0,0,0
1881,1354,8040,308,0,0,0,0,0
1882,1355,8015,318,0,0,0,0,0
1883,1386,8058,332,0,0,0,0,0
1884,1339,8010,256,0,0,0,0,0
1885,1334,8026,336,0,0,0,0,0
1886,1348,7974,237,0,0,0,0,0
1887,1314,8116,221,0,0,0,0,0
1888,1382,8008,318,0,0,0,0,0
1889,1324,8170,308,0,0,0,0,0
1890,1432,8005,310,0,0,0,0,0
1891,1439,8141,305,0,0,0,0,0
1892,1388,8117,304,0,0,0,0,0
1893,1376,8025,344,0,0,0,0,0
1894,1322,7917,290,0,0,0,0,0
1895,1369,8009,313,0,0,0,0,0
1896,1362,8045,347,0,0,0,0,0
1897,1363,8026,323,0,0,0,0,0
1898,1362,7999,322,0,0,0,0,0
1899,1352,8031,320,0,0,0,0,0
1900,1366,8027,323,0,0,0,0,0
1901,1366,8018,342,0,0,0,0,0
1902,1369,8060,326,0,0,0,0,0
1903,1366,8026,319,0,0,0,0,0
1904,1359,8047,331,0,0,0,0,0
1905,1372,8036,324,0,0,0,0,0
1906,1358,8025,327,0,0,0,0,0
1907,1362,8054,314,0,0,0,0,0
1908,1370,8036,328,0,0,0,0,0
1909,1360,8046,313,0,0,0,0,0
1910,1367,8050,314,0,0,0,0,0
1911,1365,8018,321,0,0,0,0,0
1912,1364,8056,312,0,0,0,0,0
1913,1359,8030,328,0,0,0,0,0
1914,1370,8049,324,0,0,0,0,0
1915,1385,8042,332,0,0,0,0,0
1916,1356,8094,333,0,0,0,0,0
1917,1364,7959,351,0,0,0,0,0
1918,1316,7985,299,0,0,0,0,0
1919,1323,8106,347,0,0,0,0,0
1920,1410,8191,434,0,0,0,0,0
1921,1436,8098,416,0,0,0,0,0
1922,1320,7883,240,0,0,0,0,0
1923,1330,8054,262,0,0,0,0,0
1924,1374,8077,272,0,0,0,0,0
1925,1374,8048,285,0,0,0,0,0
1926,1314,8005,308,0,0,0,0,0
1927,1376,8076,359,0,0,0,0,0
1928,1364,8099,384,0,0,0,0,0
1929,1335,8004,330,0,0,0,0,0
1930,1382,8027,314,0,0,0,0,0
1931,1338,8046,267,0,0,0,0,0
1932,1382,8038,308,0,0,0,0,0
1933,1391,8042,345,0,0,0,0,0
1934,1360,8021,347,0,0,0,0,0
1935,1388,8049,337,0,0,0,0,0
1936,1374,8022,318,0,0,0,0,0
1937,1345,8048,298,0,0,0,0,0
1938,1362,8018,314,0,0,0,0,0
1939,1380,8052,310,0,0,0,0,0
1940,1348,8035,340,0,0,0,0,0
1941,1354,8034,328,0,0,0,0,0
1942,1385,8036,334,0,0,0,0,0
1943,1363,8044,328,0,0,0,0,0
1944,1356,8030,314,0,0,0,0,0
1945,1370,8042,310,0,0,0,0,0
1946,1368,8042,341,0,0,0,0,0
1947,1372,8033,348,0,0,0,0,0
1948,1354,8041,318,0,0,0,0,0
1949,1367,8039,309,0,0,0,0,0
1950,1360,8040,315,0,0,0,0,0
1951,1368,8030,327,0,0,0,0,0
1952,1370,8034,310,0,0,0,0,0
1953,1362,8042,330,0,0,0,0,0
1954,1373,8031,325,0,0,0,0,0
1955,1368,8045,313,0,0,0,0,0
1956,1364,8036,302,0,0,0,0,0
1957,1369,8039,310,0,0,0,0,0
1958,1367,8036,330,0,0,0,0,0
1959,1369,8044,332,0,0,0,0,0
1960,1366,8033,326,0,0,0,0,0
1961,1364,8048,308,0,0,0,0,0
1962,1362,8028,311,0,0,0,0,0
1963,1366,8041,316,0,0,0,0,0
1964,1369,8040,327,0,0,0,0,0
1965,1363,8040,315,0,0,0,0,0
1966,1365,8022,317,0,0,0,0,0
1967,1366,8048,322,0,0,0,0,0
1968,1358,8038,321,0,0,0,0,0
1969,1364,8034,320,0,0,0,0,0
1970,1363,8038,319,0,0,0,0,0
1971,1362,8046,311,0,0,0,0,0
1972,1374,8032,321,0,0,0,0,0
1973,1362,8039,321,0,0,0,0,0
1974,1373,8040,314,0,0,0,0,0
1975,1366,8033,312,0,0,0,0,0
1976,1369,8040,312,0,0,0,0,0
1977,1360,8037,323,0,0,0,0,0
1978,1367,8030,328,0,0,0,0,0
1979,1369,8046,316,0,0,0,0,0
1980,1362,8035,326,0,0,0,0,0
1981,1364,8044,312,0,0,0,0,0
1982,1360,8027,317,0,0,0,0,0
1983,1364,8039,324,0,0,0,0,0
1984,1374,8033,319,0,0,0,0,0
1985,1368,8037,329,0,0,0,0,0
1986,1366,8032,315,0,0,0,0,0
1987,1366,8047,323,0,0,0,0,0
1988,1366,8036,325,0,0,0,0,0
1989,1373,8035,324,0,0,0,0,0
1990,1364,8042,324,0,0,0,0,0
1991,1368,8035,326,0,0,0,0,0
1992,1367,8038,307,0,0,0,0,0
1993,1366,8048,320,0,0,0,0,0
1994,1364,8033,317,0,0,0,0,0
1995,1366,8042,317,0,0,0,0,0
1996,1364,8036,320,0,0,0,0,0
1997,1374,8037,330,0,0,0,0,0
1998,1373,8033,318,0,0,0,0,0
1999,1377,8048,293,0,0,0,0,0
2000,1370,8026,314,0,0,0,0,0
2001,1368,8026,330,0,0,0,0,0
2002,1376,8038,344,0,0,0,0,0
2003,1368,8038,326,0,0,0,0,0
2004,1356,8024,338,0,0,0,0,0
2005,1362,8025,314,0,0,0,0,0
2006,1383,8048,300,0,0,0,0,0
2007,1360,8030,297,0,0,0,0,0
2008,1374,8040,337,0,0,0,0,0
2009,1377,8039,312,0,0,0,0,0
2010,1382,8035,322,0,0,0,0,0
2011,1350,8026,334,0,0,0,0,0
2012,1365,8040,335,0,0,0,0,0
2013,1364,8034,316,0,0,0,0,0
2014,1379,8057,322,0,0,0,0,0
2015,1348,8048,320,0,0,0,0,0
2016,1330,8005,353,0,0,0,0,0
2017,1387,8048,315,0,0,0,0,0
2018,1368,8015,314,0,0,0,0,0
2019,1380,8031,320,0,0,0,0,0
2020,1386,8042,326,0,0,0,0,0
2021,1356,8036,336,0,0,0,0,0
2022,1364,8038,301,0,0,0,0,0
2023,1359,8044,302,0,0,0,0,0
2024,1366,8024,308,0,0,0,0,0
2025,1380,8032,303,0,0,0,0,0
2026,1361,8038,337,0,0,0,0,0
2027,1354,8034,314,0,0,0,0,0
2028,1384,8046,326,0,0,0,0,0
2029,1390,8045,328,0,0,0,0,0
2030,1364,8025,316,0,0,0,0,0
2031,1371,8050,325,0,0,0,0,0
2032,1376,8030,322,0,0,0,0,0
2033,1356,8016,322,0,0,0,0,0
2034,1366,8048,322,0,0,0,0,0
2035,1366,8040,330,0,0,0,0,0
2036,1374,8033,326,0,0,0,0,0
2037,1370,8033,288,0,0,0,0,0
2038,1364,8051,386,0,0,0,0,0
2039,1401,7961,144,0,0,0,0,0
2040,457,7959,-594,0,0,0,0,0
2041,1447,8095,315,0,0,0,0,0
2042,1155,7989,288,0,0,0,0,0
2043,2768,7200,1573,0,0,0,0,0
2044,1360,8058,400,0,0,0,0,0
2045,1333,8090,437,0,0,0,0,0
2046,1392,8038,377,0,0,0,0,0
2047,1386,8054,374,0,0,0,0,0
2048,1352,8040,311,0,0,0,0,0
2049,1366,8033,317,0,0,0,0,0
2050,1387,8033,335,0,0,0,0,0
2051,1374,8026,325,0,0,0,0,0
2052,1352,8032,319,0,0,0,0,0
2053,1374,8036,320,0,0,0,0,0
2054,1361,8024,338,0,0,0,0,0
2055,1369,8043,327,0,0,0,0,0
2056,1378,8047,336,0,0,0,0,0
2057,1362,8042,325,0,0,0,0,0
2058,1362,8032,316,0,0,0,0,0
2059,1370,8034,322,0,0,0,0,0
2060,1355,8040,332,0,0,0,0,0
2061,1364,8028,320,0,0,0,0,0
2062,1379,8042,324,0,0,0,0,0
2063,1376,8026,300,0,0,0,0,0
2064,1386,8036,320,0,0,0,0,0
2065,1352,8040,316,0,0,0,0,0
2066,1356,8029,325,0,0,0,0,0
2067,1372,8049,330,0,0,0,0,0
2068,1366,8021,344,0,0,0,0,0
2069,1374,8038,341,0,0,0,0,0
2070,1366,8048,316,0,0,0,0,0
2071,1376,8022,294,0,0,0,0,0
2072,1364,8025,294,0,0,0,0,0
2073,1382,8055,326,0,0,0,0,0
2074,1368,8033,332,0,0,0,0,0
2075,1376,8030,362,0,0,0,0,0
2076,1393,8055,346,0,0,0,0,0
2077,1349,8036,312,0,0,0,0,0
2078,1366,8050,323,0,0,0,0,0
2079,1354,8035,336,0,0,0,0,0
2080,1343,8012,329,0,0,0,0,0
2081,1360,8054,351,0,0,0,0,0
2082,1386,8063,333,0,0,0,0,0
2083,1363,8015,338,0,0,0,0,0
2084,1347,8039,310,0,0,0,0,0
2085,1420,7988,260,0,0,0,0,0
2086,1328,8038,428,0,0,0,0,0
2087,1369,8072,335,0,0,0,0,0
2088,1412,7995,263,0,0,0,0,0
2089,1356,7964,308,0,0,0,0,0
2090,1311,8092,285,0,0,0,0,0
2091,1370,8036,366,0,0,0,0,0
2092,1454,8064,381,0,0,0,0,0
2093,1318,7989,300,0,0,0,0,0
2094,1382,7962,314,0,0,0,0,0
2095,1322,8143,279,0,0,0,0,0
2096,1407,8080,382,0,0,0,0,0
2097,1342,7881,330,0,0,0,0,0
2098,1380,8107,255,0,0,0,0,0
2099,1402,8079,326,0,0,0,0,0
2100,1338,7988,288,0,0,0,0,0
2101,1362,8009,350,0,0,0,0,0
2102,1374,8148,315,0,0,0,0,0
2103,1372,8034,327,0,0,0,0,0
2104,1363,8082,322,0,0,0,0,0
2105,1424,8083,368,0,0,0,0,0
2106,1398,7994,360,0,0,0,0,0
2107,1374,8039,302,0,0,0,0,0
2108,1406,8127,267,0,0,0,0,0
2109,1351,7987,327,0,0,0,0,0
2110,1360,8020,365,0,0,0,0,0
2111,1390,8075,351,0,0,0,0,0
2112,1383,8042,389,0,0,0,0,0
2113,1362,7990,338,0,0,0,0,0
2114,1366,8063,328,0,0,0,0,0
2115,1364,8021,304,0,0,0,0,0
2116,1355,8018,288,0,0,0,0,0
2117,1373,8062,291,0,0,0,0,0
2118,1358,8040,309,0,0,0,0,0
2119,1350,7997,315,0,0,0,0,0
2120,1368,8040,324,0,0,0,0,0
2121,1378,8081,317,0,0,0,0,0
2122,1348,8020,315,0,0,0,0,0
2123,1346,8092,274,0,0,0,0,0
2124,1365,8040,264,0,0,0,0,0
2125,1396,8048,359,0,0,0,0,0
2126,1339,8004,340,0,0,0,0,0
2127,1352,8041,356,0,0,0,0,0
2128,1407,8022,329,0,0,0,0,0
2129,1379,8031,302,0,0,0,0,0
2130,1358,8031,285,0,0,0,0,0
2131,1370,8057,294,0,0,0,0,0
2132,1370,8018,320,0,0,0,0,0
2133,1357,8047,338,0,0,0,0,0
2134,1363,8052,320,0,0,0,0,0
2135,1397,8003,340,0,0,0,0,0
2136,1358,8026,341,0,0,0,0,0
2137,1373,8036,338,0,0,0,0,0
2138,1348,8036,284,0,0,0,0,0
2139,1364,8024,296,0,0,0,0,0
2140,1395,8008,349,0,0,0,0,0
2141,1391,8031,363,0,0,0,0,0
2142,1336,8020,314,0,0,0,0,0
2143,1357,8052,302,0,0,0,0,0
2144,1381,8037,288,0,0,0,0,0
2145,1390,8050,363,0,0,0,0,0
2146,1379,8051,343,0,0,0,0,0
2147,1353,8002,362,0,0,0,0,0
2148,1382,8048,324,0,0,0,0,0
2149,1373,8040,322,0,0,0,0,0
2150,1370,8036,289,0,0,0,0,0
2151,1367,8032,300,0,0,0,0,0
2152,1370,8043,313,0,0,0,0,0
2153,1357,8029,341,0,0,0,0,0
2154,1364,8042,334,0,0,0,0,0
2155,1364,8024,335,0,0,0,0,0
2156,1375,8038,321,0,0,0,0,0
2157,1376,8044,304,0,0,0,0,0
2158,1366,8033,304,0,0,0,0,0
2159,1372,8038,330,0,0,0,0,0
2160,1366,8048,340,0,0,0,0,0
2161,1372,8030,327,0,0,0,0,0
2162,1367,8030,339,0,0,0,0,0
2163,1377,8043,332,0,0,0,0,0
2164,1367,8032,323,0,0,0,0,0
2165,1367,8042,318,0,0,0,0,0
2166,1367,8039,327,0,0,0,0,0
2167,1366,8039,324,0,0,0,0,0
2168,1364,8024,328,0,0,0,0,0
2169,1374,8033,325,0,0,0,0,0
2170,1370,8045,334,0,0,0,0,0
2171,1370,8026,325,0,0,0,0,0
2172,1370,8036,321,0,0,0,0,0
2173,1374,8041,316,0,0,0,0,0
2174,1368,8020,322,0,0,0,0,0
2175,1375,8038,331,0,0,0,0,0
2176,1373,8042,330,0,0,0,0,0
2177,1363,8025,328,0,0,0,0,0
2178,1368,8030,332,0,0,0,0,0
2179,1372,8046,333,0,0,0,0,0
2180,1375,8037,323,0,0,0,0,0
2181,1364,8037,328,0,0,0,0,0
2182,1371,8044,326,0,0,0,0,0
2183,1361,8029,323,0,0,0,0,0
2184,1379,8038,324,0,0,0,0,0
2185,1378,8034,321,0,0,0,0,0
2186,1361,8032,332,0,0,0,0,0
2187,1364,8031,328,0,0,0,0,0
2188,1372,8044,330,0,0,0,0,0
2189,1365,8033,321,0,0,0,0,0
2190,1377,8037,319,0,0,0,0,0
2191,1362,8032,332,0,0,0,0,0
2192,1364,8038,328,0,0,0,0,0
2193,1370,8039,313,0,0,0,0,0
2194,1368,8033,310,0,0,0,0,0
2195,1368,8040,320,0,0,0,0,0
2196,1367,8035,324,0,0,0,0,0
2197,1366,8026,325,0,0,0,0,0
2198,1374,8032,336,0,0,0,0,0
2199,1378,8045,328,0,0,0,0,0
2200,1364,8036,326,0,0,0,0,0
2201,1366,8045,324,0,0,0,0,0
2202,1365,8022,332,0,0,0,0,0
2203,1366,8040,324,0,0,0,0,0
2204,1370,8044,322,0,0,0,0,0
2205,1370,8028,331,0,0,0,0,0
2206,1364,8037,331,0,0,0,0,0
2207,1380,8045,324,0,0,0,0,0
2208,1365,8032,324,0,0,0,0,0
2209,1368,8047,337,0,0,0,0,0
2210,1366,8050,325,0,0,0,0,0
2211,1371,8038,320,0,0,0,0,0
2212,1364,8032,320,0,0,0,0,0
2213,1379,8033,326,0,0,0,0,0
2214,1366,8031,324,0,0,0,0,0
2215,1369,8032,325,0,0,0,0,0
2216,1356,8035,327,0,0,0,0,0
2217,1368,8037,328,0,0,0,0,0
2218,1375,8036,330,0,0,0,0,0
2219,1368,8031,326,0,0,0,0,0
2220,1361,8029,326,0,0,0,0,0
2221,1368,8046,322,0,0,0,0,0
2222,1367,8029,330,0,0,0,0,0
2223,1368,8024,314,0,0,0,0,0
2224,1365,8053,328,0,0,0,0,0
2225,1367,8030,331,0,0,0,0,0
2226,1371,8034,330,0,0,0,0,0
2227,1369,8043,318,0,0,0,0,0
2228,1368,8026,331,0,0,0,0,0
2229,1366,8034,340,0,0,0,0,0
2230,1362,8043,321,0,0,0,0,0
2231,1374,8040,323,0,0,0,0,0
2232,1368,8037,319,0,0,0,0,0
2233,1366,8033,324,0,0,0,0,0
2234,1364,8032,330,0,0,0,0,0
2235,1373,8041,324,0,0,0,0,0
2236,1369,8046,327,0,0,0,0,0
2237,1370,8034,325,0,0,0,0,0
2238,1370,8044,329,0,0,0,0,0
2239,1370,8030,325,0,0,0,0,0
2240,1376,8034,334,0,0,0,0,0
2241,1370,8035,330,0,0,0,0,0
2242,1372,8028,338,0,0,0,0,0
2243,1365,8040,328,0,0,0,0,0
2244,1369,8034,329,0,0,0,0,0
2245,1370,8038,324,0,0,0,0,0
2246,1370,8044,328,0,0,0,0,0
2247,1365,8030,318,0,0,0,0,0
2248,1370,8034,326,0,0,0,0,0
2249,1372,8040,318,0,0,0,0,0
2250,1367,8029,319,0,0,0,0,0
2251,1364,8042,330,0,0,0,0,0
2252,1370,8034,323,0,0,0,0,0
2253,1372,8030,320,0,0,0,0,0
2254,1365,8047,316,0,0,0,0,0
2255,1370,8044,319,0,0,0,0,0
2256,1364,8046,332,0,0,0,0,0
2257,1376,8037,332,0,0,0,0,0
2258,1367,8039,327,0,0,0,0,0
2259,1372,8036,327,0,0,0,0,0
2260,1372,8039,331,0,0,0,0,0
2261,1372,8036,326,0,0,0,0,0
2262,1372,8036,318,0,0,0,0,0
2263,1364,8037,318,0,0,0,0,0
2264,1378,8029,328,0,0,0,0,0
2265,1359,8028,315,0,0,0,0,0
2266,1357,8046,322,0,0,0,0,0
2267,1375,8037,314,0,0,0,0,0
2268,1368,8011,326,0,0,0,0,0
2269,1379,8033,329,0,0,0,0,0
2270,1362,8030,324,0,0,0,0,0
2271,1370,8050,330,0,0,0,0,0
2272,1377,8043,328,0,0,0,0,0
2273,1373,8025,315,0,0,0,0,0
2274,1364,8041,295,0,0,0,0,0
2275,1372,8032,330,0,0,0,0,0
2276,1384,8034,338,0,0,0,0,0
2277,1357,8045,338,0,0,0,0,0
2278,1369,8028,331,0,0,0,0,0
2279,1372,8040,294,0,0,0,0,0
2280,1369,8034,316,0,0,0,0,0
2281,1360,8038,318,0,0,0,0,0
2282,1364,8042,332,0,0,0,0,0
2283,1374,8033,328,0,0,0,0,0
2284,1372,8032,338,0,0,0,0,0
2285,1368,8038,336,0,0,0,0,0
2286,1370,8033,328,0,0,0,0,0
2287,1375,8038,323,0,0,0,0,0
2288,1369,8041,320,0,0,0,0,0
2289,1368,8032,317,0,0,0,0,0
2290,1376,8046,326,0,0,0,0,0
2291,1370,8037,342,0,0,0,0,0
2292,1362,8034,332,0,0,0,0,0
2293,1376,8042,340,0,0,0,0,0
2294,1373,8028,326,0,0,0,0,0
2295,1367,8030,322,0,0,0,0,0
2296,1370,8031,320,0,0,0,0,0
2297,1374,8039,330,0,0,0,0,0
2298,1380,8032,325,0,0,0,0,0
2299,1364,8031,319,0,0,0,0,0
2300,1360,8029,324,0,0,0,0,0
2301,1370,8036,329,0,0,0,0,0
2302,1372,8040,321,0,0,0,0,0
2303,1371,8032,329,0,0,0,0,0
2304,1366,8026,323,0,0,0,0,0
2305,1376,8047,318,0,0,0,0,0
2306,1366,8027,322,0,0,0,0,0
2307,1373,8037,328,0,0,0,0,0
2308,1369,8039,326,0,0,0,0,0
2309,1371,8034,329,0,0,0,0,0
2310,1370,8030,316,0,0,0,0,0
2311,1366,8045,323,0,0,0,0,0
2312,1368,8035,325,0,0,0,0,0
2313,1366,8030,327,0,0,0,0,0
2314,1372,8043,328,0,0,0,0,0
2315,1370,8031,322,0,0,0,0,0
2316,1368,8034,328,0,0,0,0,0
2317,1374,8027,323,0,0,0,0,0
2318,1363,8041,329,0,0,0,0,0
2319,1372,8028,326,0,0,0,0,0
2320,1361,8035,322,0,0,0,0,0
2321,1368,8028,322,0,0,0,0,0
2322,1371,8036,323,0,0,0,0,0
2323,1368,8040,327,0,0,0,0,0
2324,1378,8036,318,0,0,0,0,0
2325,1364,8030,320,0,0,0,0,0
2326,1364,8041,327,0,0,0,0,0
2327,1373,8034,320,0,0,0,0,0
2328,1373,8032,322,0,0,0,0,0
2329,1373,8037,327,0,0,0,0,0
2330,1371,8039,326,0,0,0,0,0
2331,1364,8042,330,0,0,0,0,0
2332,1373,8034,324,0,0,0,0,0
2333,1370,8028,323,0,0,0,0,0
2334,1358,8038,326,0,0,0,0,0
2335,1367,8046,342,0,0,0,0,0
2336,1366,8028,322,0,0,0,0,0
2337,1368,8037,326,0,0,0,0,0
2338,1364,8042,331,0,0,0,0,0
2339,1368,8033,325,0,0,0,0,0
2340,1363,8036,329,0,0,0,0,0
2341,1367,8026,326,0,0,0,0,0
2342,1368,8039,331,0,0,0,0,0
2343,1364,8039,324,0,0,0,0,0
2344,1367,8034,323,0,0,0,0,0
2345,1375,8044,327,0,0,0,0,0
2346,1371,8026,330,0,0,0,0,0
2347,1368,8029,322,0,0,0,0,0
2348,1369,8036,328,0,0,0,0,0
2349,1364,8040,330,0,0,0,0,0
2350,1372,8036,330,0,0,0,0,0
2351,1361,8036,324,0,0,0,0,0
2352,1360,8031,324,0,0,0,0,0
2353,1373,8042,312,0,0,0,0,0
2354,1378,8040,316,0,0,0,0,0
2355,1375,8040,324,0,0,0,0,0
2356,1358,8034,334,0,0,0,0,0
2357,1380,8042,335,0,0,0,0,0
2358,1374,8034,339,0,0,0,0,0
2359,1362,8036,326,0,0,0,0,0
2360,1375,8034,310,0,0,0,0,0
2361,1372,8039,332,0,0,0,0,0
2362,1378,8038,329,0,0,0,0,0
2363,1365,8031,332,0,0,0,0,0
2364,1368,8034,329,0,0,0,0,0
2365,1369,8038,336,0,0,0,0,0
2366,1372,8026,320,0,0,0,0,0
2367,1376,8026,315,0,0,0,0,0
2368,1367,8037,338,0,0,0,0,0
2369,1374,8037,339,0,0,0,0,0
2370,1360,8027,314,0,0,0,0,0
2371,1367,8036,327,0,0,0,0,0
2372,1355,8038,325,0,0,0,0,0
2373,1373,8038,331,0,0,0,0,0
2374,1367,8042,328,0,0,0,0,0
2375,1358,8031,315,0,0,0,0,0
2376,1373,8038,329,0,0,0,0,0
2377,1363,8031,326,0,0,0,0,0
2378,1366,8040,319,0,0,0,0,0
2379,1374,8024,309,0,0,0,0,0
2380,1376,8040,317,0,0,0,0,0
2381,1362,8040,330,0,0,0,0,0
2382,1370,8025,320,0,0,0,0,0
2383,1378,8031,328,0,0,0,0,0
2384,1358,8048,312,0,0,0,0,0
2385,1364,8039,324,0,0,0,0,0
2386,1374,8046,319,0,0,0,0,0
2387,1371,8030,328,0,0,0,0,0
2388,1372,8039,320,0,0,0,0,0
2389,1371,8031,322,0,0,0,0,0
2390,1362,8031,322,0,0,0,0,0
2391,1375,8038,317,0,0,0,0,0
2392,1373,8042,325,0,0,0,0,0
2393,1370,8026,323,0,0,0,0,0
2394,1370,8031,322,0,0,0,0,0
2395,1372,8036,331,0,0,0,0,0
2396,1363,8039,325,0,0,0,0,0
2397,1370,8037,334,0,0,0,0,0
2398,1370,8037,331,0,0,0,0,0
2399,1373,8048,320,0,0,0,0,0
2400,1368,8040,324,0,0,0,0,0
2401,1361,8036,332,0,0,0,0,0
2402,1369,8046,329,0,0,0,0,0
2403,1346,8059,303,0,0,0,0,0
2404,1368,8052,310,0,0,0,0,0
2405,1380,8006,341,0,0,0,0,0
2406,1362,8058,334,0,0,0,0,0
2407,1371,8024,318,0,0,0,0,0
2408,1354,8010,326,0,0,0,0,0
2409,1389,8060,329,0,0,0,0,0
2410,1362,8039,323,0,0,0,0,0
2411,1380,8050,319,0,0,0,0,0
2412,1368,8032,312,0,0,0,0,0
2413,1364,8022,320,0,0,0,0,0
2414,1378,8047,300,0,0,0,0,0
2415,1375,8040,339,0,0,0,0,0
2416,1351,8032,336,0,0,0,0,0
2417,1356,8031,329,0,0,0,0,0
2418,1393,8029,330,0,0,0,0,0
2419,1350,8056,328,0,0,0,0,0
2420,1378,8039,321,0,0,0,0,0
2421,1362,8070,336,0,0,0,0,0
2422,1376,8029,319,0,0,0,0,0
2423,1384,8031,340,0,0,0,0,0
2424,1372,8044,343,0,0,0,0,0
2425,1364,8027,336,0,0,0,0,0
2426,1384,8042,331,0,0,0,0,0
2427,1368,8021,329,0,0,0,0,0
2428,1344,8038,296,0,0,0,0,0
2429,1386,8034,324,0,0,0,0,0
2430,1357,8040,327,0,0,0,0,0
2431,1365,8023,331,0,0,0,0,0
2432,1373,8045,316,0,0,0,0,0
2433,1358,8031,312,0,0,0,0,0
2434,1364,8030,318,0,0,0,0,0
2435,1386,8039,334,0,0,0,0,0
2436,1360,8014,324,0,0,0,0,0
2437,1358,8020,317,0,0,0,0,0
2438,1371,8060,314,0,0,0,0,0
2439,1366,8022,329,0,0,0,0,0
2440,1354,8030,322,0,0,0,0,0
2441,1366,8050,328,0,0,0,0,0
2442,1366,8022,322,0,0,0,0,0
2443,1365,8042,338,0,0,0,0,0
2444,1361,8040,311,0,0,0,0,0
2445,1369,8037,317,0,0,0,0,0
2446,1376,8050,324,0,0,0,0,0
2447,1371,8023,332,0,0,0,0,0
2448,1361,8032,322,0,0,0,0,0
2449,1361,8056,322,0,0,0,0,0
2450,1369,8020,336,0,0,0,0,0
2451,1370,8031,320,0,0,0,0,0
2452,1372,8034,327,0,0,0,0,0
2453,1366,8038,307,0,0,0,0,0
2454,1367,8042,309,0,0,0,0,0
2455,1364,8046,315,0,0,0,0,0
2456,1380,8029,334,0,0,0,0,0
2457,1364,8046,327,0,0,0,0,0
2458,1371,8052,328,0,0,0,0,0
2459,1371,8027,334,0,0,0,0,0
2460,1360,8020,314,0,0,0,0,0
2461,1372,8049,312,0,0,0,0,0
2462,1360,8020,316,0,0,0,0,0
2463,1373,8057,326,0,0,0,0,0
2464,1365,8044,339,0,0,0,0,0
2465,1365,8029,304,0,0,0,0,0
2466,1368,8041,316,0,0,0,0,0
2467,1369,8030,314,0,0,0,0,0
2468,1377,8035,305,0,0,0,0,0
2469,1368,8047,303,0,0,0,0,0
2470,1367,8019,322,0,0,0,0,0
2471,1375,8039,309,0,0,0,0,0
2472,1369,8047,318,0,0,0,0,0
2473,1366,8031,339,0,0,0,0,0
2474,1360,8030,324,0,0,0,0,0
2475,1375,8047,322,0,0,0,0,0
2476,1362,8025,321,0,0,0,0,0
2477,1360,8034,316,0,0,0,0,0
2478,1382,8030,323,0,0,0,0,0
2479,1376,8029,343,0,0,0,0,0
2480,1387,8018,330,0,0,0,0,0
2481,1358,8053,342,0,0,0,0,0
2482,1373,8034,307,0,0,0,0,0
2483,1376,8045,306,0,0,0,0,0
2484,1349,8039,308,0,0,0,0,0
2485,1379,8037,340,0,0,0,0,0
2486,1375,8046,348,0,0,0,0,0
2487,1356,8032,323,0,0,0,0,0
2488,1374,8050,332,0,0,0,0,0
2489,1371,8044,312,0,0,0,0,0
2490,1356,8025,323,0,0,0,0,0
2491,1365,8046,303,0,0,0,0,0
2492,1376,8032,325,0,0,0,0,0
2493,1359,8035,327,0,0,0,0,0
2494,1367,8039,328,0,0,0,0,0
2495,1374,8033,307,0,0,0,0,0
2496,1369,8046,336,0,0,0,0,0
2497,1375,8014,329,0,0,0,0,0
2498,1361,8012,304,0,0,0,0,0
2499,1370,8060,320,0,0,0,0,0
2500,1372,8010,327,0,0,0,0,0
2501,1362,8031,324,0,0,0,0,0
2502,1359,8057,301,0,0,0,0,0
2503,1372,8010,328,0,0,0,0,0
2504,1366,8029,356,0,0,0,0,0
2505,1369,8046,331,0,0,0,0,0
2506,1378,8025,320,0,0,0,0,0
2507,1379,8041,313,0,0,0,0,0
2508,1360,8026,321,0,0,0,0,0
2509,1359,8048,311,0,0,0,0,0
2510,1350,8023,301,0,0,0,0,0
2511,1373,8062,323,0,0,0,0,0
2512,1386,8022,336,0,0,0,0,0
2513,1365,8032,328,0,0,0,0,0
2514,1365,8054,331,0,0,0,0,0
2515,1363,8022,333,0,0,0,0,0
2516,1374,8034,309,0,0,0,0,0
2517,1364,8050,320,0,0,0,0,0
2518,1356,8032,300,0,0,0,0,0
2519,1372,8038,319,0,0,0,0,0
2520,1393,8060,336,0,0,0,0,0
2521,1343,8031,326,0,0,0,0,0
2522,1376,8036,344,0,0,0,0,0
2523,1368,8048,323,0,0,0,0,0
2524,1362,8028,325,0,0,0,0,0
2525,1366,8044,331,0,0,0,0,0
2526,1374,8039,322,0,0,0,0,0
2527,1344,8034,331,0,0,0,0,0
2528,1352,8050,340,0,0,0,0,0
2529,1357,8026,294,0,0,0,0,0
2530,1350,8030,303,0,0,0,0,0
2531,1372,8018,337,0,0,0,0,0
2532,1377,8038,356,0,0,0,0,0
2533,1362,8048,380,0,0,0,0,0
2534,1365,8029,314,0,0,0,0,0
2535,1391,8043,305,0,0,0,0,0
2536,1348,8036,284,0,0,0,0,0
2537,1344,8026,298,0,0,0,0,0
2538,1386,8052,313,0,0,0,0,0
2539,1364,8037,332,0,0,0,0,0
2540,1368,8029,348,0,0,0,0,0
2541,1376,8040,352,0,0,0,0,0
2542,1356,8032,320,0,0,0,0,0
2543,1360,8040,318,0,0,0,0,0
2544,1368,8042,303,0,0,0,0,0
2545,1361,8026,312,0,0,0,0,0
2546,1370,8037,330,0,0,0,0,0
2547,1368,8033,333,0,0,0,0,0
2548,1366,8042,338,0,0,0,0,0
2549,1372,8028,322,0,0,0,0,0
2550,1375,8044,301,0,0,0,0,0
2551,1368,8036,322,0,0,0,0,0
2552,1364,8037,328,0,0,0,0,0
2553,1364,8036,327,0,0,0,0,0
2554,1372,8036,340,0,0,0,0,0
2555,1368,8027,336,0,0,0,0,0
2556,1367,8047,336,0,0,0,0,0
2557,1371,8040,318,0,0,0,0,0
2558,1376,8026,296,0,0,0,0,0
2559,1370,8032,298,0,0,0,0,0
2560,1364,8040,330,0,0,0,0,0
2561,1360,8035,326,0,0,0,0,0
2562,1372,8042,340,0,0,0,0,0
2563,1364,8036,343,0,0,0,0,0
2564,1375,8038,333,0,0,0,0,0
2565,1366,8040,318,0,0,0,0,0
2566,1375,8034,312,0,0,0,0,0
2567,1312,8093,360,0,0,0,0,0
2568,1341,8058,367,0,0,0,0,0
2569,1411,8094,400,0,0,0,0,0
2570,1367,8048,396,0,0,0,0,0
2571,1346,7988,350,0,0,0,0,0
2572,1369,8060,308,0,0,0,0,0
2573,1384,8056,297,0,0,0,0,0
2574,1344,8038,312,0,0,0,0,0
2575,1351,8006,324,0,0,0,0,0
2576,1384,8014,359,0,0,0,0,0
2577,1373,8068,334,0,0,0,0,0
2578,1361,8048,312,0,0,0,0,0
2579,1347,7990,312,0,0,0,0,0
2580,1390,8063,306,0,0,0,0,0
2581,1357,8053,302,0,0,0,0,0
2582,1332,8007,298,0,0,0,0,0
2583,1393,8053,343,0,0,0,0,0
2584,1373,8018,343,0,0,0,0,0
2585,1338,8046,342,0,0,0,0,0
2586,1372,8048,330,0,0,0,0,0
2587,1375,8033,317,0,0,0,0,0
2588,1366,8037,312,0,0,0,0,0
2589,1355,8036,305,0,0,0,0,0
2590,1372,8052,318,0,0,0,0,0
2591,1367,8040,339,0,0,0,0,0
2592,1364,8030,336,0,0,0,0,0
2593,1375,8041,335,0,0,0,0,0
2594,1368,8038,333,0,0,0,0,0
2595,1364,8036,308,0,0,0,0,0
2596,1367,8040,328,0,0,0,0,0
2597,1367,8044,328,0,0,0,0,0
2598,1366,8037,328,0,0,0,0,0
2599,1364,8032,322,0,0,0,0,0
2600,1365,8042,315,0,0,0,0,0
2601,1360,8041,336,0,0,0,0,0
2602,1369,8033,332,0,0,0,0,0
2603,1365,8041,317,0,0,0,0,0
2604,1360,8035,314,0,0,0,0,0
2605,1360,8034,311,0,0,0,0,0
2606,1368,8035,333,0,0,0,0,0
2607,1372,8035,325,0,0,0,0,0
2608,1372,8038,328,0,0,0,0,0
2609,1356,8035,314,0,0,0,0,0
2610,1363,8034,320,0,0,0,0,0
2611,1365,8040,310,0,0,0,0,0
2612,1386,8034,338,0,0,0,0,0
2613,1360,8039,317,0,0,0,0,0
2614,1368,8034,322,0,0,0,0,0
2615,1374,8034,330,0,0,0,0,0
2616,1368,8039,325,0,0,0,0,0
2617,1358,8033,324,0,0,0,0,0
2618,1366,8043,320,0,0,0,0,0
2619,1376,8053,308,0,0,0,0,0
2620,1356,8044,322,0,0,0,0,0
2621,1355,8034,323,0,0,0,0,0
2622,1377,8039,330,0,0,0,0,0
2623,1368,8025,322,0,0,0,0,0
2624,1370,8050,329,0,0,0,0,0
2625,1352,8046,309,0,0,0,0,0
2626,1351,8034,302,0,0,0,0,0
2627,1374,8033,306,0,0,0,0,0
2628,1372,8042,298,0,0,0,0,0
2629,1371,8038,317,0,0,0,0,0
2630,1374,8050,320,0,0,0,0,0
2631,1375,8040,314,0,0,0,0,0
2632,1365,8030,304,0,0,0,0,0
2633,1357,8033,309,0,0,0,0,0
2634,1373,8040,310,0,0,0,0,0
2635,1372,8036,314,0,0,0,0,0
2636,1361,8039,311,0,0,0,0,0
2637,1371,8046,309,0,0,0,0,0
2638,1374,8041,310,0,0,0,0,0
2639,1370,8036,306,0,0,0,0,0
2640,1371,8045,310,0,0,0,0,0
2641,1370,8039,312,0,0,0,0,0
2642,1358,8039,314,0,0,0,0,0
2643,1376,8039,320,0,0,0,0,0
2644,1373,8036,320,0,0,0,0,0
2645,1370,8034,320,0,0,0,0,0
2646,1363,8037,318,0,0,0,0,0
2647,1371,8038,314,0,0,0,0,0
2648,1371,8047,320,0,0,0,0,0
2649,1367,8030,312,0,0,0,0,0
2650,1374,8034,310,0,0,0,0,0
2651,1376,8040,316,0,0,0,0,0
2652,1366,8031,310,0,0,0,0,0
2653,1374,8018,310,0,0,0,0,0
2654,1372,8043,320,0,0,0,0,0
2655,1366,8046,333,0,0,0,0,0
2656,1362,8017,322,0,0,0,0,0
2657,1374,8042,324,0,0,0,0,0
2658,1368,8042,325,0,0,0,0,0
2659,1370,8034,318,0,0,0,0,0
2660,1367,8045,322,0,0,0,0,0
2661,1367,8040,322,0,0,0,0,0
2662,1374,8033,330,0,0,0,0,0
2663,1363,8040,310,0,0,0,0,0
2664,1364,8036,323,0,0,0,0,0
2665,1370,8039,324,0,0,0,0,0
2666,1366,8040,320,0,0,0,0,0
2667,1374,8031,322,0,0,0,0,0
2668,1373,8034,317,0,0,0,0,0
2669,1370,8040,332,0,0,0,0,0
2670,1378,8038,325,0,0,0,0,0
2671,1374,8032,327,0,0,0,0,0
2672,1368,8042,322,0,0,0,0,0
2673,1369,8038,324,0,0,0,0,0
2674,1366,8038,321,0,0,0,0,0
2675,1377,8044,319,0,0,0,0,0
2676,1364,8038,324,0,0,0,0,0
2677,1368,8039,322,0,0,0,0,0
2678,1364,8046,316,0,0,0,0,0
2679,1369,8037,325,0,0,0,0,0
2680,1365,8031,313,0,0,0,0,0
2681,1366,8045,330,0,0,0,0,0
2682,1372,8035,324,0,0,0,0,0
2683,1378,8030,321,0,0,0,0,0
2684,1370,8042,324,0,0,0,0,0
2685,1362,8037,318,0,0,0,0,0
2686,1389,8031,316,0,0,0,0,0
2687,1372,8039,312,0,0,0,0,0
2688,1360,8040,324,0,0,0,0,0
2689,1371,8034,318,0,0,0,0,0
2690,1376,8038,338,0,0,0,0,0
2691,1366,8037,327,0,0,0,0,0
2692,1372,8028,324,0,0,0,0,0
2693,1386,8046,323,0,0,0,0,0
2694,1356,8034,326,0,0,0,0,0
2695,1356,8043,318,0,0,0,0,0
2696,1383,8037,320,0,0,0,0,0
2697,1373,8044,323,0,0,0,0,0
2698,1360,8036,323,0,0,0,0,0
2699,1368,8050,316,0,0,0,0,0
2700,1368,8045,323,0,0,0,0,0
2701,1360,8037,314,0,0,0,0,0
2702,1372,8031,315,0,0,0,0,0
2703,1378,8044,318,0,0,0,0,0
2704,1366,8047,322,0,0,0,0,0
2705,1354,8024,322,0,0,0,0,0
2706,1372,8047,323,0,0,0,0,0
2707,1356,8039,324,0,0,0,0,0
2708,1364,8032,324,0,0,0,0,0
2709,1368,8043,325,0,0,0,0,0
2710,1366,8040,320,0,0,0,0,0
2711,1364,8042,323,0,0,0,0,0
2712,1367,8048,327,0,0,0,0,0
2713,1369,8038,312,0,0,0,0,0
2714,1366,8034,315,0,0,0,0,0
2715,1373,8043,332,0,0,0,0,0
2716,1365,8044,319,0,0,0,0,0
2717,1369,8033,313,0,0,0,0,0
2718,1373,8040,326,0,0,0,0,0
2719,1364,8034,339,0,0,0,0,0
2720,1370,8042,336,0,0,0,0,0
2721,1366,8029,298,0,0,0,0,0
2722,1374,8040,330,0,0,0,0,0
2723,1372,8039,354,0,0,0,0,0
2724,1377,8034,369,0,0,0,0,0
2725,1382,8041,320,0,0,0,0,0
2726,1365,8033,305,0,0,0,0,0
2727,1369,8034,292,0,0,0,0,0
2728,1372,8041,328,0,0,0,0,0
2729,1367,8038,356,0,0,0,0,0
2730,1365,8040,336,0,0,0,0,0
2731,1372,8034,312,0,0,0,0,0
2732,1364,8036,300,0,0,0,0,0
2733,1365,8041,311,0,0,0,0,0
2734,1369,8036,318,0,0,0,0,0
2735,1382,8031,336,0,0,0,0,0
2736,1364,8032,342,0,0,0,0,0
2737,1366,8038,325,0,0,0,0,0
2738,1374,8045,320,0,0,0,0,0
2739,1366,8038,308,0,0,0,0,0
2740,1362,8038,299,0,0,0,0,0
2741,1370,8044,320,0,0,0,0,0
2742,1372,8040,328,0,0,0,0,0
2743,1368,8037,318,0,0,0,0,0
2744,1371,8048,322,0,0,0,0,0
2745,1367,8042,324,0,0,0,0,0
2746,1372,8040,320,0,0,0,0,0
2747,1368,8039,317,0,0,0,0,0
2748,1380,8043,316,0,0,0,0,0
2749,1371,8042,318,0,0,0,0,0
2750,1359,8040,323,0,0,0,0,0
2751,1372,8028,318,0,0,0,0,0
2752,1370,8045,320,0,0,0,0,0
2753,1370,8036,315,0,0,0,0,0
2754,1378,8030,324,0,0,0,0,0
2755,1360,8043,318,0,0,0,0,0
2756,1368,8039,329,0,0,0,0,0
2757,1368,8052,308,0,0,0,0,0
2758,1370,8030,322,0,0,0,0,0
2759,1376,8040,321,0,0,0,0,0
2760,1372,8034,320,0,0,0,0,0
2761,1366,8043,316,0,0,0,0,0
2762,1371,8038,326,0,0,0,0,0
2763,1368,8040,316,0,0,0,0,0
2764,1369,8041,325,0,0,0,0,0
2765,1369,8039,312,0,0,0,0,0
2766,1360,8038,328,0,0,0,0,0
2767,1368,8033,308,0,0,0,0,0
2768,1376,8034,324,0,0,0,0,0
2769,1366,8044,336,0,0,0,0,0
2770,1354,8028,317,0,0,0,0,0
2771,1381,8043,308,0,0,0,0,0
2772,1370,8045,312,0,0,0,0,0
2773,1365,8036,315,0,0,0,0,0
2774,1364,8044,335,0,0,0,0,0
2775,1374,8038,322,0,0,0,0,0
2776,1374,8034,321,0,0,0,0,0
2777,1359,8038,326,0,0,0,0,0
2778,1374,8034,323,0,0,0,0,0
2779,1370,8037,335,0,0,0,0,0
2780,1370,8040,327,0,0,0,0,0
2781,1366,8036,333,0,0,0,0,0
2782,1359,8042,317,0,0,0,0,0
2783,1376,8037,332,0,0,0,0,0
2784,1360,8036,333,0,0,0,0,0
2785,1366,8039,318,0,0,0,0,0
2786,1370,8040,324,0,0,0,0,0
2787,1365,8030,323,0,0,0,0,0
2788,1373,8033,322,0,0,0,0,0
2789,1367,8047,326,0,0,0,0,0
2790,1366,8032,316,0,0,0,0,0
2791,1375,8044,322,0,0,0,0,0
2792,1368,8040,320,0,0,0,0,0
2793,1368,8036,320,0,0,0,0,0
2794,1386,8026,304,0,0,0,0,0
2795,1371,8028,318,0,0,0,0,0
2796,1355,8046,319,0,0,0,0,0
2797,1380,8048,348,0,0,0,0,0
2798,1360,8041,332,0,0,0,0,0
2799,1352,8056,341,0,0,0,0,0
2800,1380,8031,320,0,0,0,0,0
2801,1372,8028,312,0,0,0,0,0
2802,1354,8061,292,0,0,0,0,0
2803,1382,8005,279,0,0,0,0,0
2804,1381,8030,322,0,0,0,0,0
2805,1364,8058,292,0,0,0,0,0
2806,1358,8040,309,0,0,0,0,0
2807,1377,8033,335,0,0,0,0,0
2808,1362,8023,317,0,0,0,0,0
2809,1382,8051,366,0,0,0,0,0
2810,1363,8042,313,0,0,0,0,0
2811,1370,8036,331,0,0,0,0,0
2812,1378,8040,341,0,0,0,0,0
2813,1356,8041,331,0,0,0,0,0
2814,1372,8040,345,0,0,0,0,0
2815,1372,8031,303,0,0,0,0,0
2816,1353,8032,306,0,0,0,0,0
2817,1370,8038,321,0,0,0,0,0
2818,1384,8038,304,0,0,0,0,0
2819,1360,8032,328,0,0,0,0,0
2820,1364,8043,314,0,0,0,0,0
2821,1359,8048,319,0,0,0,0,0
2822,1373,8028,320,0,0,0,0,0
2823,1370,8041,323,0,0,0,0,0
2824,1367,8040,315,0,0,0,0,0
2825,1373,8032,319,0,0,0,0,0
2826,1372,8034,323,0,0,0,0,0
2827,1370,8040,321,0,0,0,0,0
2828,1374,8039,312,0,0,0,0,0
2829,1364,8044,318,0,0,0,0,0
2830,1367,8038,313,0,0,0,0,0
2831,1366,8036,316,0,0,0,0,0
2832,1374,8046,320,0,0,0,0,0
2833,1373,8035,322,0,0,0,0,0
2834,1368,8029,318,0,0,0,0,0
2835,1376,8042,319,0,0,0,0,0
2836,1367,8036,318,0,0,0,0,0
2837,1371,8036,319,0,0,0,0,0
2838,1367,8046,320,0,0,0,0,0
2839,1373,8036,325,0,0,0,0,0
2840,1358,8027,320,0,0,0,0,0
2841,1379,8042,324,0,0,0,0,0
2842,1368,8034,326,0,0,0,0,0
2843,1368,8032,309,0,0,0,0,0
2844,1364,8038,309,0,0,0,0,0
2845,1369,8034,319,0,0,0,0,0
2846,1369,8036,322,0,0,0,0,0
2847,1376,8032,318,0,0,0,0,0
2848,1370,8034,319,0,0,0,0,0
2849,1368,8042,322,0,0,0,0,0
2850,1365,8040,318,0,0,0,0,0
2851,1374,8038,330,0,0,0,0,0
2852,1370,8034,324,0,0,0,0,0
2853,1369,8032,320,0,0,0,0,0
2854,1369,8038,318,0,0,0,0,0
2855,1364,8047,320,0,0,0,0,0
2856,1367,8043,318,0,0,0,0,0
2857,1370,8040,329,0,0,0,0,0
2858,1367,8036,329,0,0,0,0,0
2859,1368,8030,320,0,0,0,0,0
2860,1370,8033,325,0,0,0,0,0
2861,1370,8037,317,0,0,0,0,0
2862,1374,8038,316,0,0,0,0,0
2863,1374,8039,318,0,0,0,0,0
2864,1370,8031,315,0,0,0,0,0
2865,1370,8040,324,0,0,0,0,0
2866,1368,8045,322,0,0,0,0,0
2867,1363,8032,319,0,0,0,0,0
2868,1365,8040,320,0,0,0,0,0
2869,1370,8041,314,0,0,0,0,0
2870,1372,8028,322,0,0,0,0,0
2871,1372,8037,313,0,0,0,0,0
2872,1368,8034,320,0,0,0,0,0
2873,1374,8038,331,0,0,0,0,0
2874,1361,8044,318,0,0,0,0,0
2875,1365,8028,323,0,0,0,0,0
2876,1372,8022,326,0,0,0,0,0
2877,1372,8031,316,0,0,0,0,0
2878,1366,8040,319,0,0,0,0,0
2879,1366,8040,325,0,0,0,0,0
2880,1370,8046,323,0,0,0,0,0
2881,1370,8040,318,0,0,0,0,0
2882,1360,8037,327,0,0,0,0,0
2883,1366,8046,327,0,0,0,0,0
2884,1362,8046,320,0,0,0,0,0
2885,1362,8033,328,0,0,0,0,0
2886,1368,8048,322,0,0,0,0,0
2887,1368,8040,322,0,0,0,0,0
2888,1371,8041,316,0,0,0,0,0
2889,1363,8043,326,0,0,0,0,0
2890,1371,8037,318,0,0,0,0,0
2891,1366,8033,326,0,0,0,0,0
2892,1366,8038,322,0,0,0,0,0
2893,1367,8032,330,0,0,0,0,0
2894,1366,8031,329,0,0,0,0,0
2895,1368,8044,326,0,0,0,0,0
2896,1370,8033,326,0,0,0,0,0
2897,1366,8040,330,0,0,0,0,0
2898,1374,8042,324,0,0,0,0,0
2899,1369,8045,312,0,0,0,0,0
2900,1370,8028,322,0,0,0,0,0
2901,1362,8040,338,0,0,0,0,0
2902,1370,8046,317,0,0,0,0,0
2903,1374,8030,324,0,0,0,0,0
2904,1370,8041,319,0,0,0,0,0
2905,1368,8033,319,0,0,0,0,0
2906,1375,8038,317,0,0,0,0,0
2907,1371,8041,332,0,0,0,0,0
2908,1365,8037,318,0,0,0,0,0
2909,1367,8034,320,0,0,0,0,0
2910,1359,8036,327,0,0,0,0,0
2911,1374,8033,323,0,0,0,0,0
2912,1365,8037,314,0,0,0,0,0
2913,1365,8040,316,0,0,0,0,0
2914,1371,8038,320,0,0,0,0,0
2915,1369,8039,320,0,0,0,0,0
2916,1366,8040,320,0,0,0,0,0
2917,1367,8031,331,0,0,0,0,0
2918,1368,8039,324,0,0,0,0,0
2919,1363,8046,320,0,0,0,0,0
2920,1372,8036,323,0,0,0,0,0
2921,1372,8031,328,0,0,0,0,0
2922,1368,8054,329,0,0,0,0,0
2923,1368,8032,321,0,0,0,0,0
2924,1366,8034,314,0,0,0,0,0
2925,1367,8045,325,0,0,0,0,0
2926,1370,8034,328,0,0,0,0,0
2927,1365,8038,329,0,0,0,0,0
2928,1366,8042,323,0,0,0,0,0
2929,1368,8040,315,0,0,0,0,0
2930,1371,8034,306,0,0,0,0,0
2931,1360,8040,307,0,0,0,0,0
2932,1363,8035,328,0,0,0,0,0
2933,1369,8031,328,0,0,0,0,0
2934,1378,8036,331,0,0,0,0,0
2935,1368,8036,333,0,0,0,0,0
2936,1361,8029,326,0,0,0,0,0
2937,1370,8047,315,0,0,0,0,0
2938,1365,8042,315,0,0,0,0,0
2939,1377,8040,320,0,0,0,0,0
2940,1370,8040,332,0,0,0,0,0
2941,1367,8040,325,0,0,0,0,0
2942,1366,8034,332,0,0,0,0,0
2943,1373,8046,319,0,0,0,0,0
2944,1373,8044,318,0,0,0,0,0
2945,1367,8044,321,0,0,0,0,0
2946,1370,8036,334,0,0,0,0,0
2947,1371,8032,319,0,0,0,0,0
2948,1364,8039,331,0,0,0,0,0
2949,1368,8046,326,0,0,0,0,0
2950,1374,8035,318,0,0,0,0,0
2951,1378,8045,320,0,0,0,0,0
2952,1368,8042,321,0,0,0,0,0
2953,1372,8044,324,0,0,0,0,0
2954,1368,8038,320,0,0,0,0,0
2955,1367,8033,314,0,0,0,0,0
2956,1370,8030,323,0,0,0,0,0
2957,1371,8047,325,0,0,0,0,0
2958,1372,8042,318,0,0,0,0,0
2959,1367,8036,325,0,0,0,0,0
2960,1372,8044,323,0,0,0,0,0
2961,1376,8034,328,0,0,0,0,0
2962,1372,8037,311,0,0,0,0,0
2963,1361,8036,320,0,0,0,0,0
2964,1367,8032,322,0,0,0,0,0
2965,1370,8040,326,0,0,0,0,0
2966,1364,8033,320,0,0,0,0,0
2967,1365,8044,324,0,0,0,0,0
2968,1368,8033,325,0,0,0,0,0
2969,1372,8034,325,0,0,0,0,0
2970,1370,8038,322,0,0,0,0,0
2971,1363,8035,314,0,0,0,0,0
2972,1362,8036,317,0,0,0,0,0
2973,1366,8040,327,0,0,0,0,0
2974,1365,8035,323,0,0,0,0,0
2975,1374,8036,317,0,0,0,0,0
2976,1368,8036,323,0,0,0,0,0
2977,1361,8027,318,0,0,0,0,0
2978,1367,8042,325,0,0,0,0,0
2979,1371,8032,324,0,0,0,0,0
2980,1362,8035,306,0,0,0,0,0
2981,1378,8038,318,0,0,0,0,0
2982,1366,8034,321,0,0,0,0,0
2983,1368,8036,314,0,0,0,0,0
2984,1364,8040,327,0,0,0,0,0
2985,1373,8024,312,0,0,0,0,0
2986,1366,8037,314,0,0,0,0,0
2987,1370,8039,318,0,0,0,0,0
2988,1364,8033,322,0,0,0,0,0
2989,1373,8031,320,0,0,0,0,0
2990,1378,8039,318,0,0,0,0,0
2991,1363,8042,321,0,0,0,0,0
2992,1360,8033,330,0,0,0,0,0
2993,1378,8043,319,0,0,0,0,0
2994,1368,8034,328,0,0,0,0,0
2995,1357,8021,327,0,0,0,0,0
2996,1373,8044,325,0,0,0,0,0
2997,1389,8044,318,0,0,0,0,0
2998,1363,8033,306,0,0,0,0,0
2999,1375,8043,325,0,0,0,0,0
3000,1376,8054,324,0,0,0,0,0
3001,1362,8020,326,0,0,0,0,0
3002,1375,8020,321,0,0,0,0,0
3003,1361,8046,327,0,0,0,0,0
3004,1363,8023,330,0,0,0,0,0
3005,1372,8038,319,0,0,0,0,0
3006,1368,8024,324,0,0,0,0,0
3007,1370,8034,316,0,0,0,0,0
3008,1368,8037,322,0,0,0,0,0
3009,1368,8041,321,0,0,0,0,0
3010,1368,8038,322,0,0,0,0,0
3011,1368,8046,330,0,0,0,0,0
3012,1367,8035,323,0,0,0,0,0
3013,1362,8033,316,0,0,0,0,0
3014,1367,8044,326,0,0,0,0,0
3015,1372,8036,319,0,0,0,0,0
3016,1375,8031,317,0,0,0,0,0
3017,1369,8046,310,0,0,0,0,0
3018,1352,8030,335,0,0,0,0,0
3019,1371,8052,315,0,0,0,0,0
3020,1348,8045,328,0,0,0,0,0
3021,1370,8016,326,0,0,0,0,0
3022,1368,8022,324,0,0,0,0,0
3023,1365,8058,345,0,0,0,0,0
3024,1369,8039,346,0,0,0,0,0
3025,1362,8031,300,0,0,0,0,0
3026,1374,8046,296,0,0,0,0,0
3027,1362,8036,308,0,0,0,0,0
3028,1359,8034,330,0,0,0,0,0
3029,1365,8028,343,0,0,0,0,0
3030,1391,8039,342,0,0,0,0,0
3031,1370,8037,308,0,0,0,0,0
3032,1354,8033,313,0,0,0,0,0
3033,1376,8026,339,0,0,0,0,0
3034,1366,8026,314,0,0,0,0,0
3035,1366,8051,308,0,0,0,0,0
3036,1371,8042,326,0,0,0,0,0
3037,1367,8025,336,0,0,0,0,0
3038,1368,8037,334,0,0,0,0,0
3039,1368,8046,338,0,0,0,0,0
3040,1366,8036,318,0,0,0,0,0
3041,1364,8037,316,0,0,0,0,0
3042,1364,8034,298,0,0,0,0,0
3043,1361,8033,314,0,0,0,0,0
3044,1368,8043,322,0,0,0,0,0
3045,1366,8034,336,0,0,0,0,0
3046,1374,8032,346,0,0,0,0,0
3047,1362,8032,314,0,0,0,0,0
3048,1366,8052,298,0,0,0,0,0
3049,1375,8035,301,0,0,0,0,0
3050,1365,8048,328,0,0,0,0,0
3051,1378,8037,343,0,0,0,0,0
3052,1380,8034,352,0,0,0,0,0
3053,1554,8852,1760,0,0,0,0,0
3054,1313,8407,1148,0,0,0,0,0
3055,885,7774,1633,1247,0,0,0,0
3056,1413,8112,971,0,0,0,0,0
3057,1427,9092,1018,0,0,0,0,0
3058,864,7587,1287,0,0,0,0,0
3059,970,8301,1008,0,0,0,0,0
3060,1433,7632,893,0,0,0,0,0
3061,1672,7958,1164,0,0,0,0,0
3062,1152,7262,1411,0,0,0,0,0
3063,1712,9725,1682,0,0,0,0,0
3064,1448,8051,889,0,0,0,0,0
3065,1758,8347,1554,0,0,0,0,0
3066,1468,7863,79,0,0,0,0,0
3067,1574,7118,1668,0,0,0,0,0
3068,1582,8245,1233,0,0,0,0,0
3069,1919,7617,688,0,0,0,0,0
3070,2168,7633,1404,0,0,0,0,0
3071,956,8518,420,0,0,0,0,0
3072,992,7202,2652,0,0,0,0,0
3073,1208,8806,1887,0,0,0,0,0
3074,2073,9133,1605,792,0,0,0,0
3075,291,7509,1469,0,0,0,0,0
3076,658,6823,50,791,0,0,0,0
3077,2376,10412,2681,0,0,0,0,0
3078,1022,7506,936,0,0,0,0,0
3079,1564,9764,3316,0,0,0,0,0
3080,1078,6909,-87,0,0,0,0,0
3081,1238,8519,2826,0,0,0,0,0
3082,1809,9570,2204,0,0,0,0,0
3083,1406,8136,770,792,0,0,0,0
3084,1349,8070,1788,0,0,0,0,0
3085,1542,7463,822,0,0,0,0,0
3086,2009,6940,806,0,0,0,0,0
3087,499,7244,793,791,0,0,0,0
3088,991,7240,918,792,0,0,0,0
3089,865,7312,1809,792,0,0,0,0
3090,877,9187,144,0,0,0,0,0
3091,973,7666,124,792,0,0,0,0
3092,1076,8872,991,0,0,0,0,0
3093,718,9007,-447,1825,0,0,0,0
3094,753,7457,1398,0,0,0,0,0
3095,1060,7759,1664,792,0,0,0,0
3096,1416,8158,2520,0,0,0,0,0
3097,536,7446,-327,793,0,0,0,0
3098,714,9017,1250,0,0,0,0,0
3099,1878,7659,1397,791,0,0,0,0
3100,1040,7524,1320,0,0,0,0,0
3101,726,7762,919,793,0,0,0,0
3102,500,7924,401,0,0,0,0,0
3103,1550,7465,1200,793,0,0,0,0
3104,1110,8068,1473,0,0,0,0,0
3105,2459,7242,1536,2008,0,0,0,0
3106,1479,8338,1000,0,0,0,0,0
3107,728,7305,433,791,0,0,0,0
3108,785,7809,1280,0,0,0,0,0
3109,938,8138,1942,792,0,0,0,0
3110,2112,8101,-472,0,0,0,0,0
3111,1342,7713,2014,0,0,0,0,0
3112,1296,6104,648,2136,0,0,0,0
3113,1585,8844,3260,0,0,0,0,0
3114,912,8602,371,792,0,0,0,0
3115,919,8289,1756,0,0,0,0,0
3116,688,6114,2184,2193,0,0,0,0
3117,1665,7880,214,0,0,0,0,0
3118,1022,7676,672,2239,0,0,0,0
3119,1258,10436,3057,0,0,0,0,0
3120,1941,7838,2057,2267,0,0,0,0
3121,2340,8582,-555,0,0,0,0,0
3122,2009,7302,392,792,0,0,0,0
3123,1031,8893,-17,0,0,0,0,0
3124,1627,7860,1224,0,0,0,0,0
3125,3243,7636,-140,0,0,0,0,0
3126,1647,7153,1014,0,0,0,0,0
3127,2018,9350,1497,0,0,0,0,0
3128,173,7831,1295,0,0,0,0,0
3129,1198,7084,575,0,0,0,0,0
3130,1040,7697,375,0,0,0,0,0
3131,1779,7560,797,0,0,0,0,0
3132,1759,8168,833,0,0,0,0,0
3133,1606,8622,1440,0,0,0,0,0
3134,2717,8672,1770,0,0,0,0,0
3135,942,8440,2538,0,0,0,0,0
3136,1975,8352,656,0,0,0,0,0
3137,1867,6990,-559,0,0,0,0,0
3138,652,7998,941,0,0,0,0,0
3139,900,7963,448,0,0,0,0,0
3140,1656,6883,-788,0,0,0,0,0
3141,1067,7390,694,1274,0,0,0,0
3142,1210,6795,-1073,0,0,0,0,0
3143,1894,7954,1348,0,0,0,0,0
3144,1876,7958,2041,0,0,0,0,0
3145,1153,6464,1216,0,0,0,0,0
3146,1784,8803,1252,0,0,0,0,0
3147,2546,8088,277,0,0,0,0,0
3148,1140,6658,746,0,0,0,0,0
3149,2059,8957,336,0,0,0,0,0
3150,178,6736,-16,0,0,0,0,0
3151,982,8516,-442,0,0,0,0,0
3152,1290,8131,-993,0,0,0,0,0
3153,1850,6553,1574,0,0,0,0,0
3154,1552,7518,-361,0,0,0,0,0
3155,1083,7941,884,0,0,0,0,0
3156,2560,9690,-564,0,0,0,0,0
3157,1894,7294,438,1291,0,0,0,0
3158,1431,7200,717,2802,0,0,0,0
3159,2390,9505,752,0,0,0,0,0
3160,1127,7981,1505,2827,0,0,0,0
3161,1374,7321,108,0,0,0,0,0
3162,1209,7880,32,791,0,0,0,0
3163,2519,9098,210,792,0,0,0,0
3164,1392,9446,1917,0,0,0,0,0
3165,987,7111,352,792,0,0,0,0
3166,2221,8520,-728,0,0,0,0,0
3167,2246,8893,2687,793,0,0,0,0
3168,2056,8977,876,0,0,0,0,0
3169,2014,7959,349,0,0,0,0,0
3170,1510,7422,1078,0,0,0,0,0
3171,2982,8503,-982,0,0,0,0,0
3172,2190,5319,1858,0,0,0,0,0
3173,1673,8062,-223,0,0,0,0,0
3174,1621,7996,1620,0,0,0,0,0
3175,1369,6009,102,0,0,0,0,0
3176,2144,7332,1235,0,0,0,0,0
3177,844,8732,852,0,0,0,0,0
3178,1170,8004,292,0,0,0,0,0
3179,1768,6898,2548,0,0,0,0,0
3180,686,10230,-1140,1294,0,0,0,0
3181,2578,7046,2040,0,0,0,0,0
3182,1663,6986,2114,0,0,0,0,0
3183,2434,9045,-932,1310,0,0,0,0
3184,2343,7454,-748,0,0,0,0,0
3185,757,6802,655,0,0,0,0,0
3186,1903,6799,1880,0,0,0,0,0
3187,534,9125,-4877,0,0,0,0,0
3188,1208,7061,-5648,0,0,0,0,0
3189,482,8177,-5188,0,0,0,0,0
3190,2110,7182,-5965,0,0,0,0,0
3191,154,5767,-5996,0,0,0,0,0
3192,2418,10638,-7034,0,0,0,0,0
3193,304,7461,-4436,0,0,0,0,0
3194,1242,8074,474,0,0,0,0,0
3195,1466,8054,269,1048,0,0,0,0
3196,1215,8048,157,0,0,0,0,0
3197,1343,8056,205,0,0,0,0,0
3198,1340,8047,241,1048,0,0,0,0
3199,1337,8052,226,0,0,0,0,0
3200,1340,8040,217,0,0,0,0,0
3201,1345,8047,224,0,0,0,0,0
3202,1337,8027,238,0,0,0,0,0
3203,1340,8045,238,0,0,0,0,0
3204,1329,8042,226,0,0,0,0,0
3205,1328,8045,235,0,0,0,0,0
3206,1335,8040,231,0,0,0,0,0
3207,1346,8051,220,0,0,0,0,0
3208,1334,8031,235,0,0,0,0,0
3209,1342,8054,239,0,0,0,0,0
3210,1340,8047,235,0,0,0,0,0
3211,1338,8042,234,0,0,0,0,0
3212,1329,8048,229,0,0,0,0,0
3213,1338,8036,232,0,0,0,0,0
3214,1348,8048,230,2887,0,0,0,0
3215,1333,8052,228,0,0,0,0,0
3216,1332,8037,228,2887,0,0,0,0
3217,1341,8048,232,0,0,0,0,0
3218,1329,8055,217,2887,0,0,0,0
3219,1328,8037,237,0,0,0,0,0
3220,1341,8038,240,0,0,0,0,0
3221,1331,8046,236,1048,0,0,0,0
3222,1335,8055,250,0,0,0,0,0
3223,1340,8068,234,0,0,0,0,0
3224,1330,8044,228,1,0,0,0,0
3225,1343,8029,285,0,0,0,0,0
3226,1337,8104,355,0,0,0,0,0
3227,1320,8063,248,0,0,0,0,0
3228,1323,8061,248,0,0,0,0,0
3229,1358,8029,198,0,0,0,0,0
3230,1332,8028,217,0,0,0,0,0
3231,1327,8033,272,0,0,0,0,0
3232,1362,8065,271,0,0,0,0,0
3233,1358,8044,243,0,0,0,0,0
3234,1325,8057,224,0,0,0,0,0
3235,1343,8038,249,0,0,0,0,0
3236,1332,8076,236,0,0,0,0,0
3237,1304,8030,262,0,0,0,0,0
3238,1377,8039,227,0,0,0,0,0
3239,1331,8014,237,1054,0,0,0,0
3240,1329,8046,228,0,0,0,0,0
3241,1309,8057,228,0,0,0,0,0
3242,1363,8050,240,0,0,0,0,0
3243,1354,8020,234,0,0,0,0,0
3244,1325,8034,247,0,0,0,0,0
3245,1347,8067,263,2887,0,0,0,0
3246,1338,8063,236,0,0,0,0,0
3247,1344,8047,224,0,0,0,0,0
3248,1320,8050,227,0,0,0,0,0
3249,1320,8048,234,0,0,0,0,0
3250,1320,8044,210,0,0,0,0,0
3251,1328,8046,240,0,0,0,0,0
3252,1345,8042,221,0,0,0,0,0
3253,1348,8048,234,0,0,0,0,0
3254,1327,8052,212,0,0,0,0,0
3255,1343,8035,231,0,0,0,0,0
3256,1334,8041,228,0,0,0,0,0
3257,1344,8058,219,1054,0,0,0,0
3258,1333,8043,222,0,0,0,0,0
3259,1342,8030,237,0,0,0,0,0
3260,1343,8051,224,0,0,0,0,0
3261,1321,8039,222,0,0,0,0,0
3262,1336,8050,234,0,0,0,0,0
3263,1335,8040,228,0,0,0,0,0
3264,1335,8044,244,0,0,0,0,0
3265,1346,8050,216,0,0,0,0,0
3266,1329,8015,220,0,0,0,0,0
3267,1342,8054,233,0,0,0,0,0
3268,1340,8028,227,0,0,0,0,0
3269,1329,8045,222,0,0,0,0,0
3270,1349,8054,224,0,0,0,0,0
3271,1320,8044,230,0,0,0,0,0
3272,1335,8038,238,0,0,0,0,0
3273,1324,8038,214,0,0,0,0,0
3274,1356,8044,232,0,0,0,0,0
3275,1333,8046,209,0,0,0,0,0
3276,1319,8038,228,0,0,0,0,0
3277,1346,8036,211,0,0,0,0,0
3278,1334,8058,199,0,0,0,0,0
3279,1343,8043,207,0,0,0,0,0
3280,1326,8033,220,0,0,0,0,0
3281,1337,8049,246,0,0,0,0,0
3282,1345,8054,233,2887,0,0,0,0
3283,1330,8044,230,0,0,0,0,0
3284,1314,8056,225,2887,0,0,0,0
3285,1330,8034,237,0,0,0,0,0
3286,1325,8064,228,2887,0,0,0,0
3287,1326,8040,241,1054,0,0,0,0
3288,1345,8041,230,0,0,0,0,0
3289,1332,8029,218,0,0,0,0,0
3290,1327,8060,239,0,0,0,0,0
3291,1330,8022,211,0,0,0,0,0
3292,1344,8051,242,0,0,0,0,0
3293,1332,8074,245,0,0,0,0,0
3294,1326,8013,226,0,0,0,0,0
3295,1333,8059,247,0,0,0,0,0
3296,1324,8049,248,1048,0,0,0,0
3297,1336,8034,234,0,0,0,0,0
3298,1367,8070,224,0,0,0,0,0
3299,1328,8027,236,0,0,0,0,0
3300,1296,8046,268,0,0,0,0,0
3301,1338,8047,203,0,0,0,0,0
3302,1354,8032,226,0,0,0,0,0
3303,1319,8048,240,0,0,0,0,0
3304,1335,8044,220,0,0,0,0,0
3305,1334,8036,218,0,0,0,0,0
3306,1296,8032,202,0,0,0,0,0
3307,1350,8053,239,0,0,0,0,0
3308,1320,8031,200,0,0,0,0,0
3309,1362,8056,244,0,0,0,0,0
3310,1343,8048,214,0,0,0,0,0
3311,1328,8030,211,0,0,0,0,0
3312,1256,8053,246,0,0,0,0,0
3313,1318,8026,189,1048,0,0,0,0
3314,1310,8080,220,0,0,0,0,0
3315,1368,8027,235,2887,0,0,0,0
3316,1310,8064,236,0,0,0,0,0
3317,1351,8021,215,0,0,0,0,0
3318,1320,8062,242,0,0,0,0,0
3319,1346,8045,236,0,0,0,0,0
3320,1320,8046,208,0,0,0,0,0
3321,1345,8042,240,0,0,0,0,0
3322,1335,8057,235,0,0,0,0,0
3323,1310,8036,240,0,0,0,0,0
3324,1370,8054,282,0,0,0,0,0
3325,1308,8033,210,0,0,0,0,0
3326,1328,8050,271,2887,0,0,0,0
3327,1301,8147,116,1054,0,0,0,0
3328,1333,8002,132,1054,0,0,0,0
3329,1341,8044,238,0,0,0,0,0
3330,1316,8034,202,0,0,0,0,0
3331,1340,8054,208,0,0,0,0,0
3332,1344,8047,232,0,0,0,0,0
3333,1336,8030,222,0,0,0,0,0
3334,1347,8066,248,0,0,0,0,0
3335,1359,8042,223,0,0,0,0,0
3336,1347,8027,206,0,0,0,0,0
3337,1344,8064,232,0,0,0,0,0
3338,1340,8039,230,0,0,0,0,0
3339,1350,8025,213,1048,0,0,0,0
3340,1338,8044,185,0,0,0,0,0
3341,1338,8055,272,0,0,0,0,0
3342,1352,8024,200,0,0,0,0,0
3343,1336,8036,230,1048,0,0,0,0
3344,1340,8063,214,0,0,0,0,0
3345,1349,8038,223,1048,0,0,0,0
3346,1338,8044,248,0,0,0,0,0
3347,1338,8006,190,0,0,0,0,0
3348,1348,8092,256,0,0,0,0,0
3349,1346,8068,248,1048,0,0,0,0
3350,1329,8029,266,0,0,0,0,0
3351,1388,8074,211,1048,0,0,0,0
3352,1344,8048,224,0,0,0,0,0
3353,1322,8023,250,0,0,0,0,0
3354,1334,8085,221,0,0,0,0,0
3355,1360,8020,235,0,0,0,0,0
3356,1327,7997,193,0,0,0,0,0
3357,1325,8095,240,0,0,0,0,0
3358,1343,8018,249,0,0,0,0,0
3359,1364,8037,244,1048,0,0,0,0
3360,1329,8058,204,0,0,0,0,0
3361,1341,8061,241,0,0,0,0,0
3362,1348,8050,262,0,0,0,0,0
3363,1316,8040,213,0,0,0,0,0
3364,1331,8065,234,0,0,0,0,0
3365,1380,8024,278,0,0,0,0,0
3366,1343,8048,192,0,0,0,0,0
3367,1324,8090,224,0,0,0,0,0
3368,1323,8007,222,1048,0,0,0,0
3369,1372,8030,230,0,0,0,0,0
3370,1357,8077,232,2887,0,0,0,0
3371,1314,8038,215,0,0,0,0,0
3372,1354,8028,215,1054,0,0,0,0
3373,1354,8045,223,0,0,0,0,0
3374,1327,8029,215,0,0,0,0,0
3375,1358,8052,219,0,0,0,0,0
3376,1341,8042,215,0,0,0,0,0
3377,1346,8042,251,0,0,0,0,0
3378,1355,8050,225,1048,0,0,0,0
3379,1329,8020,221,0,0,0,0,0
3380,1349,8051,218,1048,0,0,0,0
3381,1356,8057,224,0,0,0,0,0
3382,1332,8026,246,0,0,0,0,0
3383,1334,8046,226,0,0,0,0,0
3384,1343,8030,214,0,0,0,0,0
3385,1327,8047,235,0,0,0,0,0
3386,1345,8049,231,0,0,0,0,0
3387,1350,8026,213,1048,0,0,0,0
3388,1334,8052,246,0,0,0,0,0
3389,1345,8049,248,0,0,0,0,0
3390,1342,8036,200,0,0,0,0,0
3391,1344,8053,232,0,0,0,0,0
3392,1334,8032,234,0,0,0,0,0
3393,1352,8050,238,0,0,0,0,0
3394,1341,8047,208,0,0,0,0,0
3395,1334,8024,227,0,0,0,0,0
3396,1343,8047,218,0,0,0,0,0
3397,1336,8030,210,0,0,0,0,0
3398,1346,8048,235,0,0,0,0,0
3399,1341,8041,232,0,0,0,0,0
3400,1339,8035,198,0,0,0,0,0
3401,1353,8034,230,0,0,0,0,0
3402,1342,8052,239,2887,0,0,0,0
3403,1347,8063,235,0,0,0,0,0
3404,1334,8009,211,2887,0,0,0,0
3405,1342,8053,200,0,0,0,0,0
3406,1354,8055,236,0,0,0,0,0
3407,1339,8054,224,0,0,0,0,0
3408,1334,8050,229,0,0,0,0,0
3409,1340,8056,204,2887,0,0,0,0
3410,1355,8041,204,0,0,0,0,0
3411,1347,8043,199,0,0,0,0,0
3412,1333,8044,228,0,0,0,0,0
3413,1356,8032,231,0,0,0,0,0
3414,1370,8059,226,1048,0,0,0,0
3415,1340,8034,223,0,0,0,0,0
3416,1349,8054,243,0,0,0,0,0
3417,1331,8044,225,0,0,0,0,0
3418,1338,8028,231,0,0,0,0,0
3419,1349,8052,220,0,0,0,0,0
3420,1344,8043,189,0,0,0,0,0
3421,1347,8054,249,0,0,0,0,0
3422,1318,8035,262,0,0,0,0,0
3423,1339,8058,210,0,0,0,0,0
3424,1376,8053,228,0,0,0,0,0
3425,1348,8044,239,0,0,0,0,0
3426,1326,8022,200,0,0,0,0,0
3427,1344,8045,243,0,0,0,0,0
3428,1350,8038,247,0,0,0,0,0
3429,1352,8055,204,2887,0,0,0,0
3430,1347,8034,186,0,0,0,0,0
3431,1356,8061,209,2887,0,0,0,0
3432,1321,8054,263,1048,0,0,0,0
3433,1302,8017,201,1054,0,0,0,0
3434,1368,8050,200,1054,0,0,0,0
3435,1325,8026,222,0,0,0,0,0
3436,1322,8054,241,0,0,0,0,0
3437,1362,8042,220,0,0,0,0,0
3438,1351,8042,246,0,0,0,0,0
3439,1358,8048,257,0,0,0,0,0
3440,1313,8044,255,0,0,0,0,0
3441,1330,8044,227,0,0,0,0,0
3442,1382,8046,228,0,0,0,0,0
3443,1324,8036,214,0,0,0,0,0
3444,1314,8060,242,0,0,0,0,0
3445,1352,8030,222,0,0,0,0,0
3446,1354,8036,219,0,0,0,0,0
3447,1348,8045,220,2887,0,0,0,0
3448,1323,8037,224,0,0,0,0,0
3449,1339,8040,205,1054,0,0,0,0
3450,1315,8024,235,0,0,0,0,0
3451,1375,8077,203,0,0,0,0,0
3452,1337,8048,232,0,0,0,0,0
3453,1354,8050,263,1048,0,0,0,0
3454,1368,8032,244,0,0,0,0,0
3455,1332,8032,201,0,0,0,0,0
3456,1344,8046,240,0,0,0,0,0
3457,1334,8070,272,2887,0,0,0,0
3458,1334,8043,186,0,0,0,0,0
3459,1320,8052,215,0,0,0,0,0
3460,1347,8042,226,0,0,0,0,0
3461,1331,8026,233,0,0,0,0,0
3462,1361,8048,230,0,0,0,0,0
3463,1383,8031,242,0,0,0,0,0
3464,1329,8059,228,0,0,0,0,0
3465,1366,8049,253,0,0,0,0,0
3466,1345,8016,199,0,0,0,0,0
3467,1314,8010,292,0,0,0,0,0
3468,1375,8066,216,0,0,0,0,0
3469,1326,8009,270,0,0,0,0,0
3470,1339,8052,218,0,0,0,0,0
3471,1341,8029,256,0,0,0,0,0
3472,1383,7976,248,0,0,0,0,0
3473,1326,8082,232,0,0,0,0,0
3474,1346,8054,206,1054,0,0,0,0
3475,1366,8072,266,0,0,0,0,0
3476,1345,8042,232,1054,0,0,0,0
3477,1350,8015,258,0,0,0,0,0
3478,1362,8065,226,0,0,0,0,0
3479,1326,8013,200,0,0,0,0,0
3480,1368,8024,240,0,0,0,0,0
3481,1350,8040,233,2887,0,0,0,0
3482,1340,8043,224,0,0,0,0,0
3483,1328,8047,220,2887,0,0,0,0
3484,1352,8040,227,0,0,0,0,0
3485,1337,8057,218,0,0,0,0,0
3486,1327,8046,229,0,0,0,0,0
3487,1336,8046,234,0,0,0,0,0
3488,1346,8048,224,0,0,0,0,0
3489,1341,8044,228,2887,0,0,0,0
3490,1334,8047,235,0,0,0,0,0
3491,1343,8046,222,2887,0,0,0,0
3492,1345,8056,224,1054,0,0,0,0
3493,1339,8055,227,0,0,0,0,0
3494,1342,8035,232,1054,0,0,0,0
3495,1354,8041,234,0,0,0,0,0
3496,1339,8054,228,0,0,0,0,0
3497,1354,8032,232,0,0,0,0,0
3498,1345,8050,227,0,0,0,0,0
3499,1338,8036,220,0,0,0,0,0
3500,1342,8043,229,0,0,0,0,0
3501,1352,8051,240,0,0,0,0,0
3502,1340,8036,231,2887,0,0,0,0
3503,1341,8037,214,0,0,0,0,0
3504,1341,8052,222,0,0,0,0,0
3505,1346,8034,225,0,0,0,0,0
3506,1349,8046,221,0,0,0,0,0
3507,1347,8048,228,0,0,0,0,0
3508,1339,8042,235,0,0,0,0,0
3509,1334,8036,236,0,0,0,0,0
3510,1345,8051,230,0,0,0,0,0
3511,1338,8042,231,1048,0,0,0,0
3512,1335,8047,222,0,0,0,0,0
3513,1347,8032,233,1048,0,0,0,0
3514,1345,8042,226,0,0,0,0,0
3515,1344,8048,230,0,0,0,0,0
3516,1340,8044,231,0,0,0,0,0
3517,1342,8044,226,0,0,0,0,0
3518,1336,8040,228,0,0,0,0,0
3519,1343,8052,230,0,0,0,0,0
3520,1340,8051,236,0,0,0,0,0
3521,1338,8042,226,0,0,0,0,0
3522,1336,8038,218,0,0,0,0,0
3523,1350,8048,233,0,0,0,0,0
3524,1342,8043,225,0,0,0,0,0
3525,1346,8048,226,0,0,0,0,0
3526,1344,8049,220,0,0,0,0,0
3527,1345,8037,232,0,0,0,0,0
3528,1345,8038,226,0,0,0,0,0
3529,1354,8042,228,0,0,0,0,0
3530,1320,8045,230,1054,0,0,0,0
3531,1373,8038,229,0,0,0,0,0
3532,1356,8050,232,0,0,0,0,0
3533,1317,8047,222,0,0,0,0,0
3534,1349,8036,237,0,0,0,0,0
3535,1344,8051,228,0,0,0,0,0
3536,1336,8042,230,1048,0,0,0,0
3537,1339,8038,222,0,0,0,0,0
3538,1350,8043,238,0,0,0,0,0
3539,1333,8046,238,0,0,0,0,0
3540,1352,8043,219,0,0,0,0,0
3541,1344,8050,221,0,0,0,0,0
3542,1341,8048,240,0,0,0,0,0
3543,1345,8044,232,0,0,0,0,0
3544,1344,8044,226,0,0,0,0,0
3545,1334,8046,217,0,0,0,0,0
3546,1341,8047,229,0,0,0,0,0
3547,1353,8041,234,0,0,0,0,0
3548,1345,8050,228,0,0,0,0,0
3549,1347,8043,237,0,0,0,0,0
3550,1337,8046,222,2887,0,0,0,0
3551,1344,8046,228,2887,0,0,0,0
3552,1342,8039,231,0,0,0,0,0
3553,1342,8050,234,1054,0,0,0,0
3554,1338,8037,228,0,0,0,0,0
3555,1340,8042,227,1054,0,0,0,0
3556,1339,8039,232,0,0,0,0,0
3557,1336,8040,234,0,0,0,0,0
3558,1344,8042,238,0,0,0,0,0
3559,1342,8040,222,0,0,0,0,0
3560,1336,8045,234,0,0,0,0,0
3561,1337,8046,223,0,0,0,0,0
3562,1340,8038,238,1048,0,0,0,0
3563,1340,8046,230,0,0,0,0,0
3564,1346,8040,223,0,0,0,0,0
3565,1343,8046,233,0,0,0,0,0
3566,1343,8047,230,0,0,0,0,0
3567,1341,8047,222,0,0,0,0,0
3568,1341,8040,227,0,0,0,0,0
3569,1343,8041,228,0,0,0,0,0
3570,1345,8049,234,0,0,0,0,0
3571,1335,8042,234,0,0,0,0,0
3572,1344,8047,224,0,0,0,0,0
3573,1338,8042,227,0,0,0,0,0
3574,1344,8046,242,0,0,0,0,0
3575,1344,8051,230,0,0,0,0,0
3576,1352,8043,228,0,0,0,0,0
3577,1346,8041,220,0,0,0,0,0
3578,1346,8044,231,0,0,0,0,0
3579,1346,8045,228,0,0,0,0,0
3580,1337,8044,226,0,0,0,0,0
3581,1344,8044,231,2887,0,0,0,0
3582,1342,8047,232,0,0,0,0,0
3583,1339,8049,232,1054,0,0,0,0
3584,1339,8036,228,0,0,0,0,0
3585,1344,8045,230,0,0,0,0,0
3586,1336,8044,231,0,0,0,0,0
3587,1334,8042,235,0,0,0,0,0
3588,1346,8042,234,0,0,0,0,0
3589,1338,8043,222,0,0,0,0,0
3590,1338,8038,229,0,0,0,0,0
3591,1341,8047,218,0,0,0,0,0
3592,1342,8042,237,0,0,0,0,0
3593,1336,8042,222,1048,0,0,0,0
3594,1343,8036,220,0,0,0,0,0
3595,1347,8049,235,2887,0,0,0,0
3596,1342,8051,224,1048,0,0,0,0
3597,1340,8040,232,0,0,0,0,0
3598,1342,8042,230,0,0,0,0,0
3599,1334,8050,222,0,0,0,0,0
3600,1342,8044,228,0,0,0,0,0
3601,1338,8050,237,0,0,0,0,0
3602,1341,8044,234,0,0,0,0,0
3603,1343,8040,225,0,0,0,0,0
3604,1341,8044,232,0,0,0,0,0
3605,1344,8039,230,0,0,0,0,0
3606,1342,8046,229,0,0,0,0,0
3607,1334,8043,218,0,0,0,0,0
3608,1343,8048,221,0,0,0,0,0
3609,1339,8044,223,0,0,0,0,0
3610,1339,8048,238,0,0,0,0,0
3611,1338,8043,224,0,0,0,0,0
3612,1344,8038,223,0,0,0,0,0
3613,1344,8040,228,0,0,0,0,0
3614,1338,8042,227,0,0,0,0,0
3615,1350,8052,229,0,0,0,0,0
3616,1338,8050,219,2887,0,0,0,0
3617,1348,8033,232,0,0,0,0,0
3618,1343,8044,223,0,0,0,0,0
3619,1352,8049,230,0,0,0,0,0
3620,1338,8046,233,0,0,0,0,0
3621,1348,8034,228,0,0,0,0,0
3622,1336,8052,227,0,0,0,0,0
3623,1338,8037,227,0,0,0,0,0
3624,1330,8035,218,0,0,0,0,0
3625,1346,8064,238,0,0,0,0,0
3626,1340,8040,225,0,0,0,0,0
3627,1338,8051,234,0,0,0,0,0
3628,1342,8046,221,0,0,0,0,0
3629,1349,8040,230,0,0,0,0,0
3630,1336,8047,226,0,0,0,0,0
3631,1350,8049,222,0,0,0,0,0
3632,1346,8041,223,0,0,0,0,0
3633,1336,8052,236,0,0,0,0,0
3634,1338,8044,230,0,0,0,0,0
3635,1337,8040,226,0,0,0,0,0
3636,1348,8045,222,0,0,0,0,0
3637,1336,8048,229,0,0,0,0,0
3638,1345,8036,236,0,0,0,0,0
3639,1339,8055,229,2887,0,0,0,0
3640,1330,8044,231,0,0,0,0,0
3641,1343,8042,224,0,0,0,0,0
3642,1350,8045,233,0,0,0,0,0
3643,1342,8045,227,2887,0,0,0,0
3644,1338,8037,222,0,0,0,0,0
3645,1350,8046,224,2887,0,0,0,0
3646,1343,8049,225,0,0,0,0,0
3647,1338,8046,228,0,0,0,0,0
3648,1339,8044,220,2887,0,0,0,0
3649,1346,8041,227,0,0,0,0,0
3650,1348,8047,238,1054,0,0,0,0
3651,1338,8045,236,0,0,0,0,0
3652,1337,8041,217,2887,0,0,0,0
3653,1343,8054,233,0,0,0,0,0
3654,1347,8044,228,1054,0,0,0,0
3655,1333,8038,232,0,0,0,0,0
3656,1344,8043,234,2887,0,0,0,0
3657,1337,8047,226,0,0,0,0,0
3658,1340,8037,226,1054,0,0,0,0
3659,1341,8046,237,0,0,0,0,0
3660,1336,8048,231,1054,0,0,0,0
3661,1345,8046,222,0,0,0,0,0
3662,1342,8044,230,0,0,0,0,0
3663,1343,8046,232,0,0,0,0,0
3664,1343,8039,234,0,0,0,0,0
3665,1337,8048,233,0,0,0,0,0
3666,1341,8045,221,1054,0,0,0,0
3667,1348,8041,234,0,0,0,0,0
3668,1347,8042,223,0,0,0,0,0
3669,1341,8036,222,0,0,0,0,0
3670,1341,8042,229,0,0,0,0,0
3671,1336,8044,235,0,0,0,0,0
3672,1345,8048,220,0,0,0,0,0
3673,1346,8044,214,0,0,0,0,0
3674,1344,8039,233,0,0,0,0,0
3675,1345,8038,229,0,0,0,0,0
3676,1331,8045,218,0,0,0,0,0
3677,1338,8047,225,0,0,0,0,0
3678,1340,8046,219,0,0,0,0,0
3679,1343,8044,236,0,0,0,0,0
3680,1341,8052,234,0,0,0,0,0
3681,1340,8046,224,0,0,0,0,0
3682,1347,8041,218,0,0,0,0,0
3683,1342,8048,235,0,0,0,0,0
3684,1344,8039,234,0,0,0,0,0
3685,1342,8045,232,0,0,0,0,0
3686,1344,8038,220,0,0,0,0,0
3687,1341,8042,233,0,0,0,0,0
3688,1350,8044,240,0,0,0,0,0
3689,1336,8052,226,0,0,0,0,0
3690,1341,8043,222,0,0,0,0,0
3691,1349,8041,220,0,0,0,0,0
3692,1344,8050,232,0,0,0,0,0
3693,1342,8038,240,0,0,0,0,0
3694,1338,8042,228,0,0,0,0,0
3695,1334,8041,226,0,0,0,0,0
3696,1343,8048,232,0,0,0,0,0
3697,1341,8048,224,0,0,0,0,0
3698,1336,8049,224,1048,0,0,0,0
3699,1348,8046,231,0,0,0,0,0
3700,1339,8050,229,0,0,0,0,0
3701,1340,8044,234,0,0,0,0,0
3702,1343,8045,227,0,0,0,0,0
3703,1341,8043,229,0,0,0,0,0
3704,1345,8051,234,0,0,0,0,0
3705,1344,8041,228,1048,0,0,0,0
3706,1345,8045,225,0,0,0,0,0
3707,1336,8046,229,0,0,0,0,0
3708,1344,8040,235,0,0,0,0,0
3709,1346,8039,222,0,0,0,0,0
3710,1344,8047,226,0,0,0,0,0
3711,1334,8043,221,0,0,0,0,0
3712,1346,8043,233,0,0,0,0,0
3713,1338,8040,227,0,0,0,0,0
3714,1341,8044,232,0,0,0,0,0
3715,1340,8043,221,0,0,0,0,0
3716,1331,8044,222,0,0,0,0,0
3717,1344,8050,234,0,0,0,0,0
3718,1348,8044,221,0,0,0,0,0
3719,1344,8046,228,0,0,0,0,0
3720,1338,8052,224,0,0,0,0,0
3721,1343,8038,227,0,0,0,0,0
3722,1342,8037,224,0,0,0,0,0
3723,1342,8047,234,0,0,0,0,0
3724,1351,8043,232,0,0,0,0,0
3725,1346,8051,223,0,0,0,0,0
3726,1342,8036,238,0,0,0,0,0
3727,1346,8041,234,0,0,0,0,0
3728,1338,8045,230,0,0,0,0,0
3729,1338,8040,228,0,0,0,0,0
3730,1348,8040,236,0,0,0,0,0
3731,1343,8042,229,0,0,0,0,0
3732,1340,8033,232,0,0,0,0,0
3733,1336,8047,233,0,0,0,0,0
3734,1345,8042,236,0,0,0,0,0
3735,1345,8054,230,0,0,0,0,0
3736,1334,8041,238,0,0,0,0,0
3737,1339,8044,230,0,0,0,0,0
3738,1345,8044,234,0,0,0,0,0
3739,1342,8042,214,0,0,0,0,0
3740,1350,8042,242,0,0,0,0,0
3741,1340,8040,237,0,0,0,0,0
3742,1345,8049,232,0,0,0,0,0
3743,1350,8042,228,0,0,0,0,0
3744,1340,8043,228,2887,0,0,0,0
3745,1341,8052,238,0,0,0,0,0
3746,1349,8046,226,0,0,0,0,0
3747,1340,8040,226,0,0,0,0,0
3748,1343,8046,225,2887,0,0,0,0
3749,1344,8051,238,0,0,0,0,0
3750,1340,8043,234,0,0,0,0,0
3751,1338,8040,219,0,0,0,0,0
3752,1343,8042,230,0,0,0,0,0
3753,1346,8040,240,0,0,0,0,0
3754,1346,8044,232,0,0,0,0,0
3755,1350,8044,214,0,0,0,0,0
3756,1354,8038,224,0,0,0,0,0
3757,1338,8052,244,0,0,0,0,0
3758,1338,8048,223,0,0,0,0,0
3759,1345,8038,225,0,0,0,0,0
3760,1342,8038,246,0,0,0,0,0
3761,1341,8051,236,0,0,0,0,0
3762,1354,8035,228,0,0,0,0,0
3763,1336,8039,212,0,0,0,0,0
3764,1342,8060,226,0,0,0,0,0
3765,1346,8018,223,0,0,0,0,0
3766,1339,8040,221,0,0,0,0,0
3767,1339,8058,228,0,0,0,0,0
3768,1324,8038,225,0,0,0,0,0
3769,1338,8040,226,0,0,0,0,0
3770,1336,8053,214,0,0,0,0,0
3771,1341,8026,232,0,0,0,0,0
3772,1343,8055,236,0,0,0,0,0
3773,1353,8049,221,0,0,0,0,0
3774,1342,8036,238,0,0,0,0,0
3775,1348,8028,220,0,0,0,0,0
3776,1333,8051,222,0,0,0,0,0
3777,1340,8054,233,0,0,0,0,0
3778,1342,8036,230,0,0,0,0,0
3779,1355,8044,236,0,0,0,0,0
3780,1330,8049,219,0,0,0,0,0
3781,1344,8040,233,0,0,0,0,0
3782,1330,8057,230,0,0,0,0,0
3783,1343,8034,239,0,0,0,0,0
3784,1347,8054,215,0,0,0,0,0
3785,1339,8046,222,0,0,0,0,0
3786,1336,8042,225,0,0,0,0,0
3787,1342,8054,228,0,0,0,0,0
3788,1357,8039,221,0,0,0,0,0
3789,1337,8039,220,0,0,0,0,0
3790,1337,8050,219,0,0,0,0,0
3791,1342,8046,225,0,0,0,0,0
3792,1342,8043,229,2887,0,0,0,0
3793,1334,8038,231,0,0,0,0,0
3794,1335,8038,226,2887,0,0,0,0
3795,1337,8037,232,0,0,0,0,0
3796,1341,8052,239,0,0,0,0,0
3797,1347,8046,224,0,0,0,0,0
3798,1338,8048,224,1054,0,0,0,0
3799,1348,8044,223,0,0,0,0,0
3800,1341,8050,224,0,0,0,0,0
3801,1348,8045,236,0,0,0,0,0
3802,1342,8051,226,0,0,0,0,0
3803,1338,8044,230,0,0,0,0,0
3804,1345,8042,225,0,0,0,0,0
3805,1341,8050,224,0,0,0,0,0
3806,1342,8048,229,0,0,0,0,0
3807,1343,8050,236,0,0,0,0,0
3808,1333,8044,204,0,0,0,0,0
3809,1336,8041,226,0,0,0,0,0
3810,1344,8053,253,0,0,0,0,0
3811,1339,8034,236,0,0,0,0,0
3812,1344,8016,206,0,0,0,0,0
3813,1330,8045,202,0,0,0,0,0
3814,1350,8028,216,0,0,0,0,0
3815,1324,8044,226,0,0,0,0,0
3816,1262,8068,274,0,0,0,0,0
3817,1410,8032,262,0,0,0,0,0
3818,1346,8047,275,0,0,0,0,0
3819,1340,8080,253,0,0,0,0,0
3820,1400,8028,174,0,0,0,0,0
3821,1393,8018,207,2887,0,0,0,0
3822,1224,8042,316,0,0,0,0,0
3823,1387,8035,222,0,0,0,0,0
3824,1311,8049,218,1054,0,0,0,0
3825,1305,8057,206,0,0,0,0,0
3826,1376,8033,254,1054,0,0,0,0
3827,1338,8047,232,0,0,0,0,0
3828,1370,8040,209,0,0,0,0,0
3829,1352,8057,204,0,0,0,0,0
3830,1324,8044,270,0,0,0,0,0
3831,1336,8040,498,1048,0,0,0,0
3832,1355,8059,194,0,0,0,0,0
3833,1329,8026,180,0,0,0,0,0
3834,1338,8041,233,0,0,0,0,0
3835,1341,8042,236,0,0,0,0,0
3836,1329,8024,241,0,0,0,0,0
3837,1330,8056,234,0,0,0,0,0
3838,1362,8056,213,0,0,0,0,0
3839,1335,8032,219,0,0,0,0,0
3840,1339,8043,227,0,0,0,0,0
3841,1344,8059,215,0,0,0,0,0
3842,1340,8042,228,1048,0,0,0,0
3843,1336,8049,227,0,0,0,0,0
3844,1341,8043,231,0,0,0,0,0
3845,1342,8046,233,0,0,0,0,0
3846,1328,8042,229,0,0,0,0,0
3847,1333,8049,234,0,0,0,0,0
3848,1352,8032,207,0,0,0,0,0
3849,1334,8051,215,0,0,0,0,0
3850,1331,8047,212,0,0,0,0,0
3851,1340,8063,242,0,0,0,0,0
3852,1322,8035,230,0,0,0,0,0
3853,1339,8025,220,0,0,0,0,0
3854,1348,8067,242,0,0,0,0,0
3855,1330,8038,231,1048,0,0,0,0
3856,1342,8044,210,0,0,0,0,0
3857,1345,8040,242,0,0,0,0,0
3858,1337,8028,219,0,0,0,0,0
3859,1341,8058,252,0,0,0,0,0
3860,1336,8041,220,0,0,0,0,0
3861,1340,8017,208,0,0,0,0,0
3862,1344,8062,230,0,0,0,0,0
3863,1363,8019,169,0,0,0,0,0
3864,622,8127,160,0,0,0,0,0
3865,637,8121,208,0,0,0,0,0
3866,625,8126,167,0,0,0,0,0
3867,624,8101,232,0,0,0,0,0
3868,657,8110,186,0,0,0,0,0
3869,635,8136,238,0,0,0,0,0
3870,582,8145,241,0,0,0,0,0
3871,600,8134,243,0,0,0,0,0
3872,616,8129,212,0,0,0,0,0
3873,640,8122,229,0,0,0,0,0
3874,522,8108,195,0,0,0,0,0
3875,602,8128,224,0,0,0,0,0
3876,623,8140,232,0,0,0,0,0
3877,564,8132,209,0,0,0,0,0
3878,660,8104,213,0,0,0,0,0
3879,642,8155,225,0,0,0,0,0
3880,689,8126,238,0,0,0,0,0
3881,524,8189,362,0,0,0,0,0
3882,572,8204,417,0,0,0,0,0
3883,689,8098,189,0,0,0,0,0
3884,689,8199,478,0,0,0,0,0
3885,654,7956,10,0,0,0,0,0
3886,494,8050,9,0,0,0,0,0
3887,731,8549,506,0,0,0,0,0
3888,747,8081,531,0,0,0,0,0
3889,576,8052,175,0,0,0,0,0
3890,621,8203,435,0,0,0,0,0
3891,562,8192,109,0,0,0,0,0
3892,604,8031,242,0,0,0,0,0
3893,620,8143,98,0,0,0,0,0
3894,590,8166,264,0,0,0,0,0
3895,625,8100,185,0,0,0,0,0
3896,668,8188,354,0,0,0,0,0
3897,608,8117,162,0,0,0,0,0
3898,635,8136,116,0,0,0,0,0
3899,645,8116,202,0,0,0,0,0
3900,787,8076,314,0,0,0,0,0
3901,612,8248,164,0,0,0,0,0
3902,716,8212,145,0,0,0,0,0
3903,647,8046,154,0,0,0,0,0
3904,707,8149,266,0,0,0,0,0
3905,631,8214,474,0,0,0,0,0
3906,565,8085,190,0,0,0,0,0
3907,706,8138,373,0,0,0,0,0
3908,704,8117,168,0,0,0,0,0
3909,616,8170,153,0,0,0,0,0
3910,604,8068,260,0,0,0,0,0
3911,649,8147,105,0,0,0,0,0
3912,654,8097,192,0,0,0,0,0
3913,605,8115,230,0,0,0,0,0
3914,592,8147,199,0,0,0,0,0
3915,674,8122,237,0,0,0,0,0
3916,633,8138,225,0,0,0,0,0
3917,608,8111,199,0,0,0,0,0
3918,609,8162,301,0,0,0,0,0
3919,638,8135,232,0,0,0,0,0
3920,620,8115,187,0,0,0,0,0
3921,616,8142,197,0,0,0,0,0
3922,628,8121,246,0,0,0,0,0
3923,643,8138,236,0,0,0,0,0
3924,633,8133,210,0,0,0,0,0
3925,646,8128,216,0,0,0,0,0
3926,624,8142,182,0,0,0,0,0
3927,605,8130,213,0,0,0,0,0
3928,630,8157,306,0,0,0,0,0
3929,648,8138,331,0,0,0,0,0
3930,636,8148,237,0,0,0,0,0
3931,639,8219,176,0,0,0,0,0
3932,622,8100,160,0,0,0,0,0
3933,590,8018,189,0,0,0,0,0
3934,603,8250,305,0,0,0,0,0
3935,610,8030,58,0,0,0,0,0
3936,725,8207,268,0,0,0,0,0
3937,614,8061,202,0,0,0,0,0
3938,531,8038,215,0,0,0,0,0
