index,date,ACCEL_X,ACCEL_Y,ACCEL_Z
0,1780259510892,-13,-30,18
1,1780259511612,-62,0,-36
2,1780259511996,-11,0,7204
3,1780259512613,4,17,9
4,1780259512779,29,-21,-3
5,1780259513396,-5,-13,-15
6,1780259514045,4,-9,-2
7,1780259514379,5,-8,1
8,1780259514680,5,-9,0
9,1780259514713,3,-7,1
10,1780259516662,5,-9,-1
11,1780259516996,4,-8,0
12,1780259517664,3,-9,1
13,1780259518029,4,-9,0
14,1780259519346,4,-9,-2
15,1780259521813,4,-7,1
16,1780259522197,5,-7,1
17,1780259524279,3,-8,-1
18,1780259524616,6,-9,1
19,1780259526028,5,-7,0
20,1780259526729,5,-8,1
21,1780259527513,2,-8,2
22,1780259530148,3,-8,1
23,1780259531145,3,-8,-1
24,1780259531445,3,-9,-1
25,1780259532461,1,-9,-3
26,1780259607474,4,-6,-1
27,1780259607607,5,-7,1
28,1780259609074,3,-10,-2
29,1780259609207,5,-9,0
30,1780259609275,4,-7,-1
31,1780259609557,5,-9,0
32,1780259610091,3,-8,0
33,1780259610457,6,-7,0
34,1780259611240,3,-9,-1
35,1780259612024,3,-8,0
36,1780259612642,5,-11,-1
37,1780259612690,5,-9,-1
38,1780259613874,5,-8,0
39,1780259614540,4,-9,-1
40,1780259614924,3,-8,1
41,1780259615341,4,-7,0
42,1780259615624,4,-9,0
43,1780259615707,4,-8,1
44,1780259616457,4,-7,0
45,1780259618157,3,-6,-1
46,1780259619408,2,-8,-1
47,1780259619541,4,-9,-1
48,1780259627039,5,-7,-1
49,1780259627324,3,-8,0
50,1780259628256,6,-6,0
51,1780259629657,4,-8,0
52,1780259631638,6,-9,0
53,1780259632458,4,-9,0
54,1780259632589,4,-7,0
55,1780259632839,5,-7,0
56,1780259633373,3,-9,-1
57,1780259633572,6,-9,0
58,1780259633872,4,-9,0
59,1780259634440,6,-9,1
60,1780259635141,4,-7,0
61,1780259635839,5,-8,0
62,1780259636039,4,-7,0
63,1780259636324,2,-7,0
64,1780259636956,3,-8,0
65,1780259637223,5,-9,-1
66,1780259638491,6,-8,0
67,1780259638989,5,-8,-1
68,1780259639156,4,-6,-1
69,1780259639522,3,-8,0
70,1780259639990,6,-10,1
71,1780259640356,3,-8,-1
72,1780259640472,4,-7,0
73,1780259640841,2,-6,0
74,1780259640889,5,-7,-1
75,1780259641923,2,-7,0
76,1780259642039,5,-8,1
77,1780259642491,5,-8,0
78,1780259642656,5,-8,1
79,1780259642738,5,-8,0
80,1780259643155,4,-8,1
81,1780259644223,8,-9,0
82,1780259644389,4,-9,2
83,1780259645672,4,-8,-2
84,1780259646205,3,-8,-1
85,1780259646455,5,-7,-1
86,1780259646789,5,-7,0
87,1780259646823,3,-8,-1
88,1780259647239,3,-9,-1
89,1780259648605,5,-7,-1
90,1780259649474,5,-6,0
91,1780259649588,5,-7,0
92,1780259651154,4,-9,1
93,1780259651489,2,-8,1
94,1780259651621,4,-8,1
95,1780259651771,4,-7,0
96,1780259651821,2,-7,0
97,1780259652472,5,-8,0
98,1780259652554,4,-8,1
99,1780259652604,4,-9,-1
100,1780259652887,4,-9,0
101,1780259653555,4,-8,-1
102,1780259653970,3,-7,0
103,1780259654622,4,-7,0
104,1780259655405,6,-9,-1
105,1780259655570,3,-8,-1
106,1780259655738,6,-7,1
107,1780259655904,3,-9,0
108,1780259656272,4,-7,0
109,1780259656571,3,-8,-1
110,1780259656639,3,-8,-1
111,1780259657272,5,-7,-1
112,1780259657387,5,-8,0
113,1780259657754,4,-8,0
114,1780259658054,5,-7,-1
115,1780259658788,4,-7,0
116,1780259658954,7,-7,2
117,1780259660437,3,-6,1
118,1780259661387,2,-6,1
119,1780259661521,3,-8,-1
120,1780259661637,5,-6,2
121,1780259663938,3,-8,255
122,1780259664438,4,-10,-1
123,1780259665754,2,-8,-1
124,1780259665971,4,-8,0
125,1780259666087,7,-7,-1
126,1780259666753,5,-9,-2
127,1780259667170,3,-8,-1
128,1780259667653,5,-8,-2
129,1780259668237,6,-8,2
130,1780259668403,2,-7,-1
131,1780259669920,4,-8,0
132,1780259670137,5,-8,0
133,1780259670539,5,-9,0
134,1780259671488,4,-7,0
135,1780259671655,3,-7,1
136,1780259672187,4,-7,-1
137,1780259672237,4,-9,0
138,1780259672321,3,-8,-1
139,1780259673137,4,-7,1
140,1780259673354,3,-9,-256
141,1780259674388,4,-8,-1
142,1780259675037,3,-7,1
143,1780259675737,0,0,6234
144,1780259676121,5,-8,1
145,1780259676520,6,-7,-1
146,1780259677269,4,-7,1
147,1780259677853,2,-7,-1
148,1780259678170,2,-6,0
149,1780259678854,2,-8,1
150,1780259679236,0,0,0
151,1780259681237,3,-9,0
152,1780259681538,4,-8,0
153,1780259682437,2,-8,0
154,1780259683303,5,-9,0
155,1780259685187,5,-8,0
156,1780259685487,5,-8,-1
157,1780259685821,4,-7,-1
158,1780259686271,5,-7,-1
159,1780259687170,3,-6,0
160,1780259687419,5,-9,0
161,1780259687670,3,-8,1
162,1780259687919,5,-7,0
163,1780259688087,4,-8,-256
164,1780259688119,4,-7,-1
165,1780259688487,5,-6,1
166,1780259688870,2,-7,-1
167,1780259689653,6,-8,-1
168,1780259690054,5,-8,-1
169,1780259690687,3,-6,-2
170,1780259690920,5,-8,0
171,1780259692619,3,-8,0
172,1780259695619,8,-8,0
173,1780259696470,1,-9,-2
174,1780259696753,4,-8,0
175,1780259697004,5,-8,-1
176,1780259697436,3,-8,1
177,1780259698036,3,-8,-256
178,1780259698903,3,-9,-1
179,1780259699019,4,-8,0
180,1780259699268,5,-7,0
181,1780259699352,-1,0,6241
182,1780259699685,3,-7,0
183,1780259700420,4,-8,-1
184,1780259700669,3,-7,0
185,1780259701635,5,-7,0
186,1780259702070,5,-8,0
187,1780259702551,5,-7,0
188,1780259702619,5,-8,1
189,1780259702751,5,-7,-1
190,1780259703985,4,-7,0
191,1780259704868,4,-7,-1
192,1780259704952,5,-8,1
193,1780259704985,2,-8,-1
194,1780259705419,5,-7,1
195,1780259705920,5,-8,0
196,1780259706387,2,-8,0
197,1780259706686,5,-8,1
198,1780259707934,4,-7,1
199,1780259710068,2,-8,0
200,1780259710202,4,-7,1
201,1780259710519,4,-8,0
202,1780259710603,5,-9,0
203,1780259711467,3,-9,0
204,1780259711886,5,-8,0
205,1780259712003,4,-8,-1
206,1780259712751,4,-8,-2
207,1780259713585,3,-8,0
208,1780259715251,-6,23,0
209,1780259715335,2,-8,-4
210,1780259716834,4,-7,0
211,1780259717901,7,-7,0
212,1780259718735,3,-10,0
213,1780259718850,5,-8,0
214,1780259719968,1,4,3
215,1780259720851,6,-8,1
216,1780259720967,12,-10,-1
217,1780259721101,45,-28,15
218,1780259721451,6,-6,1
219,1780259722417,1,-7,0
220,1780259723168,4,-8,0
221,1780259723451,5,-8,0
222,1780259724701,5,-8,0
223,1780259724818,4,-9,1
224,1780259725151,4,-8,0
225,1780259725650,5,-10,-1
226,1780259725717,6,-10,1
227,1780259726384,5,-8,0
228,1780259726884,4,-7,0
229,1780259728667,3,-8,0
230,1780259729118,4,-9,0
231,1780259729367,4,-8,0
232,1780259730234,4,-7,0
233,1780259730517,4,-9,1
234,1780259731133,6,-8,2
235,1780259731267,2,-6,-1
236,1780259735100,4,-7,-1
237,1780259735918,4,-8,1
238,1780259737533,8,-8,4
239,1780259738567,-1,-4,-5
240,1780259738767,-3,-6,-2
241,1780259739300,4,-8,-1
242,1780259740083,5,-8,0
243,1780259740166,3,-7,-1
244,1780259741166,2,-8,0
245,1780259741250,5,-7,-1
246,1780259742199,4,-9,0
247,1780259742283,4,-9,-1
248,1780259743632,4,-7,0
249,1780259744632,2,-7,-1
250,1780259745117,4,-9,0
251,1780259745282,4,-8,-2
252,1780259745900,1,-8,-2
253,1780259746117,3,-8,0
254,1780259746399,4,-8,-1
255,1780259746649,4,-5,1
256,1780259749333,5,-8,1
257,1780259749366,4,-9,-1
258,1780259749501,3,-8,1
259,1780259749949,7,-9,-1
260,1780259750066,0,-5,-2
261,1780259751099,3,-8,0
262,1780259751266,5,-8,0
263,1780259751633,4,-8,0
264,1780259751932,3,-9,0
265,1780259752500,3,-9,0
266,1780259753035,4,-8,1
267,1780259753333,6,-8,0
268,1780259753449,6,-9,-1
269,1780259753782,3,-8,0
270,1780259754016,4,-9,1
271,1780259754548,3,-9,1
272,1780259754632,3,-7,1
273,1780259755285,4,-10,0
274,1780259755533,4,-7,-2
275,1780259755915,4,-7,0
276,1780259756365,6,-8,0
277,1780259756482,3,-8,0
278,1780259757149,5,-8,-1
279,1780259757316,4,-6,-1
280,1780259758182,5,-7,-1
281,1780259758482,5,-8,-1
282,1780259758815,4,-9,1
283,1780259759050,4,-7,-1
284,1780259759866,1,-8,-1
285,1780259760349,4,-9,-1
286,1780259760998,5,-7,-1
287,1780259761265,0,-10,-1
288,1780259761498,4,-7,0
289,1780259762665,4,-8,0
290,1780259763182,2,-7,-1
291,1780259763948,7,-7,0
292,1780259765499,0,-8,-2
293,1780259765948,8,-9,-4
294,1780259766565,5,-7,0
295,1780259766781,2,-8,-2
296,1780259766899,4,-6,-1
297,1780259767231,2,-7,-1
298,1780259767365,7,-8,-1
299,1780259769831,3,-9,0
300,1780259770532,3,-8,0
301,1780259770814,3,-7,1
302,1780259770981,4,-8,0
303,1780259771981,4,-6,0
304,1780259773664,7,-7,0
305,1780259774697,5,-7,-1
306,1780259774747,5,-8,2
307,1780259774981,4,-7,1
308,1780259775231,6,-8,1
309,1780259776515,2,-7,0
310,1780259777464,3,-8,-1
311,1780259778561,5,-9,0
312,1780259778698,4,-9,0
313,1780259779614,3,-9,0
314,1780259780315,6,-7,0
315,1780259781180,-4,-9,0
316,1780259782864,6,-8,-2
317,1780259783197,5,-8,1
318,1780259783314,6,-7,-1
319,1780259783447,10,-8,1
320,1780259783614,5,-18,-5
321,1780259784015,-3,-4,6
322,1780259784430,6,-7,1
323,1780259785713,2,-15,4
324,1780259786199,-5,-4,-5
325,1780259786664,-1,-9,-4
326,1780259787148,2,-2,-1
327,1780259787600,6,-10,1
328,1780259787780,5,-8,0
329,1780259789797,11,-10,1
330,1780259790047,-3,-9,-11
331,1780259790214,3,-19,-7
332,1780259790414,-4,-2,2
333,1780259790864,2,-8,-2
334,1780259791563,9,-10,-1
335,1780259792797,3,-7,-1
336,1780259794931,4,-7,-2
337,1780259797630,3,-8,0
338,1780259797747,4,-9,0
339,1780259797963,4,-7,0
340,1780259798696,6,-9,0
341,1780259799563,4,-8,0
342,1780259799646,3,-7,-1
343,1780259799930,4,-7,-1
344,1780259800013,4,-7,0
345,1780259801546,5,-8,1
346,1780259801796,5,-7,1
347,1780259801963,4,-8,0
348,1780259802113,3,-7,0
349,1780259802664,2,-7,-1
350,1780259803479,4,-8,1
351,1780259804096,4,-8,0
352,1780259804429,4,-7,-1
353,1780259805012,2,-8,-1
354,1780259805414,5,-7,0
355,1780259805746,5,-8,0
356,1780259806245,4,-7,-1
357,1780259806295,5,-8,0
358,1780259806530,3,-8,0
359,1780259807113,5,-9,-2
360,1780259807146,2,-6,1
361,1780259807279,4,-8,0
362,1780259807562,3,-6,1
363,1780259808429,4,-8,0
364,1780259809179,4,-7,0
365,1780259809579,4,-8,0
366,1780259809830,5,-8,1
367,1780259809879,2,-9,0
368,1780259810446,5,-7,0
369,1780259810695,5,-8,0
370,1780259810745,3,-9,0
371,1780259811479,4,-8,0
372,1780259811696,4,-8,-1
373,1780259812395,4,-7,1
374,1780259812595,5,-7,0
375,1780259812763,4,-8,-1
376,1780259813295,3,-9,0
377,1780259813379,-1,0,1330
378,1780259814245,5,-10,0
379,1780259814579,5,-9,-1
380,1780259814946,4,-7,0
381,1780259815728,4,-8,0
382,1780259816646,3,-10,2
383,1780259816731,4,-8,-1
384,1780259816812,4,-6,0
385,1780259818046,6,-8,0
386,1780259818912,4,-8,0
387,1780259819546,2,-7,0
388,1780259819846,6,-8,0
389,1780259819880,1,-7,-2
390,1780259820262,6,-8,0
391,1780259820845,5,-8,1
392,1780259821312,2,-8,-1
393,1780259821645,4,-8,0
394,1780259821812,3,-8,0
395,1780259822345,4,-9,-1
396,1780259822461,4,-8,-1
397,1780259823395,4,-9,-1
398,1780259823595,4,-8,0
399,1780259824262,6,-8,1
400,1780259825761,3,-8,-2
401,1780259825845,5,-7,-2
402,1780259826095,4,-5,2
403,1780259826913,3,-7,-1
404,1780259827478,3,-7,-1
405,1780259828861,5,-10,0
406,1780259829695,3,-7,1
407,1780259830361,4,-7,-1
408,1780259831311,2,-9,0
409,1780259831678,4,-7,-1
410,1780259831761,3,-8,0
411,1780259832094,2,-8,0
412,1780259832461,3,-8,-1
413,1780259832914,6,-8,0
414,1780259833328,5,-7,0
415,1780259833544,2,-8,0
416,1780259834278,3,-7,0
417,1780259834561,4,-8,0
418,1780259834861,5,-8,0
419,1780259834978,3,-7,1
420,1780259835344,5,-8,0
421,1780259835645,4,-8,0
422,1780259837461,3,-8,-1
423,1780259838245,4,-8,0
424,1780259838860,5,-7,0
425,1780259839112,4,-8,0
426,1780259840111,4,-9,0
427,1780259840827,4,-7,0
428,1780259841427,4,-8,0
429,1780259842577,4,-8,1
430,1780259842744,4,-7,-1
431,1780259842910,4,-8,0
432,1780259844844,5,-6,-1
433,1780259845511,2,-8,1
434,1780259845794,3,-8,0
435,1780259846294,6,-9,0
436,1780259846877,3,-9,0
437,1780259848027,5,-8,1
438,1780259848810,1,-9,-1
439,1780259849093,20,-19,0
440,1780259849760,4,-3,2
441,1780259850910,21,81,-5
442,1780259853010,-10,-20,1
443,1780259853177,-16,14,46
444,1780259853462,75,1,45
445,1780259853843,25,48,-14
446,1780259854426,-18,-23,0
447,1780259854793,31,34,-61
448,1780259855043,-38,4,-46
449,1780259855443,-1,-254,21
450,1780259855693,25,11,11
451,1780259856276,-146,87,-32
452,1780259856777,15,-54,63
453,1780259857560,108,-154,59
454,1780259857629,-9,-9,42
455,1780259858043,-112,-61,126
456,1780259858426,134,-354,503
457,1780259859326,76,467,-683
458,1780259861643,63,692,-877
459,1780259861711,122,560,-935
460,1780259862794,67,276,-306
461,1780259862959,38,-147,-32
462,1780259863376,22,-103,29
463,1780259864311,37,-334,283
464,1780259864476,94,-209,205
465,1780259864559,-206,-26,-99
466,1780259865476,105,-12,22
467,1780259865593,174,-78,108
468,1780259865794,170,-130,133
469,1780259865843,-37,-82,62
470,1780259867693,-23,10,-15
471,1780259868062,-17,4,-6
472,1780259868193,-20,5,-3
473,1780259868359,-16,0,-26
474,1780259869426,4,-7,-4
475,1780259870592,3,-8,-256
476,1780259870827,5,-9,0
477,1780259871610,3,-7,0
478,1780259871859,1,0,282
479,1780259872026,2,-8,-1
480,1780259872243,6,-8,0
481,1780259874626,2,-6,-1
482,1780259874992,2,-8,0
483,1780259875043,2,-8,1
484,1780259875993,3,-11,-1
485,1780259876525,3,-7,-1
486,1780259876892,4,-8,0
487,1780259876975,3,-11,1
488,1780259877275,3,-7,-1
