index,ACCEL_X,ACCEL_Y,ACCEL_Z,1,2,3,4,5
0,-605,8053,-440,0,0,0,0,0
1,-616,8073,-436,0,0,0,0,0
2,-580,8116,-438,0,0,0,0,0
3,-556,8116,-424,0,0,0,0,0
4,-574,8109,-442,0,0,0,0,0
5,-640,8070,-440,0,0,0,0,0
6,-660,8034,-455,0,0,0,0,0
7,-636,8056,-446,0,0,0,0,0
8,-593,8058,-312,0,0,0,0,0
9,-588,8160,-426,0,0,0,0,0
10,-618,8076,-428,0,0,0,0,0
11,-634,8112,-472,0,0,0,0,0
12,-562,8074,-433,0,0,0,0,0
13,-575,8086,-446,0,0,0,0,0
14,-594,8144,-454,0,0,0,0,0
15,-680,8076,-418,0,0,0,0,0
16,-638,8085,-419,0,0,0,0,0
17,-527,8152,-441,0,0,0,0,0
18,-544,8066,-440,0,0,0,0,0
19,-651,8121,-445,0,0,0,0,0
20,-676,8116,-444,0,0,0,0,0
21,-585,8050,-431,0,0,0,0,0
22,-550,8137,-456,0,0,0,0,0
23,-620,8102,-441,0,0,0,0,0
24,-689,8045,-426,0,0,0,0,0
25,-598,8130,-458,0,0,0,0,0
26,-522,8120,-442,0,0,0,0,0
27,-659,8067,-428,0,0,0,0,0
28,-528,8079,-430,0,0,0,0,0
29,-555,8121,-439,0,0,0,0,0
30,-650,8077,-431,0,0,0,0,0
31,-683,8085,-428,0,0,0,0,0
32,-577,8151,-448,0,0,0,0,0
33,-632,8042,-446,0,0,0,0,0
34,-603,8104,-454,0,0,0,0,0
35,-550,8121,-454,0,0,0,0,0
36,-590,8145,-438,0,0,0,0,0
37,-568,8123,-435,0,0,0,0,0
38,-622,8108,-440,0,0,0,0,0
39,-622,8105,-433,0,0,0,0,0
40,-541,8122,-458,0,0,0,0,0
41,-546,8121,-442,0,0,0,0,0
42,-710,8074,-447,0,0,0,0,0
43,-542,8116,-444,0,0,0,0,0
44,-500,8135,-419,0,0,0,0,0
45,-665,8090,-431,0,0,0,0,0
46,-696,8066,-435,0,0,0,0,0
47,-577,8094,-442,0,0,0,0,0
48,-530,8138,-450,0,0,0,0,0
49,-600,8139,-432,0,0,0,0,0
50,-625,8036,-472,0,0,0,0,0
51,-572,8178,-390,0,0,0,0,0
52,-576,8126,-395,0,0,0,0,0
53,-554,8117,-459,0,255,255,0,0
54,-555,8099,-460,0,0,0,0,0
55,-654,8099,-440,0,255,255,0,0
56,-669,8114,-424,0,0,0,0,0
57,-596,8092,-425,0,0,0,0,0
58,-562,8104,-442,0,0,0,0,0
59,-658,8076,-442,0,0,0,0,0
60,-650,8091,-442,0,0,0,0,0
61,-590,8094,-457,0,0,0,0,0
62,-655,8113,-393,0,0,0,0,0
63,-554,8032,-455,0,0,0,0,0
64,-630,8164,-422,0,0,0,0,0
65,-538,8082,-431,0,0,0,0,0
66,-568,8112,-436,0,0,0,0,0
67,-646,8120,-438,0,0,0,0,0
68,-652,8062,-421,0,0,0,0,0
69,-562,8116,-432,0,0,0,0,0
70,-546,8102,-442,0,0,0,0,0
71,-612,8083,-420,0,0,0,0,0
72,-657,8113,-434,0,0,0,0,0
73,-618,8109,-433,0,0,0,0,0
74,-575,8124,-444,0,0,0,0,0
75,-647,8092,-422,0,0,0,0,0
76,-550,7926,-529,0,0,0,0,0
77,-552,8084,-413,0,0,0,0,0
78,-550,7944,-510,0,0,0,0,0
79,-664,8056,-473,0,0,0,0,0
80,-634,8144,-464,0,0,0,0,0
81,-636,8140,-432,0,0,0,0,0
82,-587,8098,-438,0,0,0,0,0
83,-585,8073,-458,0,0,0,0,0
84,-638,8130,-446,0,0,0,0,0
85,-618,8063,-417,0,0,0,0,0
86,-594,8131,-441,0,0,0,0,0
87,-600,8079,-424,0,0,0,0,0
88,-604,8094,-438,0,0,0,0,0
89,-615,8110,-439,0,0,0,0,0
90,-595,8076,-416,0,0,0,0,0
91,-621,8103,-430,0,96,254,0,0
92,-598,8086,-420,0,0,0,0,0
93,-609,8120,-443,0,0,0,0,0
94,-618,8110,-433,0,0,0,0,0
95,-614,8120,-440,0,0,0,0,0
96,-598,8131,-428,0,0,0,0,0
97,-573,8112,-429,0,0,0,0,0
98,-646,8086,-454,0,0,0,0,0
99,-587,8104,-450,0,0,0,0,0
100,-629,8120,-431,0,0,0,0,0
101,-597,8090,-427,0,0,0,0,0
102,-574,8122,-413,0,0,0,0,0
103,-618,8116,-430,0,0,0,0,0
104,-625,8072,-425,0,0,0,0,0
105,-622,8092,-438,0,0,0,0,0
106,-589,8118,-428,0,0,0,0,0
107,-600,8096,-446,0,0,0,0,0
108,-614,8114,-430,0,0,0,0,0
109,-640,8104,-426,0,0,0,0,0
110,-592,8063,-431,0,0,0,0,0
111,-588,8112,-446,0,0,0,0,0
112,-582,8124,-426,0,0,0,0,0
113,-626,8078,-418,0,0,0,0,0
114,-634,8092,-434,0,0,0,0,0
115,-604,8091,-439,0,0,0,0,0
116,-608,8089,-431,0,0,0,0,0
117,-605,8114,-430,0,0,0,0,0
118,-603,8114,-422,0,0,0,0,0
119,-592,8096,-435,0,0,0,0,0
120,-579,8128,-434,0,0,0,0,0
121,-611,8108,-446,0,0,0,0,0
122,-639,8083,-432,0,0,0,0,0
123,-645,8102,-430,0,0,0,0,0
124,-614,8102,-436,0,0,0,0,0
125,-588,8094,-437,0,0,0,0,0
126,-586,8104,-438,0,0,0,0,0
127,-620,8101,-429,0,0,0,0,0
128,-630,8086,-441,0,0,0,0,0
129,-582,8096,-432,0,0,0,0,0
130,-563,8120,-432,0,0,0,0,0
131,-580,8118,-424,0,0,0,0,0
132,-625,8095,-436,0,0,0,0,0
133,-679,8083,-451,0,0,0,0,0
134,-614,8094,-420,0,0,0,0,0
135,-575,8107,-462,0,0,0,0,0
136,-650,8089,-426,0,0,0,0,0
137,-640,8112,-434,0,0,0,0,0
138,-586,8093,-437,0,0,0,0,0
139,-568,8082,-428,0,0,0,0,0
140,-630,8122,-436,0,0,0,0,0
141,-650,8095,-445,0,0,0,0,0
142,-594,8095,-433,0,0,0,0,0
143,-548,8120,-444,0,0,0,0,0
144,-590,8093,-436,0,0,0,0,0
145,-656,8104,-420,0,0,0,0,0
146,-642,8109,-442,0,0,0,0,0
147,-550,8105,-442,0,0,0,0,0
148,-570,8124,-431,0,0,0,0,0
149,-623,8098,-432,0,0,0,0,0
150,-652,8082,-425,0,0,0,0,0
151,-612,8146,-438,0,0,0,0,0
152,-563,8087,-452,0,0,0,0,0
153,-575,8081,-444,0,0,0,0,0
154,-633,8118,-437,0,0,0,0,0
155,-608,8095,-424,0,0,0,0,0
156,-582,8124,-395,0,0,0,0,0
157,-589,8124,-360,0,0,0,0,0
158,-585,8030,-361,0,0,0,0,0
159,-677,8087,-474,0,0,0,0,0
160,-610,8097,-427,0,0,0,0,0
161,-598,8102,-484,0,0,0,0,0
162,-577,8113,-442,0,0,0,0,0
163,-638,8116,-455,0,0,0,0,0
164,-648,8108,-452,0,0,0,0,0
165,-596,8133,-424,0,0,0,0,0
166,-552,8112,-419,0,0,0,0,0
167,-596,8069,-429,0,0,0,0,0
168,-628,8107,-418,0,0,0,0,0
169,-623,8093,-454,0,0,0,0,0
170,-573,8100,-436,0,0,0,0,0
171,-586,8120,-448,0,0,0,0,0
172,-620,8097,-428,0,0,0,0,0
173,-579,8105,-446,0,0,0,0,0
174,-588,8113,-434,0,0,0,0,0
175,-611,8088,-423,0,0,0,0,0
176,-630,8093,-415,0,0,0,0,0
177,-618,8098,-438,0,0,0,0,0
178,-576,8112,-430,0,0,0,0,0
179,-600,8109,-441,0,0,0,0,0
180,-630,8098,-438,0,0,0,0,0
181,-614,8104,-435,0,0,0,0,0
182,-600,8094,-436,0,0,0,0,0
183,-594,8094,-441,0,0,0,0,0
184,-600,8124,-427,0,0,0,0,0
185,-622,8128,-432,0,0,0,0,0
186,-620,8071,-441,0,0,0,0,0
187,-604,8098,-426,0,0,0,0,0
188,-621,8113,-440,0,0,0,0,0
189,-610,8095,-424,0,0,0,0,0
190,-608,8098,-425,0,0,0,0,0
191,-597,8113,-438,0,0,0,0,0
192,-608,8101,-443,0,0,0,0,0
193,-622,8097,-425,0,0,0,0,0
194,-608,8100,-432,0,0,0,0,0
195,-607,8104,-429,0,0,0,0,0
196,-596,8106,-427,0,0,0,0,0
197,-607,8112,-429,0,0,0,0,0
198,-622,8107,-422,0,0,0,0,0
199,-619,8105,-436,0,0,0,0,0
200,-579,8102,-441,0,0,0,0,0
201,-604,8103,-435,0,0,0,0,0
202,-621,8106,-436,0,0,0,0,0
203,-611,8102,-430,0,0,0,0,0
204,-550,8094,-418,0,0,0,0,0
205,-641,8094,-448,0,0,0,0,0
206,-712,8071,-408,0,0,0,0,0
207,-612,8126,-439,0,0,0,0,0
208,-487,8069,-438,0,0,0,0,0
209,-562,8051,-457,0,0,0,0,0
210,-733,8184,-452,0,0,0,0,0
211,-688,7994,-397,0,0,0,0,0
212,-579,8191,-436,0,0,0,0,0
213,-555,8179,-450,0,0,0,0,0
214,-609,8034,-410,0,0,0,0,0
215,-679,8112,-410,0,0,0,0,0
216,-630,8080,-449,0,0,0,0,0
217,-537,8057,-442,0,0,0,0,0
218,-594,8131,-475,0,0,0,0,0
219,-673,8121,-447,0,0,0,0,0
220,-664,8081,-426,0,0,0,0,0
221,-563,8150,-452,0,0,0,0,0
222,-553,8092,-433,0,0,0,0,0
223,-639,8067,-424,0,0,0,0,0
224,-672,8118,-435,0,0,0,0,0
225,-595,8103,-448,0,0,0,0,0
226,-562,8097,-437,0,0,0,0,0
227,-599,8110,-440,0,0,0,0,0
228,-651,8080,-446,0,0,0,0,0
229,-619,8092,-440,0,0,0,0,0
230,-592,8119,-436,0,0,0,0,0
231,-579,8106,-425,0,0,0,0,0
232,-623,8115,-444,0,0,0,0,0
233,-640,8102,-431,0,254,255,0,0
234,-606,8099,-440,0,0,0,0,0
235,-616,8103,-448,0,0,0,0,0
236,-638,8096,-422,0,0,0,0,0
237,-648,8112,-547,0,0,0,0,0
238,-578,8093,-420,0,0,0,0,0
239,-618,8085,-470,0,0,0,0,0
240,-618,8106,-427,0,0,0,0,0
241,-632,8071,-428,0,0,0,0,0
242,-600,8105,-415,0,0,0,0,0
243,-598,8150,-430,0,0,0,0,0
244,-598,8080,-428,0,0,0,0,0
245,-623,8101,-416,0,0,0,0,0
246,-600,8107,-429,0,0,0,0,0
247,-591,8091,-424,0,0,0,0,0
248,-589,8111,-436,0,0,0,0,0
249,-644,8110,-443,0,0,0,0,0
250,-611,8090,-431,0,0,0,0,0
251,-592,8099,-449,0,0,0,0,0
252,-580,8118,-422,0,0,0,0,0
253,-631,8088,-429,0,0,0,0,0
254,-630,8113,-426,0,0,0,0,0
255,-611,8120,-450,0,0,0,0,0
256,-582,8104,-427,0,0,0,0,0
257,-614,8113,-435,0,0,0,0,0
258,-620,8095,-436,0,0,0,0,0
259,-625,8082,-432,0,0,0,0,0
260,-596,8124,-437,0,0,0,0,0
261,-577,8115,-418,0,0,0,0,0
262,-636,8104,-454,0,0,0,0,0
263,-621,8108,-444,0,0,0,0,0
264,-592,8057,-431,0,0,0,0,0
265,-582,8106,-442,0,0,0,0,0
266,-615,8082,-437,0,0,0,0,0
267,-626,8082,-410,0,0,0,0,0
268,-626,8121,-444,0,0,0,0,0
269,-580,8113,-430,0,0,0,0,0
270,-594,8104,-441,0,0,0,0,0
271,-610,8114,-427,0,0,0,0,0
272,-636,8090,-444,0,0,0,0,0
273,-618,8104,-434,0,0,0,0,0
274,-589,8129,-454,0,0,0,0,0
275,-576,8092,-433,0,0,0,0,0
276,-624,8096,-416,0,0,0,0,0
277,-646,8100,-442,0,0,0,0,0
278,-597,8111,-435,0,0,0,0,0
279,-607,8110,-447,0,0,0,0,0
280,-605,8105,-442,0,0,0,0,0
281,-628,8102,-434,0,0,0,0,0
282,-605,8102,-432,0,0,0,0,0
283,-590,8107,-439,0,0,0,0,0
284,-600,8094,-425,0,0,0,0,0
285,-638,8092,-448,0,0,0,0,0
286,-596,8096,-457,0,0,0,0,0
287,-591,8103,-430,0,0,0,0,0
288,-626,8111,-436,0,0,0,0,0
289,-594,8125,-406,0,0,0,0,0
290,-572,8119,-438,0,0,0,0,0
291,-569,8118,-436,0,0,0,0,0
292,-640,8106,-434,0,0,0,0,0
293,-632,8091,-434,0,0,0,0,0
294,-587,8108,-452,0,0,0,0,0
295,-568,8112,-439,0,0,0,0,0
296,-624,8082,-438,0,0,0,0,0
297,-644,8082,-421,0,0,0,0,0
298,-597,8110,-432,0,0,0,0,0
299,-564,8116,-430,0,0,0,0,0
300,-610,8081,-432,0,0,0,0,0
301,-644,8110,-430,0,0,0,0,0
302,-605,8111,-433,0,0,0,0,0
303,-572,8106,-441,0,0,0,0,0
304,-594,8104,-437,0,0,0,0,0
305,-638,8093,-434,0,0,0,0,0
306,-626,8088,-424,0,0,0,0,0
307,-595,8112,-442,0,0,0,0,0
308,-584,8113,-438,0,0,0,0,0
309,-618,8098,-431,0,0,0,0,0
310,-628,8092,-448,0,0,0,0,0
311,-613,8096,-426,0,0,0,0,0
312,-606,8108,-441,0,254,255,0,0
313,-640,8115,-421,0,0,0,0,0
314,-592,8116,-445,0,0,0,0,0
315,-576,8109,-426,0,0,0,0,0
316,-625,8098,-441,0,0,0,0,0
317,-634,8105,-432,0,0,0,0,0
318,-609,8098,-437,0,0,0,0,0
319,-566,8112,-434,0,0,0,0,0
320,-605,8106,-438,0,0,0,0,0
321,-627,8101,-424,0,0,0,0,0
322,-616,8101,-438,0,0,0,0,0
323,-584,8110,-436,0,0,0,0,0
324,-600,8102,-439,0,0,0,0,0
325,-621,8085,-433,0,0,0,0,0
326,-630,8102,-437,0,0,0,0,0
327,-593,8110,-438,0,0,0,0,0
328,-586,8090,-434,0,0,0,0,0
329,-614,8114,-436,0,0,0,0,0
330,-613,8092,-426,0,0,0,0,0
331,-591,8122,-440,0,0,0,0,0
332,-606,8106,-434,0,0,0,0,0
333,-622,8088,-436,0,0,0,0,0
334,-622,8108,-444,0,0,0,0,0
335,-594,8107,-434,0,0,0,0,0
336,-588,8116,-441,0,0,0,0,0
337,-605,8112,-429,0,0,0,0,0
338,-616,8112,-433,0,0,0,0,0
339,-606,8102,-443,0,0,0,0,0
340,-596,8101,-431,0,0,0,0,0
341,-614,8107,-432,0,0,0,0,0
342,-621,8108,-417,0,0,0,0,0
343,-598,8102,-420,0,0,0,0,0
344,-599,8128,-401,0,0,0,0,0
345,-623,8106,-436,0,0,0,0,0
346,-601,8077,-408,0,0,0,0,0
347,-601,8118,-434,0,0,0,0,0
348,-608,8088,-416,0,0,0,0,0
349,-620,8105,-441,0,0,0,0,0
350,-584,8096,-442,0,0,0,0,0
351,-615,8119,-442,0,0,0,0,0
352,-636,8103,-447,0,0,0,0,0
353,-610,8118,-459,0,0,0,0,0
354,-591,8120,-458,0,0,0,0,0
355,-581,8073,-456,0,0,0,0,0
356,-620,8128,-442,0,0,0,0,0
357,-624,8109,-426,0,0,0,0,0
358,-606,8096,-439,0,0,0,0,0
359,-589,8143,-434,0,0,0,0,0
360,-607,8103,-435,0,0,0,0,0
361,-624,8075,-434,0,0,0,0,0
362,-615,8097,-424,0,0,0,0,0
363,-605,8092,-453,0,0,0,0,0
364,-613,8132,-386,0,0,0,0,0
365,-596,8079,-395,0,0,0,0,0
366,-601,8090,-424,0,0,0,0,0
367,-591,8082,-436,0,0,0,0,0
368,-616,8114,-447,0,0,0,0,0
369,-611,8096,-422,0,0,0,0,0
370,-606,8085,-431,0,0,0,0,0
371,-594,8121,-426,0,0,0,0,0
372,-616,8110,-436,0,0,0,0,0
373,-612,8090,-416,0,0,0,0,0
374,-611,8103,-442,0,253,255,0,0
375,-604,8118,-434,0,0,0,0,0
376,-611,8104,-442,0,0,0,0,0
377,-615,8113,-414,0,0,0,0,0
378,-616,8154,-425,0,0,0,0,0
379,-602,8019,-433,0,0,0,0,0
380,-612,8114,-438,0,0,0,0,0
381,-636,8103,-436,0,0,0,0,0
382,-629,8076,-440,0,0,0,0,0
383,-591,8102,-442,0,0,0,0,0
384,-622,8074,-438,0,0,0,0,0
385,-627,8136,-434,0,0,0,0,0
386,-592,8122,-435,0,0,0,0,0
387,-586,8087,-437,0,0,0,0,0
388,-616,8108,-440,0,0,0,0,0
389,-620,8084,-434,0,0,0,0,0
390,-601,8084,-429,0,0,0,0,0
391,-610,8082,-439,0,0,0,0,0
392,-598,8082,-429,0,0,0,0,0
393,-604,8106,-436,0,0,0,0,0
394,-615,8120,-436,0,0,0,0,0
395,-596,8103,-452,0,0,0,0,0
396,-617,8106,-436,0,0,0,0,0
397,-594,8107,-436,0,0,0,0,0
398,-593,8089,-424,0,0,0,0,0
399,-618,8107,-434,0,0,0,0,0
400,-596,8110,-440,0,0,0,0,0
401,-603,8096,-430,0,0,0,0,0
402,-612,8105,-430,0,0,0,0,0
403,-591,8103,-429,0,0,0,0,0
404,-606,8102,-440,0,0,0,0,0
405,-618,8112,-442,0,0,0,0,0
406,-616,8103,-435,0,0,0,0,0
407,-596,8111,-438,0,0,0,0,0
408,-619,8106,-429,0,0,0,0,0
409,-602,8105,-438,0,255,255,0,0
410,-606,8107,-424,0,0,0,0,0
411,-600,8101,-438,0,0,0,0,0
412,-605,8101,-438,0,0,0,0,0
413,-608,8103,-435,0,0,0,0,0
414,-618,8103,-438,0,0,0,0,0
415,-607,8112,-441,0,0,0,0,0
416,-609,8115,-436,0,0,0,0,0
417,-623,8097,-443,0,0,0,0,0
418,-599,8106,-434,0,0,0,0,0
419,-612,8112,-442,0,0,0,0,0
420,-615,8096,-432,0,0,0,0,0
421,-595,8127,-445,0,0,0,0,0
422,-616,8113,-436,0,0,0,0,0
423,-612,8090,-435,0,0,0,0,0
424,-597,8113,-440,0,0,0,0,0
425,-596,8105,-429,0,72,254,0,0
426,-621,8101,-443,0,0,0,0,0
427,-596,8101,-435,0,0,0,0,0
428,-624,8108,-452,0,0,0,0,0
429,-618,8115,-438,0,0,0,0,0
430,-628,8086,-442,0,0,0,0,0
431,-591,8104,-440,0,0,0,0,0
432,-624,8110,-460,0,0,0,0,0
433,-614,8088,-426,0,0,0,0,0
434,-595,8116,-434,0,0,0,0,0
435,-605,8114,-428,0,0,0,0,0
436,-624,8092,-443,0,0,0,0,0
437,-606,8108,-428,0,0,0,0,0
438,-600,8102,-450,0,0,0,0,0
439,-618,8098,-435,0,0,0,0,0
440,-619,8091,-437,0,0,0,0,0
441,-610,8091,-428,0,0,0,0,0
442,-588,8108,-419,0,0,0,0,0
443,-612,8105,-446,0,0,0,0,0
444,-604,8117,-431,0,0,0,0,0
445,-618,8093,-432,0,0,0,0,0
446,-615,8120,-424,0,0,0,0,0
447,-595,8121,-432,0,0,0,0,0
448,-601,8102,-436,0,0,0,0,0
449,-612,8097,-433,0,0,0,0,0
450,-628,8088,-432,0,0,0,0,0
451,-600,8100,-434,0,0,0,0,0
452,-593,8118,-439,0,0,0,0,0
453,-610,8100,-438,0,0,0,0,0
454,-631,8104,-440,0,0,0,0,0
455,-622,8108,-435,0,0,0,0,0
456,-622,8086,-429,0,0,0,0,0
457,-581,8105,-420,0,0,0,0,0
458,-611,8104,-437,0,0,0,0,0
459,-616,8118,-435,0,0,0,0,0
460,-613,8107,-444,0,0,0,0,0
461,-580,8125,-447,0,0,0,0,0
462,-605,8084,-455,0,0,0,0,0
463,-618,8106,-439,0,0,0,0,0
464,-627,8107,-439,0,0,0,0,0
465,-583,8094,-410,0,0,0,0,0
466,-593,8108,-438,0,0,0,0,0
467,-626,8122,-432,0,0,0,0,0
468,-585,8108,-426,0,0,0,0,0
469,-600,8098,-428,0,0,0,0,0
470,-653,8134,-428,0,0,0,0,0
471,-627,8068,-458,0,0,0,0,0
472,-601,8080,-418,0,0,0,0,0
473,-621,8112,-430,0,0,0,0,0
474,-612,8078,-427,0,0,0,0,0
475,-614,8120,-442,0,0,0,0,0
476,-604,8089,-438,0,0,0,0,0
477,-608,8104,-438,0,0,0,0,0
478,-605,8124,-451,0,0,0,0,0
479,-608,8078,-446,0,0,0,0,0
480,-606,8102,-440,0,0,0,0,0
481,-604,8101,-435,0,0,0,0,0
482,-624,8110,-438,0,0,0,0,0
483,-612,8092,-429,0,0,0,0,0
484,-614,8096,-438,0,0,0,0,0
485,-602,8099,-426,0,0,0,0,0
486,-609,8098,-435,0,0,0,0,0
487,-600,8112,-433,0,0,0,0,0
488,-613,8095,-435,0,0,0,0,0
489,-598,8115,-425,0,0,0,0,0
490,-608,8116,-437,0,0,0,0,0
491,-609,8095,-431,0,0,0,0,0
492,-630,8087,-440,0,0,0,0,0
493,-588,8113,-424,0,0,0,0,0
494,-606,8096,-447,0,0,0,0,0
495,-600,8112,-426,0,0,0,0,0
496,-621,8092,-433,0,0,0,0,0
497,-612,8092,-439,0,0,0,0,0
498,-598,8116,-441,0,0,0,0,0
499,-596,8100,-444,0,0,0,0,0
500,-617,8098,-438,0,0,0,0,0
501,-616,8097,-430,0,0,0,0,0
502,-603,8105,-440,0,0,0,0,0
503,-590,8103,-431,0,0,0,0,0
504,-607,8108,-418,0,0,0,0,0
505,-616,8094,-436,0,0,0,0,0
506,-602,8106,-444,0,0,0,0,0
507,-597,8112,-434,0,0,0,0,0
508,-610,8102,-438,0,0,0,0,0
509,-618,8102,-439,0,0,0,0,0
510,-616,8112,-436,0,0,0,0,0
511,-597,8106,-434,0,0,0,0,0
512,-598,8097,-435,0,0,0,0,0
513,-612,8106,-426,0,0,0,0,0
514,-617,8092,-435,0,0,0,0,0
515,-601,8113,-440,0,0,0,0,0
516,-600,8098,-442,0,0,0,0,0
517,-625,8097,-438,0,0,0,0,0
518,-611,8110,-431,0,0,0,0,0
519,-601,8098,-448,0,0,0,0,0
520,-589,8098,-436,0,0,0,0,0
521,-616,8110,-442,0,0,0,0,0
522,-638,8108,-428,0,0,0,0,0
523,-609,8105,-434,0,0,0,0,0
524,-592,8106,-442,0,0,0,0,0
525,-600,8106,-438,0,0,0,0,0
526,-630,8094,-438,0,0,0,0,0
527,-620,8102,-432,0,0,0,0,0
528,-597,8092,-445,0,0,0,0,0
529,-587,8106,-434,0,0,0,0,0
530,-617,8101,-442,0,0,0,0,0
531,-631,8102,-432,0,0,0,0,0
532,-604,8101,-439,0,0,0,0,0
533,-590,8108,-444,0,0,0,0,0
534,-604,8105,-436,0,0,0,0,0
535,-624,8094,-438,0,0,0,0,0
536,-609,8102,-435,0,0,0,0,0
537,-607,8100,-442,0,0,0,0,0
538,-612,8113,-437,0,0,0,0,0
539,-620,8100,-442,0,0,0,0,0
540,-605,8093,-430,0,0,0,0,0
541,-612,8090,-448,0,0,0,0,0
542,-589,8099,-425,0,0,0,0,0
543,-622,8111,-447,0,0,0,0,0
544,-597,8116,-419,0,0,0,0,0
545,-626,8102,-449,0,0,0,0,0
546,-590,8104,-425,0,0,0,0,0
547,-629,8092,-450,0,0,0,0,0
548,-613,8110,-431,0,0,0,0,0
549,-628,8097,-443,0,0,0,0,0
550,-594,8109,-427,0,0,0,0,0
551,-612,8100,-445,0,0,0,0,0
552,-608,8099,-445,0,0,0,0,0
553,-602,8109,-430,0,0,0,0,0
554,-621,8094,-462,0,0,0,0,0
555,-574,8108,-429,0,0,0,0,0
556,-614,8096,-473,0,0,0,0,0
557,-592,8090,-419,0,0,0,0,0
558,-635,8093,-428,0,0,0,0,0
559,-592,8160,-440,0,0,0,0,0
560,-597,8105,-445,0,0,0,0,0
561,-600,8083,-433,0,0,0,0,0
562,-632,8106,-447,0,0,0,0,0
563,-614,8144,-442,0,0,0,0,0
564,-580,8054,-443,0,0,0,0,0
565,-658,8138,-436,0,0,0,0,0
566,-614,8104,-426,0,0,0,0,0
567,-606,8170,-393,0,0,0,0,0
568,-544,8092,-465,0,0,0,0,0
569,-602,8052,-429,0,0,0,0,0
570,-638,8114,-459,0,0,0,0,0
571,-608,8121,-448,0,0,0,0,0
572,-584,8098,-436,0,0,0,0,0
573,-594,8132,-433,0,0,0,0,0
574,-624,8104,-428,0,0,0,0,0
575,-624,8100,-422,0,0,0,0,0
576,-598,8100,-441,0,0,0,0,0
577,-586,8095,-430,0,0,0,0,0
578,-609,8102,-418,0,0,0,0,0
579,-614,8106,-421,0,0,0,0,0
580,-619,8098,-442,0,0,0,0,0
581,-616,8115,-453,0,0,0,0,0
582,-601,8108,-430,0,0,0,0,0
583,-598,8094,-438,0,0,0,0,0
584,-614,8114,-440,0,0,0,0,0
585,-616,8108,-418,0,0,0,0,0
586,-607,8100,-422,0,0,0,0,0
587,-596,8111,-440,0,0,0,0,0
588,-613,8112,-436,0,0,0,0,0
589,-606,8102,-435,0,0,0,0,0
590,-607,8096,-427,0,0,0,0,0
591,-608,8107,-429,0,0,0,0,0
592,-614,8103,-446,0,0,0,0,0
593,-602,8106,-428,0,0,0,0,0
594,-612,8086,-419,0,0,0,0,0
595,-612,8105,-437,0,0,0,0,0
596,-606,8114,-429,0,0,0,0,0
597,-611,8094,-440,0,0,0,0,0
598,-616,8108,-445,0,0,0,0,0
599,-610,8119,-432,0,0,0,0,0
600,-608,8096,-447,0,0,0,0,0
601,-617,8088,-429,0,0,0,0,0
602,-616,8113,-421,0,0,0,0,0
603,-622,8076,-442,0,0,0,0,0
604,-609,8124,-444,0,0,0,0,0
605,-605,8114,-440,0,0,0,0,0
606,-600,8086,-434,0,0,0,0,0
607,-598,8109,-434,0,0,0,0,0
608,-609,8110,-431,0,0,0,0,0
609,-613,8092,-441,0,0,0,0,0
610,-602,8136,-436,0,0,0,0,0
611,-602,8090,-432,0,0,0,0,0
612,-612,8105,-430,0,0,0,0,0
613,-618,8118,-432,0,0,0,0,0
614,-610,8090,-435,0,0,0,0,0
615,-592,8098,-422,0,0,0,0,0
616,-605,8122,-448,0,0,0,0,0
617,-618,8110,-428,0,0,0,0,0
618,-620,8103,-450,0,0,0,0,0
619,-608,8116,-445,0,0,0,0,0
620,-604,8095,-436,0,0,0,0,0
621,-622,8095,-456,0,0,0,0,0
622,-618,8099,-432,0,0,0,0,0
623,-574,8096,-432,0,0,0,0,0
624,-615,8104,-470,0,0,0,0,0
625,-595,8128,-406,0,0,0,0,0
626,-598,8137,-441,0,0,0,0,0
627,-574,8105,-430,0,0,0,0,0
628,-604,8095,-455,0,0,0,0,0
629,-640,8100,-448,0,0,0,0,0
630,-614,8055,-445,0,0,0,0,0
631,-588,8136,-418,0,0,0,0,0
632,-594,8150,-455,0,0,0,0,0
633,-615,8077,-445,0,0,0,0,0
634,-643,8124,-417,0,0,0,0,0
635,-602,8112,-433,0,0,0,0,0
636,-572,8058,-426,0,0,0,0,0
637,-611,8138,-450,0,0,0,0,0
638,-633,8106,-426,0,0,0,0,0
639,-624,8080,-446,0,0,0,0,0
640,-591,8134,-428,0,0,0,0,0
641,-593,8057,-432,0,0,0,0,0
642,-601,8082,-398,0,0,0,0,0
643,-596,8109,-436,0,0,0,0,0
644,-614,8076,-429,0,0,0,0,0
645,-599,8110,-418,0,0,0,0,0
646,-620,8106,-443,0,0,0,0,0
647,-599,8082,-426,0,0,0,0,0
648,-626,8122,-450,0,0,0,0,0
649,-579,8096,-429,0,0,0,0,0
650,-605,8083,-443,0,0,0,0,0
651,-611,8120,-429,0,0,0,0,0
652,-611,8109,-430,0,0,0,0,0
653,-597,8108,-429,0,0,0,0,0
654,-602,8106,-442,0,0,0,0,0
655,-596,8099,-422,0,0,0,0,0
656,-625,8096,-453,0,0,0,0,0
657,-601,8108,-433,0,0,0,0,0
658,-605,8087,-441,0,0,0,0,0
659,-595,8114,-433,0,0,0,0,0
660,-606,8116,-426,0,0,0,0,0
661,-614,8113,-445,0,0,0,0,0
662,-603,8114,-429,0,0,0,0,0
663,-604,8098,-426,0,0,0,0,0
664,-610,8085,-428,0,0,0,0,0
665,-611,8122,-429,0,0,0,0,0
666,-616,8083,-444,0,0,0,0,0
667,-606,8103,-447,0,0,0,0,0
668,-603,8108,-444,0,0,0,0,0
669,-597,8096,-435,0,0,0,0,0
670,-617,8104,-439,0,0,0,0,0
671,-613,8107,-432,0,0,0,0,0
672,-595,8086,-435,0,0,0,0,0
673,-610,8104,-434,0,0,0,0,0
674,-604,8106,-388,0,0,0,0,0
675,-612,8119,-408,0,0,0,0,0
676,-605,8140,-423,0,0,0,0,0
677,-598,8108,-424,0,0,0,0,0
678,-620,8074,-435,0,0,0,0,0
679,-625,8094,-419,0,0,0,0,0
680,-612,8123,-439,0,0,0,0,0
681,-608,8104,-440,0,0,0,0,0
682,-597,8107,-441,0,0,0,0,0
683,-623,8115,-447,0,0,0,0,0
684,-610,8074,-420,0,0,0,0,0
685,-626,8070,-439,0,0,0,0,0
686,-576,8136,-434,0,0,0,0,0
687,-591,8086,-415,0,0,0,0,0
688,-635,8125,-458,0,0,0,0,0
689,-607,8094,-451,0,0,0,0,0
690,-583,8112,-441,0,0,0,0,0
691,-600,8136,-441,0,0,0,0,0
692,-621,8086,-418,0,0,0,0,0
693,-622,8096,-452,0,0,0,0,0
694,-598,8101,-439,0,0,0,0,0
695,-632,8088,-467,0,0,0,0,0
696,-648,8101,-443,0,0,0,0,0
697,-632,8135,-402,0,0,0,0,0
698,-580,8069,-420,0,0,0,0,0
699,-614,8133,-442,0,0,0,0,0
700,-635,8103,-430,0,0,0,0,0
701,-566,8102,-439,0,0,0,0,0
702,-608,8166,-430,0,0,0,0,0
703,-650,8048,-405,0,0,0,0,0
704,-603,8097,-422,0,0,0,0,0
705,-610,8125,-419,0,0,0,0,0
706,-622,8135,-426,0,0,0,0,0
707,-581,8072,-423,0,0,0,0,0
708,-632,8098,-470,0,0,0,0,0
709,-607,8106,-434,0,0,0,0,0
710,-624,8106,-480,0,0,0,0,0
711,-607,8126,-460,0,0,0,0,0
712,-594,8081,-442,0,0,0,0,0
713,-606,8086,-444,0,0,0,0,0
714,-631,8092,-425,0,0,0,0,0
715,-591,8108,-429,0,0,0,0,0
716,-624,8119,-458,0,0,0,0,0
717,-560,8076,-370,0,0,0,0,0
718,-544,8047,-389,0,0,0,0,0
719,-612,8192,-445,0,0,0,0,0
720,-635,8122,-431,0,0,0,0,0
721,-614,8179,-486,0,0,0,0,0
722,-582,8021,-396,0,0,0,0,0
723,-606,8060,-419,0,0,0,0,0
724,-591,8156,-420,0,0,0,0,0
725,-706,8115,-514,0,0,0,0,0
726,-642,8164,-478,0,0,0,0,0
727,-553,8100,-455,0,0,0,0,0
728,-599,8034,-443,0,0,0,0,0
729,-619,8074,-448,0,0,0,0,0
730,-576,8038,-412,0,0,0,0,0
731,-636,8140,-435,0,0,0,0,0
732,-596,8102,-462,0,0,0,0,0
733,-613,8159,-438,0,0,0,0,0
734,-629,8065,-442,0,0,0,0,0
735,-599,8068,-426,0,0,0,0,0
736,-616,8131,-457,0,0,0,0,0
737,-600,8078,-426,0,0,0,0,0
738,-607,8118,-443,0,0,0,0,0
739,-608,8099,-439,0,0,0,0,0
740,-605,8086,-437,0,0,0,0,0
741,-596,8118,-424,0,0,0,0,0
742,-626,8118,-445,0,0,0,0,0
743,-603,8125,-428,0,0,0,0,0
744,-610,8076,-440,0,0,0,0,0
745,-600,8105,-426,0,0,0,0,0
746,-613,8089,-429,0,0,0,0,0
747,-602,8084,-420,0,0,0,0,0
748,-601,8086,-432,0,0,0,0,0
749,-592,8100,-420,0,0,0,0,0
750,-606,8094,-424,0,0,0,0,0
751,-653,8091,-448,0,0,0,0,0
752,-601,8127,-447,0,0,0,0,0
753,-592,8083,-458,0,0,0,0,0
754,-534,8121,-456,0,0,0,0,0
755,-662,8080,-424,0,0,0,0,0
756,-571,8067,-444,0,0,0,0,0
757,-538,8122,-445,0,0,0,0,0
758,-622,8058,-444,0,0,0,0,0
759,-670,8099,-450,0,0,0,0,0
760,-608,8129,-452,0,0,0,0,0
761,-544,8068,-440,0,0,0,0,0
762,-588,8146,-448,0,0,0,0,0
763,-624,8065,-427,0,0,0,0,0
764,-623,8089,-430,0,0,0,0,0
765,-607,8130,-438,0,0,0,0,0
766,-561,8102,-445,0,0,0,0,0
767,-608,8135,-450,0,0,0,0,0
768,-640,8058,-456,0,0,0,0,0
769,-636,8102,-434,0,0,0,0,0
770,-596,8096,-435,0,0,0,0,0
771,-547,8086,-427,0,0,0,0,0
772,-586,8123,-443,0,0,0,0,0
773,-662,8097,-409,0,0,0,0,0
774,-643,8119,-434,0,0,0,0,0
775,-557,8132,-449,0,0,0,0,0
776,-554,8099,-413,0,0,0,0,0
777,-626,8096,-429,0,0,0,0,0
778,-634,8103,-459,0,0,0,0,0
779,-562,8106,-433,0,0,0,0,0
780,-636,8114,-436,0,0,0,0,0
781,-641,8075,-433,0,0,0,0,0
782,-611,8125,-437,0,0,0,0,0
783,-563,8112,-410,0,0,0,0,0
784,-595,8104,-429,0,0,0,0,0
785,-638,8096,-430,0,0,0,0,0
786,-584,8112,-434,0,0,0,0,0
787,-583,8116,-434,0,0,0,0,0
788,-646,8106,-439,0,0,0,0,0
789,-646,8092,-411,0,0,0,0,0
790,-572,8106,-444,0,0,0,0,0
791,-555,8110,-430,0,0,0,0,0
792,-634,8093,-434,0,0,0,0,0
793,-624,8098,-457,0,0,0,0,0
794,-568,8112,-446,0,0,0,0,0
795,-574,8094,-419,0,0,0,0,0
796,-629,8080,-416,0,0,0,0,0
797,-646,8097,-427,0,0,0,0,0
798,-603,8110,-445,0,0,0,0,0
799,-572,8114,-444,0,0,0,0,0
800,-551,8133,-440,0,254,255,0,0
801,-582,8106,-465,0,0,0,0,0
802,-660,8104,-448,0,0,0,0,0
803,-654,8086,-423,0,0,0,0,0
804,-578,8102,-425,0,0,0,0,0
805,-566,8085,-462,0,0,0,0,0
806,-600,8092,-425,0,0,0,0,0
807,-661,8085,-434,0,0,0,0,0
808,-604,8094,-411,0,0,0,0,0
809,-585,8118,-438,0,0,0,0,0
810,-559,8089,-417,0,0,0,0,0
811,-599,8120,-434,0,0,0,0,0
812,-654,8097,-442,0,0,0,0,0
813,-618,8100,-408,0,0,0,0,0
814,-596,8105,-436,0,0,0,0,0
815,-542,8105,-430,0,0,0,0,0
816,-612,8146,-444,0,0,0,0,0
817,-638,8058,-409,0,0,0,0,0
818,-640,8123,-419,0,0,0,0,0
819,-604,8051,-439,0,0,0,0,0
820,-543,8154,-409,0,0,0,0,0
821,-594,8093,-445,0,0,0,0,0
822,-579,8110,-430,0,0,0,0,0
823,-559,8080,-436,0,0,0,0,0
824,-587,8100,-399,0,0,0,0,0
825,-510,8102,-407,0,4,0,0,0
826,-568,8119,-425,0,0,0,0,0
827,-620,8082,-389,0,0,0,0,0
828,-667,8100,-412,0,0,0,0,0
829,-702,8236,-453,0,0,0,0,0
830,-538,8095,-453,0,0,0,0,0
831,-620,8099,-415,0,0,0,0,0
832,-653,8078,-413,0,0,0,0,0
833,-594,8102,-437,0,0,0,0,0
834,-550,8096,-420,0,0,0,0,0
835,-572,8098,-432,0,0,0,0,0
836,-620,8078,-413,0,0,0,0,0
837,-635,8087,-419,0,0,0,0,0
838,-580,8122,-420,0,0,0,0,0
839,-546,8109,-438,0,0,0,0,0
840,-571,8108,-430,0,0,0,0,0
841,-647,8110,-424,0,0,0,0,0
842,-644,8092,-430,0,0,0,0,0
843,-548,8095,-445,0,0,0,0,0
844,-596,8118,-426,0,0,0,0,0
845,-620,8080,-410,0,0,0,0,0
846,-633,8084,-426,0,0,0,0,0
847,-566,8104,-418,0,0,0,0,0
848,-562,8112,-453,0,0,0,0,0
849,-575,8127,-436,0,0,0,0,0
850,-626,8081,-418,0,0,0,0,0
851,-613,8118,-419,0,0,0,0,0
852,-550,8091,-412,0,0,0,0,0
853,-559,8082,-434,0,0,0,0,0
854,-578,8109,-410,0,0,0,0,0
855,-660,8091,-445,0,0,0,0,0
856,-619,8111,-424,0,254,255,0,0
857,-573,8088,-420,0,0,0,0,0
858,-558,8123,-437,0,0,0,0,0
859,-639,8093,-418,0,0,0,0,0
860,-607,8100,-416,0,0,0,0,0
861,-575,8088,-438,0,0,0,0,0
862,-548,8126,-415,0,0,0,0,0
863,-632,8090,-430,0,0,0,0,0
864,-638,8106,-438,0,0,0,0,0
865,-558,8110,-458,0,0,0,0,0
866,-562,8119,-339,0,0,0,0,0
867,-638,8073,-432,0,0,0,0,0
868,-654,8104,-396,0,0,0,0,0
869,-550,8138,-427,0,0,0,0,0
870,-538,8064,-375,0,0,0,0,0
871,-580,8136,-393,0,0,0,0,0
872,-652,8061,-324,0,0,0,0,0
873,-595,8064,-368,0,2,0,0,0
874,-572,8118,-414,0,0,0,0,0
875,-623,8154,-443,0,0,0,0,0
876,-583,8060,-382,0,0,0,0,0
877,-539,8125,-416,0,0,0,0,0
878,-629,8096,-426,0,0,0,0,0
879,-636,8092,-431,0,0,0,0,0
880,-588,8104,-431,0,0,0,0,0
881,-550,8132,-414,0,0,0,0,0
882,-587,8082,-440,0,0,0,0,0
883,-582,8108,-417,0,0,0,0,0
884,-642,8109,-432,0,0,0,0,0
885,-634,8093,-423,0,0,0,0,0
886,-572,8117,-430,0,0,0,0,0
887,-590,8099,-414,0,0,0,0,0
888,-644,8099,-423,0,0,0,0,0
889,-630,8106,-422,0,0,0,0,0
890,-570,8122,-441,0,0,0,0,0
891,-553,8097,-428,0,0,0,0,0
892,-616,8104,-426,0,0,0,0,0
893,-632,8108,-427,0,0,0,0,0
894,-547,8122,-429,0,0,0,0,0
895,-600,8110,-430,0,0,0,0,0
896,-637,8098,-426,0,0,0,0,0
897,-564,8104,-432,0,0,0,0,0
898,-548,8128,-434,0,0,0,0,0
899,-606,8106,-436,0,0,0,0,0
900,-631,8104,-413,0,0,0,0,0
901,-547,8099,-418,0,0,0,0,0
902,-577,8101,-424,0,0,0,0,0
903,-622,8109,-437,0,255,255,0,0
904,-632,8084,-425,0,0,0,0,0
905,-588,8114,-429,0,0,0,0,0
906,-558,8090,-433,0,0,0,0,0
907,-593,8104,-413,0,0,0,0,0
908,-631,8092,-423,0,0,0,0,0
909,-615,8095,-423,0,0,0,0,0
910,-567,8100,-428,0,0,0,0,0
911,-636,8106,-428,0,0,0,0,0
912,-594,8103,-432,0,0,0,0,0
913,-570,8102,-438,0,0,0,0,0
914,-568,8106,-425,0,0,0,0,0
915,-616,8110,-423,0,0,0,0,0
916,-559,8116,-440,0,0,0,0,0
917,-577,8116,-428,0,0,0,0,0
918,-604,8108,-430,0,0,0,0,0
919,-575,8099,-437,0,0,0,0,0
920,-563,8098,-431,0,0,0,0,0
921,-620,8095,-423,0,0,0,0,0
922,-598,8106,-434,0,0,0,0,0
923,-572,8097,-449,0,0,0,0,0
924,-568,8085,-417,0,0,0,0,0
925,-594,8111,-427,0,0,0,0,0
926,-597,8092,-416,0,0,0,0,0
927,-608,8100,-430,0,0,0,0,0
928,-592,8098,-426,0,0,0,0,0
929,-565,8152,-409,0,0,0,0,0
930,-598,8111,-414,0,0,0,0,0
931,-578,8089,-440,0,0,0,0,0
932,-560,8091,-452,0,0,0,0,0
933,-591,8117,-434,0,0,0,0,0
934,-614,8090,-437,0,0,0,0,0
935,-569,8110,-424,0,0,0,0,0
936,-566,8097,-419,0,0,0,0,0
937,-623,8121,-429,0,0,0,0,0
938,-622,8086,-422,0,0,0,0,0
939,-607,8131,-433,0,0,0,0,0
940,-560,8118,-428,0,0,0,0,0
941,-578,8102,-419,0,0,0,0,0
942,-608,8088,-428,0,0,0,0,0
943,-578,8119,-422,0,0,0,0,0
944,-592,8083,-417,0,0,0,0,0
945,-616,8118,-424,0,0,0,0,0
946,-564,8100,-428,0,0,0,0,0
947,-584,8130,-438,0,0,0,0,0
948,-615,8088,-421,0,254,255,0,0
949,-610,8120,-429,0,0,0,0,0
950,-591,8093,-421,0,0,0,0,0
951,-580,8095,-425,0,0,0,0,0
952,-615,8117,-431,0,0,0,0,0
953,-566,8116,-435,0,0,0,0,0
954,-568,8103,-433,0,0,0,0,0
955,-618,8112,-430,0,0,0,0,0
956,-625,8090,-426,0,0,0,0,0
957,-586,8110,-420,0,0,0,0,0
958,-566,8117,-418,0,0,0,0,0
959,-605,8099,-441,0,0,0,0,0
960,-566,8106,-429,0,0,0,0,0
961,-586,8109,-438,0,0,0,0,0
962,-608,8099,-427,0,0,0,0,0
963,-608,8116,-429,0,0,0,0,0
964,-579,8098,-424,0,254,255,0,0
965,-567,8107,-429,0,0,0,0,0
966,-592,8097,-422,0,0,0,0,0
967,-622,8080,-432,0,0,0,0,0
968,-595,8112,-428,0,254,255,0,0
969,-586,8116,-432,0,0,0,0,0
970,-617,8103,-429,0,0,0,0,0
971,-567,8106,-434,0,0,0,0,0
972,-580,8096,-436,0,0,0,0,0
973,-576,8107,-422,0,0,0,0,0
974,-607,8096,-426,0,0,0,0,0
975,-613,8102,-420,0,0,0,0,0
976,-586,8100,-427,0,0,0,0,0
977,-573,8112,-430,0,0,0,0,0
978,-598,8113,-424,0,254,255,0,0
979,-611,8098,-424,0,0,0,0,0
980,-612,8092,-441,0,0,0,0,0
981,-559,8116,-423,0,0,0,0,0
982,-622,8086,-430,0,0,0,0,0
983,-595,8112,-424,0,0,0,0,0
984,-560,8110,-419,0,0,0,0,0
985,-610,8101,-410,0,0,0,0,0
986,-625,8096,-431,0,0,0,0,0
987,-571,8123,-419,0,0,0,0,0
988,-574,8099,-440,0,0,0,0,0
989,-593,8116,-420,0,0,0,0,0
990,-624,8098,-427,0,0,0,0,0
991,-589,8102,-411,0,0,0,0,0
992,-579,8110,-447,0,0,0,0,0
993,-613,8094,-434,0,0,0,0,0
994,-622,8108,-441,0,0,0,0,0
995,-588,8100,-431,0,0,0,0,0
996,-552,8112,-412,0,0,0,0,0
997,-621,8102,-426,0,0,0,0,0
998,-611,8084,-401,0,0,0,0,0
999,-623,8094,-447,0,2,0,0,0
1000,-563,8113,-424,0,0,0,0,0
1001,-587,8116,-446,0,0,0,0,0
1002,-616,8112,-430,0,0,0,0,0
1003,-568,8106,-432,0,0,0,0,0
1004,-562,8104,-423,0,0,0,0,0
1005,-604,8090,-420,0,0,0,0,0
1006,-618,8103,-426,0,2,0,0,0
1007,-618,8098,-433,0,0,0,0,0
1008,-565,8119,-436,0,0,0,0,0
1009,-574,8104,-423,0,0,0,0,0
1010,-614,8098,-428,0,0,0,0,0
1011,-620,8110,-426,0,0,0,0,0
1012,-575,8102,-428,0,0,0,0,0
1013,-564,8124,-421,0,0,0,0,0
1014,-586,8098,-434,0,2,0,0,0
1015,-620,8092,-423,0,0,0,0,0
1016,-611,8106,-423,0,0,0,0,0
1017,-569,8106,-428,0,0,0,0,0
1018,-572,8104,-432,0,2,0,0,0
1019,-616,8103,-428,0,0,0,0,0
1020,-614,8097,-424,0,0,0,0,0
1021,-582,8114,-432,0,0,0,0,0
1022,-566,8097,-420,0,2,0,0,0
1023,-590,8102,-428,0,0,0,0,0
1024,-612,8102,-424,0,0,0,0,0
1025,-600,8106,-418,0,0,0,0,0
1026,-584,8117,-424,0,2,0,0,0
1027,-578,8099,-434,0,0,0,0,0
1028,-602,8121,-421,0,0,0,0,0
1029,-618,8104,-430,0,0,0,0,0
1030,-576,8105,-434,0,0,0,0,0
1031,-594,8104,-432,0,0,0,0,0
1032,-629,8107,-426,0,0,0,0,0
1033,-611,8113,-423,0,2,0,0,0
1034,-584,8110,-420,0,0,0,0,0
1035,-580,8102,-428,0,83,0,0,0
1036,-601,8094,-424,0,0,0,0,0
1037,-618,8099,-417,0,2,0,0,0
1038,-599,8103,-430,0,0,0,0,0
1039,-578,8097,-431,0,0,0,0,0
1040,-583,8115,-432,0,0,0,0,0
1041,-612,8108,-431,0,2,0,0,0
1042,-606,8092,-427,0,0,0,0,0
1043,-586,8101,-425,0,0,0,0,0
1044,-566,8105,-415,0,0,0,0,0
1045,-598,8108,-437,0,2,0,0,0
1046,-610,8103,-427,0,0,0,0,0
1047,-608,8098,-436,0,0,0,0,0
1048,-581,8121,-432,0,0,0,0,0
1049,-576,8094,-422,0,2,0,0,0
1050,-608,8111,-421,0,0,0,0,0
1051,-610,8105,-419,0,0,0,0,0
1052,-588,8095,-428,0,0,0,0,0
1053,-577,8116,-424,0,2,0,0,0
1054,-592,8097,-420,0,0,0,0,0
1055,-609,8108,-426,0,0,0,0,0
1056,-588,8102,-441,0,2,0,0,0
1057,-571,8115,-426,0,0,0,0,0
1058,-606,8095,-441,0,0,0,0,0
1059,-610,8102,-425,0,0,0,0,0
1060,-602,8097,-442,0,2,0,0,0
1061,-571,8098,-426,0,0,0,0,0
1062,-596,8109,-440,0,0,0,0,0
1063,-599,8096,-417,0,0,0,0,0
1064,-608,8110,-429,0,2,0,0,0
1065,-592,8096,-426,0,0,0,0,0
1066,-597,8102,-420,0,0,0,0,0
1067,-618,8092,-420,0,2,0,0,0
1068,-597,8101,-430,0,0,0,0,0
1069,-586,8101,-435,0,110,0,0,0
1070,-591,8118,-422,0,0,0,0,0
1071,-600,8094,-428,0,2,0,0,0
1072,-614,8096,-433,0,0,0,0,0
1073,-578,8121,-417,0,110,0,0,0
1074,-592,8089,-442,0,0,0,0,0
1075,-607,8117,-426,0,2,0,0,0
1076,-634,8086,-427,0,0,0,0,0
1077,-585,8104,-426,0,0,0,0,0
1078,-578,8101,-444,0,0,0,0,0
1079,-592,8095,-420,0,2,0,0,0
1080,-617,8108,-426,0,0,0,0,0
1081,-584,8114,-429,0,0,0,0,0
1082,-568,8112,-420,0,2,0,0,0
1083,-601,8107,-437,0,0,0,0,0
1084,-602,8121,-427,0,0,0,0,0
1085,-596,8089,-430,0,0,0,0,0
1086,-578,8106,-440,0,2,0,0,0
1087,-590,8097,-426,0,0,0,0,0
1088,-608,8087,-424,0,0,0,0,0
1089,-605,8110,-431,0,0,0,0,0
1090,-580,8114,-426,0,0,0,0,0
1091,-602,8116,-435,0,0,0,0,0
1092,-605,8083,-423,0,0,0,0,0
1093,-602,8106,-432,0,2,0,0,0
1094,-600,8090,-380,0,0,0,0,0
1095,-574,8122,-317,0,0,0,0,0
1096,-628,8102,-461,0,2,0,0,0
1097,-568,8149,-420,0,0,0,0,0
1098,-598,8100,-480,0,0,0,0,0
1099,-583,8129,-462,0,0,0,0,0
1100,-608,8109,-454,0,2,0,0,0
1101,-597,8074,-427,0,0,0,0,0
1102,-594,8120,-414,0,0,0,0,0
1103,-571,8082,-394,0,0,0,0,0
1104,-585,8109,-422,0,2,0,0,0
1105,-623,8114,-415,0,0,0,0,0
1106,-586,8128,-432,0,0,0,0,0
1107,-560,8100,-433,0,0,0,0,0
1108,-614,8094,-442,0,0,0,0,0
1109,-601,8121,-416,0,0,0,0,0
1110,-596,8093,-441,0,0,0,0,0
1111,-565,8132,-413,0,0,0,0,0
1112,-612,8106,-434,0,0,0,0,0
1113,-619,8116,-438,0,0,0,0,0
1114,-577,8092,-421,0,0,0,0,0
1115,-581,8108,-430,0,0,0,0,0
1116,-596,8104,-429,0,0,0,0,0
1117,-602,8115,-436,0,0,0,0,0
1118,-578,8105,-424,0,0,0,0,0
1119,-590,8110,-436,0,0,0,0,0
1120,-600,8104,-425,0,0,0,0,0
1121,-612,8091,-435,0,0,0,0,0
1122,-584,8130,-422,0,0,0,0,0
1123,-585,8102,-436,0,0,0,0,0
1124,-592,8111,-431,0,0,0,0,0
1125,-621,8104,-438,0,0,0,0,0
1126,-598,8089,-423,0,0,0,0,0
1127,-582,8116,-435,0,0,0,0,0
1128,-586,8099,-424,0,0,0,0,0
1129,-614,8091,-433,0,0,0,0,0
1130,-615,8115,-426,0,0,0,0,0
1131,-588,8094,-436,0,0,0,0,0
1132,-580,8116,-434,0,0,0,0,0
1133,-596,8108,-430,0,0,0,0,0
1134,-619,8094,-432,0,0,0,0,0
1135,-595,8111,-428,0,0,0,0,0
1136,-589,8096,-434,0,0,0,0,0
1137,-584,8106,-422,0,0,0,0,0
1138,-600,8106,-427,0,0,0,0,0
1139,-604,8106,-424,0,0,0,0,0
1140,-599,8108,-435,0,151,0,0,0
1141,-579,8104,-422,0,0,0,0,0
1142,-596,8097,-433,0,0,0,0,0
1143,-611,8108,-430,0,0,0,0,0
1144,-610,8097,-429,0,0,0,0,0
1145,-572,8107,-422,0,0,0,0,0
1146,-593,8095,-427,0,0,0,0,0
1147,-612,8105,-431,0,151,0,0,0
1148,-584,8111,-418,0,0,0,0,0
1149,-581,8104,-428,0,0,0,0,0
1150,-596,8115,-430,0,0,0,0,0
1151,-599,8104,-423,0,0,0,0,0
1152,-584,8106,-428,0,0,0,0,0
1153,-580,8098,-430,0,0,0,0,0
1154,-600,8101,-426,0,0,0,0,0
1155,-604,8094,-429,0,0,0,0,0
1156,-586,8100,-424,0,0,0,0,0
1157,-589,8096,-420,0,0,0,0,0
1158,-608,8102,-426,0,0,0,0,0
1159,-599,8106,-418,0,0,0,0,0
1160,-584,8104,-424,0,0,0,0,0
1161,-610,8098,-422,0,0,0,0,0
1162,-592,8111,-435,0,0,0,0,0
1163,-574,8105,-436,0,0,0,0,0
1164,-597,8102,-420,0,2,0,0,0
1165,-606,8112,-418,0,0,0,0,0
1166,-606,8090,-426,0,0,0,0,0
1167,-587,8108,-427,0,0,0,0,0
1168,-583,8105,-428,0,2,0,0,0
1169,-600,8081,-432,0,0,0,0,0
1170,-596,8108,-425,0,0,0,0,0
1171,-587,8110,-410,0,0,0,0,0
1172,-580,8100,-425,0,2,0,0,0
1173,-603,8122,-428,0,0,0,0,0
1174,-604,8086,-408,0,166,0,0,0
1175,-584,8091,-413,0,0,0,0,0
1176,-582,8110,-427,0,0,0,0,0
1177,-602,8088,-426,0,0,0,0,0
1178,-602,8113,-422,0,166,0,0,0
1179,-598,8108,-433,0,0,0,0,0
1180,-577,8093,-428,0,0,0,0,0
1181,-587,8112,-428,0,0,0,0,0
1182,-601,8091,-432,0,166,0,0,0
1183,-606,8098,-430,0,0,0,0,0
1184,-599,8108,-422,0,0,0,0,0
1185,-582,8100,-434,0,0,0,0,0
1186,-587,8115,-430,0,166,0,0,0
1187,-616,8097,-417,0,0,0,0,0
1188,-616,8106,-430,0,0,0,0,0
1189,-584,8112,-434,0,0,0,0,0
1190,-574,8098,-424,0,166,0,0,0
1191,-604,8105,-433,0,0,0,0,0
1192,-615,8098,-434,0,0,0,0,0
1193,-590,8101,-428,0,0,0,0,0
1194,-576,8125,-428,0,166,0,0,0
1195,-602,8103,-432,0,0,0,0,0
1196,-602,8110,-428,0,2,0,0,0
1197,-600,8108,-430,0,0,0,0,0
1198,-586,8099,-425,0,166,0,0,0
1199,-586,8118,-423,0,0,0,0,0
1200,-598,8097,-427,0,2,0,0,0
1201,-606,8101,-433,0,0,0,0,0
1202,-596,8116,-425,0,178,0,0,0
1203,-575,8101,-428,0,0,0,0,0
1204,-587,8102,-424,0,0,0,0,0
1205,-594,8110,-433,0,0,0,0,0
1206,-602,8100,-428,0,0,0,0,0
1207,-590,8105,-400,0,0,0,0,0
1208,-603,8113,-447,0,0,0,0,0
1209,-582,8098,-422,0,0,0,0,0
1210,-588,8116,-419,1326,2,2,0,0
1211,-605,8095,-437,0,0,0,0,0
1212,-603,8093,-426,1638,33,2,33,2
1213,-589,8108,-432,0,0,0,0,0
1214,-608,8058,-438,0,0,0,0,0
1215,-590,8144,-498,1508,119,2,119,2
1216,-556,8037,-442,0,0,0,222,252
1217,-538,7925,-265,0,0,0,0,0
1218,-635,8321,-439,0,6,3,6,3
1219,-518,8170,-652,0,0,0,0,0
1220,-856,8043,-500,0,0,0,0,0
1221,-472,8832,-50,918,23,3,23,3
1222,-670,6854,-1700,0,0,0,0,0
1223,-533,8680,1355,0,0,0,92,5
1224,-749,7485,-1384,0,0,0,0,0
1225,-563,8059,-484,1494,24,3,24,3
1226,-555,8279,-718,0,0,0,0,0
1227,-925,7996,-199,0,188,0,0,0
1228,-830,8324,-1235,0,0,0,0,0
1229,-772,7709,158,0,0,0,0,0
1230,-732,9289,592,0,2,0,0,0
1231,-843,9502,-512,0,0,0,151,4
1232,-532,6992,-688,0,0,0,0,0
1233,-917,9204,-1810,0,0,0,0,0
1234,-312,6782,220,0,0,0,0,0
1235,-2,6410,40,0,0,0,0,0
1236,-462,8263,774,0,0,0,0,0
1237,-722,7387,-1463,0,0,0,129,4
1238,-758,10524,-395,0,0,0,0,0
1239,-722,8538,126,1006,21,3,0,0
1240,-858,10859,-54,0,0,0,0,0
1241,-792,8630,-252,0,0,0,0,0
1242,-1007,9129,-1062,0,0,0,0,0
1243,-450,6215,-1282,0,188,0,0,0
1244,-774,10234,-540,0,0,0,0,0
1245,-312,5918,-709,0,24,3,24,3
1246,-628,8265,-536,0,188,0,0,0
1247,-924,8185,-302,0,0,0,0,0
1248,-526,8232,-1194,980,2,0,0,0
1249,-382,9586,-1154,0,0,0,0,0
1250,96,7192,-355,0,0,0,0,0
1251,-422,7464,792,0,0,0,0,0
1252,-798,7265,-2183,0,0,0,0,0
1253,-874,9602,281,0,0,0,0,0
1254,-843,7572,1580,0,0,0,0,0
1255,-507,9357,1334,0,0,0,0,0
1256,-542,7591,-1954,0,0,0,0,0
1257,-380,8006,-423,0,0,0,0,0
1258,-620,7724,-360,0,0,0,0,0
1259,-568,8445,-457,0,0,0,0,0
1260,-700,8266,-583,0,207,0,0,0
1261,-608,8111,-544,0,0,0,0,0
1262,-578,7955,-344,0,207,0,0,0
1263,-634,8316,-438,0,255,255,0,0
1264,-595,7913,-400,0,0,0,0,0
1265,-604,8125,-467,0,0,0,0,0
1266,-565,8068,-416,0,0,0,0,0
1267,-607,8068,-424,0,0,0,0,0
1268,-636,8226,-413,0,2,0,0,0
1269,-579,8009,-402,0,0,0,0,0
1270,-602,8246,-454,0,0,0,0,0
1271,-618,8182,-453,0,0,0,0,0
1272,-894,8094,-236,0,0,0,0,0
1273,-903,8075,-272,0,0,0,0,0
1274,-894,8083,-371,0,0,0,0,0
1275,-893,8072,-352,0,0,0,0,0
1276,-883,8094,-294,0,0,0,0,0
1277,-907,8072,-281,0,0,0,0,0
1278,-886,8086,-274,0,0,0,0,0
1279,-904,8063,-292,0,0,0,0,0
1280,-900,8079,-320,0,0,0,0,0
1281,-918,8090,-327,0,0,0,0,0
1282,-878,8094,-291,0,0,0,0,0
1283,-903,8079,-303,0,0,0,0,0
1284,-892,8079,-280,0,0,0,0,0
1285,-894,8096,-302,0,0,0,0,0
1286,-901,8085,-311,0,0,0,0,0
1287,-901,8067,-292,0,0,0,0,0
1288,-892,8094,-298,0,0,0,0,0
1289,-889,8090,-288,0,0,0,0,0
1290,-915,8083,-306,0,0,0,0,0
1291,-898,8088,-309,0,0,0,0,0
1292,-899,8081,-292,0,0,0,0,0
1293,-888,8076,-283,0,0,0,0,0
1294,-879,8093,-294,0,0,0,0,0
1295,-895,8078,-305,0,0,0,0,0
1296,-912,8092,-308,0,0,0,0,0
1297,-905,8078,-297,0,219,254,0,0
1298,-895,8086,-280,0,0,0,0,0
1299,-888,8065,-299,0,0,0,0,0
1300,-903,8087,-296,0,0,0,0,0
1301,-912,8092,-306,0,253,255,0,0
1302,-899,8078,-324,0,0,0,0,0
1303,-884,8117,-273,0,0,0,0,0
1304,-905,8070,-309,0,0,0,0,0
1305,-890,8082,-294,0,0,0,0,0
1306,-915,8097,-295,0,0,0,0,0
1307,-870,8072,-278,0,0,0,0,0
1308,-908,8083,-330,0,0,0,0,0
1309,-907,8050,-284,0,0,0,0,0
1310,-898,8074,-312,0,0,0,0,0
1311,-898,8093,-320,0,0,0,0,0
1312,-897,8086,-284,0,0,0,0,0
1313,-896,8077,-258,0,0,0,0,0
1314,-893,8088,-296,0,0,0,0,0
1315,-904,8068,-310,0,0,0,0,0
1316,-894,8083,-307,0,0,0,0,0
1317,-898,8052,-310,0,0,0,0,0
1318,-893,8084,-271,0,0,0,0,0
1319,-907,8078,-288,0,0,0,0,0
1320,-901,8071,-285,0,0,0,0,0
1321,-896,8086,-290,0,0,0,0,0
1322,-890,8080,-294,0,0,0,0,0
1323,-888,8082,-302,0,0,0,0,0
1324,-908,8091,-295,0,0,0,0,0
1325,-892,8080,-286,0,0,0,0,0
1326,-884,8099,-264,0,0,0,0,0
1327,-898,8081,-285,0,0,0,0,0
1328,-896,8087,-292,0,0,0,0,0
1329,-860,8080,-304,0,0,0,0,0
1330,-888,8066,-257,0,0,0,0,0
1331,-885,8048,-263,0,0,0,0,0
1332,-919,8150,-280,0,0,0,0,0
1333,-894,8074,-287,0,0,0,0,0
1334,-891,8074,-320,0,0,0,0,0
1335,-904,8094,-300,0,0,0,0,0
1336,-904,8097,-296,0,0,0,0,0
1337,-884,8076,-272,0,0,0,0,0
1338,-901,8081,-290,0,0,0,0,0
1339,-900,8090,-310,0,0,0,0,0
1340,-889,8093,-301,0,0,0,0,0
1341,-900,8061,-281,0,0,0,0,0
1342,-893,8099,-264,0,0,0,0,0
1343,-894,8088,-274,0,0,0,0,0
1344,-907,8083,-313,0,0,0,0,0
1345,-901,8081,-296,0,0,0,0,0
1346,-902,8084,-293,0,0,0,0,0
1347,-880,8085,-268,0,0,0,0,0
1348,-896,8076,-277,0,0,0,0,0
1349,-900,8080,-297,0,0,0,0,0
1350,-894,8094,-296,0,0,0,0,0
1351,-894,8070,-287,0,0,0,0,0
1352,-896,8082,-281,0,0,0,0,0
1353,-906,8083,-286,0,0,0,0,0
1354,-902,8090,-285,0,0,0,0,0
1355,-901,8096,-285,0,0,0,0,0
1356,-899,8089,-298,0,0,0,0,0
1357,-888,8079,-295,0,0,0,0,0
1358,-897,8081,-292,0,0,0,0,0
1359,-893,8092,-282,0,0,0,0,0
1360,-906,8078,-276,0,0,0,0,0
1361,-897,8086,-294,0,0,0,0,0
1362,-897,8082,-291,0,0,0,0,0
1363,-899,8083,-295,0,0,0,0,0
1364,-890,8090,-293,0,0,0,0,0
1365,-899,8076,-291,0,0,0,0,0
1366,-899,8080,-278,0,0,0,0,0
1367,-898,8092,-293,0,0,0,0,0
1368,-896,8096,-295,0,0,0,0,0
1369,-900,8076,-303,0,0,0,0,0
1370,-896,8090,-282,0,0,0,0,0
1371,-894,8088,-281,0,0,0,0,0
1372,-892,8074,-281,0,0,0,0,0
1373,-905,8078,-300,0,0,0,0,0
1374,-905,8098,-294,0,0,0,0,0
1375,-894,8074,-285,0,0,0,0,0
1376,-899,8083,-291,0,0,0,0,0
1377,-898,8092,-300,0,0,0,0,0
1378,-888,8076,-258,0,0,0,0,0
1379,-906,8086,-294,0,0,0,0,0
1380,-893,8086,-293,0,0,0,0,0
1381,-886,8090,-290,0,0,0,0,0
1382,-904,8068,-294,0,0,0,0,0
1383,-895,8104,-294,0,0,0,0,0
1384,-895,8080,-285,0,0,0,0,0
1385,-888,8072,-284,0,0,0,0,0
1386,-907,8091,-298,0,0,0,0,0
1387,-896,8080,-289,0,0,0,0,0
1388,-894,8082,-296,0,0,0,0,0
1389,-905,8068,-284,0,0,0,0,0
1390,-892,8084,-284,0,0,0,0,0
1391,-910,8098,-294,0,0,0,0,0
1392,-901,8094,-297,0,0,0,0,0
1393,-889,8077,-292,0,0,0,0,0
1394,-893,8074,-293,0,254,255,0,0
1395,-909,8094,-287,0,0,0,0,0
1396,-904,8073,-294,0,0,0,0,0
1397,-888,8082,-289,0,0,0,0,0
1398,-888,8081,-293,0,0,0,0,0
1399,-906,8080,-292,0,0,0,0,0
1400,-895,8090,-281,0,0,0,0,0
1401,-894,8080,-289,0,0,0,0,0
1402,-900,8079,-282,0,0,0,0,0
1403,-902,8076,-304,0,0,0,0,0
1404,-890,8088,-288,0,0,0,0,0
1405,-910,8085,-288,0,0,0,0,0
1406,-890,8080,-265,0,0,0,0,0
1407,-886,8099,-285,0,0,0,0,0
1408,-902,8082,-291,0,0,0,0,0
1409,-891,8079,-300,0,0,0,0,0
1410,-900,8100,-293,0,0,0,0,0
1411,-898,8070,-288,0,0,0,0,0
1412,-906,8094,-289,0,0,0,0,0
1413,-880,8094,-289,0,0,0,0,0
1414,-902,8092,-298,0,0,0,0,0
1415,-889,8061,-300,0,0,0,0,0
1416,-896,8100,-274,0,0,0,0,0
1417,-904,8094,-285,0,0,0,0,0
1418,-906,8083,-289,0,0,0,0,0
1419,-852,8149,-182,0,0,0,0,0
1420,-912,8084,-314,0,0,0,0,0
1421,-901,8058,-298,0,0,0,0,0
1422,-926,8071,-293,0,0,0,0,0
1423,-903,8126,-288,0,0,0,0,0
1424,-893,8087,-300,0,0,0,0,0
1425,-912,8056,-280,0,0,0,0,0
1426,-898,8094,-275,0,0,0,0,0
1427,-899,8094,-304,0,0,0,0,0
1428,-898,8075,-283,0,0,0,0,0
1429,-882,8096,-295,0,0,0,0,0
1430,-906,8072,-287,0,0,0,0,0
1431,-896,8080,-288,0,0,0,0,0
1432,-898,8111,-288,0,0,0,0,0
1433,-901,8067,-280,0,0,0,0,0
1434,-888,8087,-294,0,0,0,0,0
1435,-886,8088,-294,0,0,0,0,0
1436,-916,8083,-286,0,0,0,0,0
1437,-903,8088,-288,0,0,0,0,0
1438,-878,8068,-295,0,0,0,0,0
1439,-886,8080,-290,0,0,0,0,0
1440,-905,8088,-282,0,0,0,0,0
1441,-903,8062,-294,0,0,0,0,0
1442,-878,8092,-292,0,0,0,0,0
1443,-896,8099,-300,0,0,0,0,0
1444,-908,8066,-293,0,0,0,0,0
1445,-895,8090,-280,0,0,0,0,0
1446,-899,8092,-299,0,0,0,0,0
1447,-878,8123,-304,0,0,0,0,0
1448,-919,8084,-284,0,0,0,0,0
1449,-910,8074,-286,0,0,0,0,0
1450,-893,8086,-292,0,0,0,0,0
1451,-905,8083,-298,0,0,0,0,0
1452,-883,8092,-285,0,0,0,0,0
1453,-910,8090,-282,0,0,0,0,0
1454,-895,8083,-290,0,0,0,0,0
1455,-899,8088,-297,0,0,0,0,0
1456,-896,8077,-292,0,0,0,0,0
1457,-899,8085,-289,0,0,0,0,0
1458,-903,8097,-287,0,0,0,0,0
1459,-902,8079,-294,0,0,0,0,0
1460,-894,8096,-292,0,0,0,0,0
1461,-900,8077,-297,0,0,0,0,0
1462,-904,8085,-299,0,0,0,0,0
1463,-898,8094,-289,0,0,0,0,0
1464,-889,8089,-288,0,0,0,0,0
1465,-900,8074,-286,0,0,0,0,0
1466,-898,8101,-296,0,0,0,0,0
1467,-870,8184,-284,0,0,0,0,0
1468,-889,8090,-283,0,0,0,0,0
1469,-891,8034,-272,0,0,0,0,0
1470,-896,8066,-289,0,0,0,0,0
1471,-900,8086,-296,0,0,0,0,0
1472,-892,8087,-292,0,216,254,0,0
1473,-905,8089,-285,0,0,0,0,0
1474,-892,8068,-302,0,0,0,0,0
1475,-888,8097,-286,0,0,0,0,0
1476,-902,8092,-291,0,0,0,0,0
1477,-898,8066,-292,0,0,0,0,0
1478,-898,8092,-291,0,0,0,0,0
1479,-891,8094,-293,0,0,0,0,0
1480,-893,8090,-280,0,0,0,0,0
1481,-900,8092,-296,0,0,0,0,0
1482,-898,8078,-300,0,0,0,0,0
1483,-903,8077,-292,0,0,0,0,0
1484,-886,8091,-287,0,0,0,0,0
1485,-893,8078,-279,0,0,0,0,0
1486,-898,8094,-286,0,0,0,0,0
1487,-898,8081,-292,0,0,0,0,0
1488,-891,8084,-296,0,0,0,0,0
1489,-903,8088,-286,0,0,0,0,0
1490,-906,8078,-290,0,0,0,0,0
1491,-885,8091,-282,0,0,0,0,0
1492,-899,8075,-300,0,0,0,0,0
1493,-898,8078,-286,0,0,0,0,0
1494,-906,8099,-278,0,0,0,0,0
1495,-898,8090,-292,0,0,0,0,0
1496,-894,8070,-340,0,0,0,0,0
1497,-863,8077,-198,0,0,0,0,0
1498,-903,8122,-281,0,0,0,0,0
1499,-894,8033,-346,0,0,0,0,0
1500,-891,8083,-308,0,0,0,0,0
1501,-912,8084,-310,0,0,0,0,0
1502,-886,8130,-285,0,0,0,0,0
1503,-916,8059,-306,0,0,0,0,0
1504,-913,8089,-300,0,0,0,0,0
1505,-890,8103,-306,0,0,0,0,0
1506,-896,8077,-291,0,0,0,0,0
1507,-891,8088,-297,0,0,0,0,0
1508,-889,8088,-293,0,0,0,0,0
1509,-886,8088,-286,0,0,0,0,0
1510,-904,8081,-294,0,0,0,0,0
1511,-888,8080,-284,0,0,0,0,0
1512,-900,8093,-293,0,0,0,0,0
1513,-906,8074,-294,0,0,0,0,0
1514,-901,8082,-297,0,0,0,0,0
1515,-894,8093,-303,0,0,0,0,0
1516,-903,8079,-288,0,0,0,0,0
1517,-888,8089,-296,0,0,0,0,0
1518,-902,8069,-298,0,0,0,0,0
1519,-915,8087,-292,0,0,0,0,0
1520,-896,8083,-297,0,0,0,0,0
1521,-896,8072,-291,0,0,0,0,0
1522,-897,8083,-290,0,0,0,0,0
1523,-896,8064,-301,0,0,0,0,0
1524,-886,8102,-320,0,0,0,0,0
1525,-892,8089,-284,0,0,0,0,0
1526,-886,8090,-304,0,0,0,0,0
1527,-908,8050,-294,0,255,255,0,0
1528,-884,8139,-314,0,255,255,0,0
1529,-898,8048,-284,0,0,0,0,0
1530,-916,8089,-291,0,0,0,0,0
1531,-878,8087,-337,0,0,0,0,0
1532,-909,8078,-306,0,0,0,0,0
1533,-899,8088,-244,0,0,0,0,0
1534,-910,8104,-333,0,0,0,0,0
1535,-874,8157,-294,0,0,0,0,0
1536,-907,8072,-298,0,0,0,0,0
1537,-913,8052,-283,0,0,0,0,0
1538,-894,8096,-286,0,0,0,0,0
1539,-907,8103,-286,0,0,0,0,0
1540,-889,8082,-298,0,0,0,0,0
1541,-898,8095,-303,0,0,0,0,0
1542,-893,8088,-291,0,0,0,0,0
1543,-891,8070,-301,0,0,0,0,0
1544,-906,8102,-304,0,0,0,0,0
1545,-894,8074,-307,0,0,0,0,0
1546,-890,8082,-290,0,255,255,0,0
1547,-888,8092,-279,0,0,0,0,0
1548,-898,8086,-276,0,0,0,0,0
1549,-907,8095,-265,0,0,0,0,0
1550,-903,8055,-277,0,0,0,0,0
1551,-908,8084,-272,0,0,0,0,0
1552,-875,8088,-284,0,0,0,0,0
1553,-903,8093,-290,0,0,0,0,0
1554,-884,8098,-279,0,0,0,0,0
1555,-894,8063,-284,0,0,0,0,0
1556,-908,8086,-283,0,0,0,0,0
1557,-927,7997,-233,0,0,0,0,0
1558,-900,8301,-172,0,0,0,0,0
1559,-863,7894,-278,0,7,0,0,0
1560,-950,8050,-220,0,0,0,0,0
1561,-856,8154,-182,0,0,0,0,0
1562,-894,8162,-277,0,0,0,0,0
1563,-911,8096,-488,0,0,0,0,0
1564,-945,8045,-348,0,0,0,0,0
1565,-844,8106,-253,0,0,0,0,0
1566,-878,8188,-215,0,0,0,0,0
1567,-912,8076,-229,0,49,0,0,0
1568,-884,8021,-185,0,0,0,0,0
1569,-954,8072,-288,0,0,0,0,0
1570,-871,8065,-421,0,0,0,0,0
1571,-856,7991,-342,0,49,0,0,0
1572,-939,8174,-272,0,0,0,0,0
1573,-898,8108,-292,0,2,0,0,0
1574,-912,7948,-287,0,0,0,0,0
1575,-867,8145,-240,0,0,0,0,0
1576,-895,8102,-331,0,0,0,0,0
1577,-887,8050,-289,0,0,0,0,0
1578,-909,8064,-284,0,0,0,0,0
1579,-892,8058,-260,0,0,0,0,0
1580,-910,8140,-284,0,0,0,0,0
1581,-906,8058,-352,0,0,0,0,0
1582,-902,8123,-293,0,0,0,0,0
1583,-896,8066,-274,0,0,0,0,0
1584,-875,8108,-341,0,0,0,0,0
1585,-868,8128,-306,0,0,0,0,0
1586,-920,8078,-148,0,0,0,0,0
1587,-902,8122,-219,0,0,0,0,0
1588,-874,8130,-360,0,2,0,0,0
1589,-951,8056,-293,0,0,0,0,0
1590,-913,8080,-244,0,0,0,0,0
1591,-852,8122,-262,0,0,0,0,0
1592,-907,8068,-316,0,0,0,0,0
1593,-944,8033,-344,0,0,0,0,0
1594,-876,8101,-285,0,0,0,0,0
1595,-897,8116,-267,0,0,0,0,0
1596,-882,8122,-325,0,0,0,0,0
1597,-876,8092,-293,0,0,0,0,0
1598,-934,8063,-288,0,0,0,0,0
1599,-926,8090,-335,0,0,0,0,0
1600,-884,8112,-265,0,0,0,0,0
1601,-888,8064,-298,0,0,0,0,0
1602,-913,8064,-278,0,0,0,0,0
1603,-883,8103,-281,0,0,0,0,0
1604,-892,8089,-329,0,0,0,0,0
1605,-901,8055,-269,0,0,0,0,0
1606,-902,8104,-282,0,0,0,0,0
1607,-897,8086,-288,0,0,0,0,0
1608,-880,8077,-304,0,0,0,0,0
1609,-898,8099,-304,0,0,0,0,0
1610,-890,8074,-276,0,0,0,0,0
1611,-888,8080,-300,0,0,0,0,0
1612,-898,8069,-263,0,0,0,0,0
1613,-880,8099,-291,0,0,0,0,0
1614,-895,8080,-306,0,0,0,0,0
1615,-894,8063,-291,0,0,0,0,0
1616,-890,8110,-291,0,0,0,0,0
1617,-891,8068,-278,0,0,0,0,0
1618,-916,8087,-295,0,0,0,0,0
1619,-879,8090,-284,0,0,0,0,0
1620,-882,8077,-278,0,0,0,0,0
1621,-920,8092,-304,0,0,0,0,0
1622,-908,8082,-290,0,0,0,0,0
1623,-877,8074,-284,0,0,0,0,0
1624,-895,8085,-290,0,0,0,0,0
1625,-914,8084,-295,0,0,0,0,0
1626,-882,8066,-281,0,0,0,0,0
1627,-887,8086,-298,0,0,0,0,0
1628,-915,8110,-290,0,0,0,0,0
1629,-890,8054,-264,0,0,0,0,0
1630,-894,8097,-312,0,0,0,0,0
1631,-906,8087,-300,0,0,0,0,0
1632,-896,8088,-279,0,0,0,0,0
1633,-894,8097,-291,0,0,0,0,0
1634,-886,8082,-285,0,0,0,0,0
1635,-900,8088,-290,0,0,0,0,0
1636,-888,8092,-293,0,0,0,0,0
1637,-899,8074,-294,0,0,0,0,0
1638,-898,8102,-300,0,0,0,0,0
1639,-894,8084,-293,0,0,0,0,0
1640,-893,8069,-286,0,0,0,0,0
1641,-897,8088,-295,0,0,0,0,0
1642,-889,8088,-288,0,0,0,0,0
1643,-892,8098,-296,0,0,0,0,0
1644,-913,8102,-303,0,0,0,0,0
1645,-918,8076,-305,0,0,0,0,0
1646,-881,8094,-275,0,0,0,0,0
1647,-889,8032,-296,0,0,0,0,0
1648,-914,8102,-297,0,0,0,0,0
1649,-881,8063,-265,0,0,0,0,0
1650,-896,8134,-302,0,0,0,0,0
1651,-904,8048,-286,0,0,0,0,0
1652,-878,8078,-274,0,0,0,0,0
1653,-905,8116,-312,0,0,0,0,0
1654,-901,8073,-285,0,0,0,0,0
1655,-886,8088,-263,0,0,0,0,0
1656,-878,8086,-258,0,0,0,0,0
1657,-913,8110,-314,0,0,0,0,0
1658,-884,8088,-298,0,0,0,0,0
1659,-898,8045,-264,0,0,0,0,0
1660,-918,8078,-282,0,0,0,0,0
1661,-868,8110,-307,0,0,0,0,0
1662,-878,8064,-274,0,0,0,0,0
1663,-903,8111,-263,0,0,0,0,0
1664,-922,8051,-341,0,0,0,0,0
1665,-896,8080,-299,0,0,0,0,0
1666,-884,8102,-271,0,0,0,0,0
1667,-904,8066,-275,0,0,0,0,0
1668,-902,8103,-313,0,2,0,0,0
1669,-874,8102,-302,0,0,0,0,0
1670,-916,8090,-268,0,0,0,0,0
1671,-901,8081,-306,0,2,0,0,0
1672,-877,8091,-288,0,0,0,0,0
1673,-898,8084,-278,0,0,0,0,0
1674,-900,8084,-311,0,0,0,0,0
1675,-908,8094,-327,0,2,0,0,0
1676,-885,8119,-264,0,0,0,0,0
1677,-869,8066,-239,0,132,0,0,0
1678,-926,8055,-332,0,0,0,0,0
1679,-920,8128,-340,0,2,0,0,0
1680,-865,8074,-273,0,0,0,0,0
1681,-906,8083,-274,0,0,0,0,0
1682,-918,8081,-272,0,0,0,0,0
1683,-893,8102,-342,0,0,0,0,0
1684,-916,8093,-260,0,0,0,0,0
1685,-899,8108,-266,0,132,0,0,0
1686,-876,8072,-340,0,0,0,0,0
1687,-891,8078,-304,0,2,0,0,0
1688,-918,8088,-262,0,0,0,0,0
1689,-877,8090,-287,0,0,0,0,0
1690,-897,8085,-325,0,0,0,0,0
1691,-902,8078,-279,0,0,0,0,0
1692,-898,8094,-280,0,0,0,0,0
1693,-879,8078,-288,0,0,0,0,0
1694,-918,8083,-309,0,0,0,0,0
1695,-898,8088,-288,0,2,0,0,0
1696,-886,8092,-279,0,0,0,0,0
1697,-909,8076,-288,0,0,0,0,0
1698,-906,8097,-310,0,0,0,0,0
1699,-900,8070,-272,0,0,0,0,0
1700,-900,8090,-294,0,0,0,0,0
1701,-893,8079,-304,0,0,0,0,0
1702,-894,8064,-285,0,2,0,0,0
1703,-907,8094,-286,0,0,0,0,0
1704,-898,8080,-295,0,0,0,0,0
1705,-894,8081,-290,0,0,0,0,0
1706,-909,8089,-289,0,0,0,0,0
1707,-901,8070,-287,0,0,0,0,0
1708,-879,8090,-282,0,0,0,0,0
1709,-900,8082,-303,0,0,0,0,0
1710,-918,8083,-305,0,0,0,0,0
1711,-886,8080,-282,0,0,0,0,0
1712,-886,8076,-288,0,0,0,0,0
1713,-888,8102,-296,0,0,0,0,0
1714,-918,8095,-290,0,0,0,0,0
1715,-909,8096,-276,0,150,0,0,0
1716,-885,8068,-292,0,0,0,0,0
1717,-894,8115,-294,0,0,0,0,0
1718,-901,8036,-289,0,0,0,0,0
1719,-910,8091,-281,0,0,0,0,0
1720,-895,8148,-290,0,0,0,0,0
1721,-896,8027,-294,0,0,0,0,0
1722,-921,8075,-280,0,0,0,0,0
1723,-891,8091,-321,0,0,0,0,0
1724,-889,8052,-292,0,0,0,0,0
1725,-910,8086,-273,0,0,0,0,0
1726,-908,8127,-272,0,0,0,0,0
1727,-870,8074,-317,0,0,0,0,0
1728,-908,8050,-296,0,0,0,0,0
1729,-876,8090,-308,0,0,0,0,0
1730,-899,8058,-303,0,150,0,0,0
1731,-912,8094,-272,0,0,0,0,0
1732,-903,8106,-285,0,2,0,0,0
1733,-875,8079,-304,0,0,0,0,0
1734,-903,8081,-292,0,0,0,0,0
1735,-904,8092,-270,0,0,0,0,0
1736,-900,8092,-336,0,0,0,0,0
1737,-908,8095,-270,0,0,0,0,0
1738,-890,8077,-274,0,0,0,0,0
1739,-908,8076,-276,0,0,0,0,0
1740,-909,8084,-288,0,0,0,0,0
1741,-872,8087,-302,0,0,0,0,0
1742,-898,8074,-283,0,165,0,0,0
1743,-911,8095,-297,0,0,0,0,0
1744,-891,8084,-289,0,2,0,0,0
1745,-892,8081,-294,0,0,0,0,0
1746,-912,8091,-288,0,165,0,0,0
1747,-896,8084,-290,0,0,0,0,0
1748,-887,8083,-282,0,2,0,0,0
1749,-907,8078,-298,0,0,0,0,0
1750,-926,8077,-310,0,0,0,0,0
1751,-885,8109,-283,0,0,0,0,0
1752,-882,8077,-285,0,0,0,0,0
1753,-906,8078,-288,0,253,255,0,0
1754,-908,8104,-300,0,254,255,0,0
1755,-909,8061,-312,0,0,0,0,0
1756,-917,8096,-307,0,0,0,0,0
1757,-900,8088,-274,0,0,0,0,0
1758,-908,8068,-284,0,0,0,0,0
1759,-894,8086,-313,0,0,0,0,0
1760,-893,8096,-292,0,0,0,0,0
1761,-900,8112,-270,0,165,0,0,0
1762,-905,8085,-295,0,0,0,0,0
1763,-894,8074,-310,0,2,0,0,0
1764,-896,8086,-297,0,0,0,0,0
1765,-896,8104,-278,0,165,0,0,0
1766,-918,8078,-298,0,0,0,0,0
1767,-879,8078,-302,0,2,0,0,0
1768,-882,8102,-274,0,0,0,0,0
1769,-924,8068,-297,0,0,0,0,0
1770,-911,8083,-282,0,0,0,0,0
1771,-886,8092,-294,0,0,0,0,0
1772,-938,8075,-292,0,0,0,0,0
1773,-890,8093,-292,0,0,0,0,0
1774,-860,8092,-275,0,0,0,0,0
1775,-922,8094,-286,0,0,0,0,0
1776,-912,8064,-303,0,0,0,0,0
1777,-850,8102,-279,0,177,0,0,0
1778,-888,8110,-305,0,0,0,0,0
1779,-962,8053,-288,0,0,0,0,0
1780,-904,8072,-296,0,0,0,0,0
1781,-856,8112,-272,0,177,0,0,0
1782,-932,8064,-278,0,0,0,0,0
1783,-926,8051,-352,0,2,0,0,0
1784,-795,8042,-245,0,0,0,0,0
1785,-866,8104,-286,0,0,0,0,0
1786,-948,8145,-205,0,0,0,0,0
1787,-925,8109,-398,0,2,0,0,0
1788,-853,8047,-296,0,0,0,0,0
1789,-902,8185,-270,0,0,0,0,0
1790,-872,8061,-303,0,0,0,0,0
1791,-883,8044,-294,0,0,0,0,0
1792,-945,8100,-282,0,0,0,0,0
1793,-880,8082,-288,0,0,0,0,0
1794,-845,8066,-278,0,0,0,0,0
1795,-933,8093,-294,0,0,0,0,0
1796,-874,8103,-255,0,0,0,0,0
1797,-940,8064,-276,0,0,0,0,0
1798,-883,8051,-245,0,0,0,0,0
1799,-961,8212,-284,0,186,0,0,0
1800,-910,7953,-176,0,255,255,0,0
1801,-966,8082,-244,0,186,0,0,0
1802,-918,7981,-279,0,0,0,0,0
1803,-825,8073,-308,0,2,0,0,0
1804,-937,8156,-270,0,0,0,0,0
1805,-932,8006,-296,0,186,0,0,0
1806,-944,8076,-246,0,0,0,0,0
1807,-871,8074,-249,0,2,0,0,0
1808,-918,8113,-375,0,0,0,0,0
1809,-857,8063,-261,0,0,0,0,0
1810,-886,8083,-270,0,0,0,0,0
1811,-880,8111,-292,0,242,254,0,0
1812,-882,8111,-339,0,0,0,0,0
1813,-908,8036,-274,0,0,0,0,0
1814,-900,8110,-268,0,0,0,0,0
1815,-876,8064,-321,0,186,0,0,0
1816,-918,8098,-308,0,255,255,0,0
1817,-885,8045,-247,0,2,0,0,0
1818,-888,8091,-322,0,0,0,0,0
1819,-899,8092,-282,0,186,0,0,0
1820,-890,8084,-278,0,0,0,0,0
1821,-891,8086,-303,0,228,254,0,0
1822,-906,8114,-320,0,194,0,0,0
1823,-900,8041,-276,0,0,0,0,0
1824,-882,8106,-293,0,255,255,0,0
1825,-910,8105,-298,0,0,0,0,0
1826,-896,8081,-306,0,0,0,0,0
1827,-891,8093,-282,0,0,0,0,0
1828,-896,8062,-298,0,0,0,0,0
1829,-892,8104,-290,0,0,0,0,0
1830,-885,8079,-312,0,0,0,0,0
1831,-877,8092,-281,0,0,0,0,0
1832,-891,8084,-297,404,0,0,0,0
1833,-899,8060,-281,0,2,0,0,0
1834,-888,8107,-299,1,2,0,0,0
1835,-897,8092,-293,0,34,2,34,2
1836,-907,8061,-303,0,90,2,0,0
1837,-912,8097,-293,0,0,0,0,0
1838,-905,8099,-281,0,0,0,0,0
1839,-912,8101,-309,0,2,0,0,0
1840,-840,8043,417,0,0,0,40,2
1841,-812,8124,62,866,0,0,0,0
1842,-958,8144,-61,0,0,0,0,0
1843,-1082,8260,419,0,0,0,0,0
1844,-586,7643,502,0,0,0,0,0
1845,-1085,9315,552,0,0,0,0,0
1846,-884,8680,493,0,22,3,0,0
1847,-1352,8219,681,0,0,0,0,0
1848,-1099,7772,435,0,0,0,0,0
1849,-944,7844,516,0,38,0,0,0
1850,-1044,8052,790,907,0,0,0,0
1851,-696,9191,869,0,0,0,0,0
1852,-897,8861,110,1284,46,0,0,0
1853,-750,7280,924,0,0,0,0,0
1854,-723,7915,356,0,237,3,221,3
1855,-920,9404,195,0,214,0,0,0
1856,-1294,8659,195,0,0,0,0,0
1857,-1322,8200,337,0,0,0,0,0
1858,-1040,8090,790,1247,214,0,0,0
1859,-1642,8535,341,0,0,0,0,0
1860,-679,7232,660,0,0,0,0,0
1861,-458,10718,76,1251,214,0,0,0
1862,-514,6715,679,0,0,0,0,0
1863,-429,8469,802,0,0,0,0,0
1864,-689,8133,526,0,0,0,0,0
1865,-1024,10084,-497,0,0,0,0,0
1866,-1634,7043,-1535,0,242,255,0,0
1867,-320,9217,-515,0,0,0,0,0
1868,-1178,9933,-436,0,0,0,0,0
1869,-184,8796,-571,0,0,0,0,0
1870,-932,8670,-580,0,1,0,26,0
1871,80,6360,-595,0,0,0,0,0
1872,-1253,6672,-1411,42,2,0,0,0
1873,-1011,7844,-1028,0,0,0,0,0
1874,-626,6556,-462,0,0,0,43,0
1875,-1160,10361,-744,0,0,0,0,0
1876,-777,7425,-867,0,0,0,43,0
1877,-1150,7442,24,0,0,0,0,0
1878,-1127,7434,-1488,0,2,0,0,0
1879,-896,7926,-1531,0,0,0,198,1
1880,-1056,8108,-208,0,0,0,0,0
1881,-1722,8599,-929,0,23,3,0,0
1882,-436,8574,-2038,0,223,0,0,0
1883,-1646,8239,-1248,0,2,0,0,0
1884,-788,8440,-1120,0,0,0,0,0
1885,-1951,8550,-954,0,0,0,0,0
1886,-740,7866,-1226,0,223,0,0,0
1887,-975,7758,-630,0,54,251,0,0
1888,-940,8325,-940,0,0,0,3,0
1889,-1104,7707,-697,0,58,0,10,0
1890,-802,8402,-732,792,0,0,0,0
1891,-770,8016,-930,6,0,0,0,0
1892,-1118,8168,-790,0,0,0,0,0
1893,-670,7933,-1154,0,18,0,74,0
1894,-1033,7570,-1352,0,227,0,0,0
1895,-229,8344,-362,0,29,0,0,0
1896,-1870,8044,-2804,0,0,0,0,0
1897,-991,8702,-209,0,0,0,0,0
1898,-456,8667,-1734,0,0,0,0,0
1899,-3,8250,-912,0,0,0,0,0
1900,-315,8309,-2859,0,227,0,0,0
1901,278,8896,-3473,0,0,0,0,0
1902,-2508,6796,-4724,0,0,0,0,0
1903,-222,9052,1387,0,0,0,1,0
1904,-1083,8043,-420,0,0,0,0,0
1905,-716,8228,190,0,124,0,0,0
1906,-771,8162,-625,0,0,0,0,0
1907,-958,8045,-143,0,255,255,0,0
1908,-1018,8110,-14,0,0,0,0,0
1909,-796,8078,-201,0,0,0,0,0
1910,-1050,8034,-446,0,0,0,0,0
1911,-824,8114,-508,0,0,0,0,0
1912,-747,8081,-432,0,0,0,0,0
1913,-959,8095,-372,0,252,255,0,0
1914,-838,8070,-324,0,0,0,0,0
1915,-798,8057,-236,0,0,0,0,0
1916,-879,8099,-284,0,0,0,0,0
1917,-923,8076,-326,0,0,0,0,0
1918,-862,8073,-360,0,0,0,0,0
1919,-866,8082,-299,0,0,0,0,0
1920,-848,8095,-256,0,0,0,0,0
1921,-873,8060,-266,0,0,0,0,0
1922,-873,8122,-304,0,0,0,0,0
1923,-828,8082,-262,0,0,0,0,0
1924,-830,8076,-247,0,0,0,0,0
1925,-880,8092,-288,0,0,0,0,0
1926,-852,8113,-274,0,0,0,0,0
1927,-889,8072,-298,0,254,255,0,0
1928,-824,8101,-259,0,0,0,0,0
1929,-884,8102,-287,0,0,0,0,0
1930,-884,8101,-309,0,0,0,0,0
1931,-877,8089,-300,0,0,0,0,0
1932,-863,8070,-323,0,0,0,0,0
1933,-907,8099,-311,0,218,254,0,0
1934,-862,8108,-260,0,218,254,0,0
1935,-874,8091,-308,0,255,255,0,0
1936,-896,8154,-301,0,255,255,0,0
1937,-803,8074,-279,0,255,255,0,0
1938,-838,8086,-274,0,0,0,0,0
1939,-870,8042,-248,0,0,0,0,0
1940,-870,8154,-366,0,0,0,0,0
1941,-834,8145,-158,0,0,0,0,0
1942,-866,8091,-343,0,0,0,0,0
1943,-860,8068,-263,0,237,0,0,0
1944,-868,8098,-249,0,0,0,0,0
1945,-890,8068,-309,0,0,0,0,0
1946,-875,8068,-298,0,0,0,0,0
1947,-843,8120,-304,0,0,0,0,0
1948,-878,8070,-257,0,0,0,0,0
1949,-864,8116,-262,0,254,255,0,0
1950,-910,8088,-274,0,0,0,0,0
1951,-865,8084,-281,0,0,0,0,0
1952,-876,8064,-298,0,0,0,0,0
1953,-861,8057,-297,0,0,0,0,0
1954,-864,8084,-290,0,0,0,0,0
1955,-854,8090,-275,0,0,0,0,0
1956,-879,8088,-300,0,0,0,0,0
1957,-878,8111,-287,0,0,0,0,0
1958,-857,8102,-304,0,238,0,0,0
1959,-859,8067,-290,0,0,0,0,0
1960,-872,8094,-286,0,0,0,0,0
1961,-860,8073,-304,0,0,0,0,0
1962,-858,8090,-306,0,0,0,0,0
1963,-861,8170,-324,0,0,0,0,0
1964,-863,7991,-290,0,0,0,0,0
1965,-889,8113,-267,0,238,0,0,0
1966,-826,8212,-307,0,0,0,0,0
1967,-871,8106,-185,0,0,0,0,0
1968,-865,8182,-291,0,0,0,0,0
1969,-876,8231,-376,0,215,254,0,0
1970,-855,7982,-262,0,0,0,0,0
1971,-873,8097,-257,0,0,0,0,0
1972,-837,8129,-266,0,0,0,0,0
1973,-923,7993,-334,0,0,0,0,0
1974,-818,8166,-328,0,0,0,0,0
1975,-844,8127,-348,0,0,0,0,0
1976,-882,8034,-258,0,238,0,0,0
1977,-842,8110,-235,0,0,0,0,0
1978,-884,8159,-339,0,0,0,0,0
1979,-911,8111,-379,0,0,0,0,0
1980,-823,8089,-219,0,0,0,0,0
1981,-908,8171,-232,0,0,0,0,0
1982,-880,8154,-322,0,0,0,0,0
1983,-885,8119,-226,0,0,0,0,0
1984,-868,8097,-285,0,0,0,0,0
1985,-836,8063,-310,0,0,0,0,0
1986,-865,8071,-313,0,0,0,0,0
1987,-866,8071,-274,0,254,255,0,0
1988,-887,8153,-254,0,235,0,0,0
1989,-831,8038,-281,0,0,0,0,0
1990,-836,8112,-293,0,0,0,0,0
1991,-892,8064,-304,0,0,0,0,0
1992,-836,8084,-324,0,0,0,0,0
1993,-917,7849,-276,0,0,0,0,0
1994,-1012,8270,-294,0,0,0,0,0
1995,-841,8130,-335,0,238,0,0,0
1996,-870,7962,-382,0,0,0,0,0
1997,-857,8159,-291,0,0,0,0,0
1998,-890,8023,-281,0,0,0,0,0
1999,-856,8150,-314,0,2,0,0,0
2000,-816,8112,-281,0,0,0,0,0
2001,-867,8068,-299,0,0,0,0,0
2002,-873,8046,-274,0,0,0,0,0
2003,-844,8140,-274,0,0,0,0,0
2004,-888,8096,-274,0,0,0,0,0
2005,-852,8102,-260,0,235,0,0,0
2006,-880,8101,-320,0,0,0,0,0
2007,-927,8072,-318,0,0,0,0,0
2008,-829,8078,-288,0,0,0,0,0
2009,-890,8071,-320,0,0,0,0,0
2010,-897,8098,-303,0,0,0,0,0
2011,-854,8048,-270,0,124,0,0,0
2012,-875,8093,-331,0,0,0,0,0
2013,-875,8107,-317,0,0,0,0,0
2014,-875,8063,-285,0,0,0,0,0
2015,-876,8094,-309,0,0,0,0,0
2016,-854,8096,-278,0,0,0,0,0
2017,-861,8044,-284,0,0,0,0,0
2018,-860,8125,-309,0,0,0,0,0
2019,-881,8067,-295,0,0,0,0,0
2020,-837,8088,-282,0,0,0,0,0
2021,-886,8101,-286,0,0,0,0,0
2022,-847,8094,-291,0,0,0,0,0
2023,-875,8083,-299,0,0,0,0,0
2024,-862,8100,-284,0,0,0,0,0
2025,-856,8074,-274,0,0,0,0,0
2026,-880,8055,-308,0,0,0,0,0
2027,-873,8097,-290,0,238,0,0,0
2028,-874,8109,-312,0,0,0,0,0
2029,-828,8064,-265,0,0,0,0,0
2030,-857,8090,-292,0,124,0,0,0
2031,-866,8060,-306,0,124,0,0,0
2032,-864,8090,-282,0,0,0,1,0
2033,-860,8101,-291,0,238,0,0,0
2034,-853,8099,-283,0,0,0,0,0
2035,-856,8088,-284,0,0,0,0,0
2036,-865,8065,-284,0,2,0,0,0
2037,-865,8092,-292,0,0,0,0,0
2038,-879,8108,-324,0,0,0,0,0
2039,-880,8098,-300,0,0,0,0,0
2040,-894,8076,-291,0,235,0,0,0
2041,-878,8095,-326,0,0,0,0,0
2042,-815,8103,-291,0,0,0,0,0
2043,-923,8076,-325,0,0,0,0,0
2044,-849,8076,-264,0,0,0,0,0
2045,-855,8148,-291,0,0,0,0,0
2046,-832,8082,-247,0,0,0,0,0
2047,-896,8074,-289,0,124,0,0,0
2048,-841,8106,-298,0,0,0,0,0
2049,-864,8082,-298,0,0,0,0,0
2050,-862,8090,-250,0,0,0,0,0
2051,-835,8087,-299,0,0,0,0,0
2052,-862,8084,-289,0,0,0,0,0
2053,-870,8096,-306,0,0,0,0,0
2054,-848,8064,-279,0,0,0,0,0
2055,-844,8102,-295,0,0,0,0,0
2056,-874,8073,-267,0,238,0,0,0
2057,-871,8086,-275,0,0,0,0,0
2058,-857,8080,-304,0,0,0,0,0
2059,-850,8094,-296,0,0,0,0,0
2060,-879,8066,-297,0,124,0,0,0
2061,-842,8124,-271,0,0,0,0,0
2062,-886,8094,-306,2,0,0,0,0
2063,-851,8058,-289,0,0,0,0,0
2064,-880,8128,-325,0,2,0,0,0
2065,-698,8233,52,0,0,0,0,0
2066,-801,7940,58,0,0,0,0,0
2067,-731,8119,-109,0,0,0,0,0
2068,-808,8088,50,0,2,0,0,0
2069,-857,7972,-40,0,0,0,0,0
2070,-834,8007,-97,0,0,0,0,0
2071,-737,8202,-66,0,2,0,0,0
2072,-1040,8035,263,0,0,0,0,0
2073,-660,7863,1279,0,0,0,0,0
2074,-776,8637,476,0,0,0,0,0
2075,-1064,7923,-247,0,2,0,0,0
2076,-930,8211,284,0,0,0,0,0
2077,-698,8221,800,0,0,0,0,0
2078,-1241,7997,506,134,0,0,0,0
2079,-408,8174,734,0,0,0,0,0
2080,-1214,8079,427,0,0,0,0,0
2081,-1088,7948,-318,0,0,0,0,0
2082,-1080,8088,-513,0,15,0,0,0
2083,-1095,8504,-751,0,15,0,0,0
2084,-1106,8110,-2306,0,220,0,224,0
2085,-878,7913,-272,0,0,0,0,0
2086,-517,8281,-984,0,0,0,0,0
2087,-652,8315,-341,0,145,0,0,0
2088,-1215,7486,-988,0,0,0,0,0
2089,-517,8397,-548,0,0,0,0,0
2090,-789,8219,-384,0,0,0,0,0
2091,-476,8162,-951,0,0,0,0,0
2092,-964,7965,-735,47,0,0,0,0
2093,-1416,8080,-1357,0,0,0,0,0
2094,-434,8095,-466,3,2,0,0,0
2095,-931,8039,-951,0,0,0,0,0
2096,-843,8046,-527,0,0,0,0,0
2097,-891,8084,-609,0,2,0,0,0
2098,-828,8029,-167,0,0,0,0,0
2099,-938,8067,-188,0,235,0,0,0
2100,-883,8153,-247,0,0,0,0,0
2101,-973,8068,-254,0,0,0,0,0
2102,-930,8242,363,0,0,0,0,0
2103,-1063,8145,-444,0,0,0,0,0
2104,-881,7915,-219,0,0,0,0,0
2105,-951,8182,149,0,237,0,0,0
2106,-580,8156,840,788,0,0,0,0
2107,-1030,8014,288,0,136,0,174,1
2108,-524,8242,563,0,0,0,0,0
2109,-1149,8224,309,383,0,0,0,0
2110,-1006,7934,398,0,0,0,0,0
2111,-472,8016,264,0,0,0,0,0
2112,-734,8299,165,0,8,1,0,0
2113,-794,7962,-225,0,0,0,0,0
2114,-875,8064,-2,0,250,255,0,0
2115,-1283,8260,54,0,24,2,24,2
2116,-1294,8201,-391,0,0,0,0,0
2117,-1123,7855,-60,1001,0,0,0,0
2118,-983,8124,-31,0,0,0,0,0
2119,-770,7848,32,0,240,0,0,0
2120,203,8542,147,0,0,0,0,0
2121,23,8494,-258,403,184,0,0,0
2122,-531,7944,-464,0,0,0,0,0
2123,-186,8354,-417,0,1,0,129,3
2124,-924,7629,65,0,0,0,0,0
2125,-839,7765,-1612,0,0,0,0,0
2126,-455,7827,175,0,0,0,0,0
2127,-999,8139,-409,0,111,254,0,0
2128,-1017,7859,-1545,0,111,254,0,0
2129,-800,8072,-150,0,0,0,0,0
2130,-786,8078,-476,0,0,0,0,0
2131,-763,8081,-481,0,36,254,0,0
2132,-994,8101,-481,0,0,0,0,0
2133,-1043,8432,-69,0,0,0,0,0
2134,-520,7988,-445,0,0,0,0,0
2135,-346,7841,-615,0,246,0,0,0
2136,-539,8201,-489,0,0,0,0,0
2137,-479,7892,-437,0,2,0,0,0
2138,-928,8126,-331,0,0,0,0,0
2139,-578,8090,-434,0,0,0,0,0
2140,-906,8094,-498,0,0,0,0,0
2141,-726,8044,-558,0,0,0,0,0
2142,-858,8078,-493,0,0,0,0,0
2143,-785,8135,-458,0,0,0,0,0
2144,-790,8072,-384,0,0,0,0,0
2145,-517,8062,-495,0,254,255,0,0
2146,-804,8077,-462,0,0,0,0,0
2147,-739,8110,-458,0,0,0,0,0
2148,-772,8107,-459,0,0,0,0,0
2149,-768,8068,-431,0,0,0,0,0
2150,-766,8101,-470,0,0,0,0,0
2151,-758,8083,-472,0,246,0,0,0
2152,-784,8082,-476,0,0,0,0,0
2153,-788,8088,-495,0,0,0,0,0
2154,-775,8091,-473,0,0,0,0,0
2155,-784,8080,-455,0,0,0,0,0
2156,-759,8069,-458,0,0,0,0,0
2157,-758,8088,-463,0,0,0,0,0
2158,-792,8100,-480,0,246,0,0,0
2159,-773,8070,-470,0,0,0,0,0
2160,-760,8100,-473,0,0,0,0,0
2161,-768,8093,-461,0,0,0,0,0
2162,-766,8100,-440,0,0,0,0,0
2163,-779,8078,-454,0,0,0,0,0
2164,-762,8094,-486,0,0,0,0,0
2165,-776,8092,-463,0,0,0,0,0
2166,-766,8087,-467,0,0,0,0,0
2167,-762,8078,-448,0,0,0,0,0
2168,-773,8078,-469,0,0,0,0,0
2169,-772,8082,-474,0,0,0,0,0
2170,-773,8090,-485,0,0,0,0,0
2171,-772,8088,-462,0,255,255,0,0
2172,-754,8084,-471,0,0,0,0,0
2173,-788,8086,-474,0,213,0,0,0
2174,-756,8100,-482,0,0,0,0,0
2175,-781,8082,-490,0,0,0,0,0
2176,-762,8078,-466,0,0,0,0,0
2177,-755,8078,-468,0,0,0,0,0
2178,-766,8060,-468,0,0,0,0,0
2179,-758,8075,-478,0,0,0,0,0
2180,-772,8101,-450,0,2,0,0,0
2181,-768,8076,-465,0,0,0,0,0
2182,-772,8092,-470,0,0,0,0,0
2183,-772,8080,-465,0,2,0,0,0
2184,-779,8076,-456,0,0,0,0,0
2185,-760,8072,-441,0,248,0,0,0
2186,-767,8112,-467,0,248,0,0,0
2187,-780,8056,-486,0,0,0,0,0
2188,-766,8089,-462,0,0,0,0,0
2189,-767,8086,-464,0,0,0,0,0
2190,-770,8090,-458,0,0,0,0,0
2191,-776,8075,-453,0,2,0,0,0
2192,-760,8104,-466,0,0,0,0,0
2193,-492,8112,-394,0,0,0,0,0
2194,-436,8130,-370,0,0,0,0,0
2195,-431,8099,-350,0,0,0,0,0
2196,-395,8211,-332,0,0,0,0,0
2197,-525,8054,-388,0,0,0,0,0
2198,-431,8108,-337,0,0,0,0,0
2199,-464,8117,-358,0,0,0,0,0
2200,-468,8116,-352,0,0,0,0,0
2201,-476,8114,-368,0,0,0,0,0
2202,-493,8080,-349,0,0,0,0,0
2203,-426,8162,-358,0,0,0,0,0
2204,-478,8146,-369,0,0,0,0,0
2205,-447,8100,-339,0,0,0,0,0
2206,-461,8150,-350,0,0,0,0,0
2207,-461,8104,-365,0,0,0,0,0
2208,-421,8164,-374,0,0,0,0,0
2209,-492,8111,-308,0,0,0,0,0
2210,-454,7965,-262,0,0,0,0,0
2211,-402,8127,-334,0,0,0,0,0
2212,-500,8154,-380,0,0,0,0,0
2213,-489,8121,-360,0,0,0,0,0
2214,-428,8100,-336,0,0,0,0,0
2215,-473,8157,-358,0,0,0,0,0
2216,-460,8058,-329,0,0,0,0,0
2217,-456,8123,-351,0,0,0,0,0
2218,-456,8124,-341,0,254,255,0,0
2219,-459,8120,-354,0,0,0,0,0
2220,-464,8106,-360,0,164,254,0,0
2221,-468,8112,-360,0,0,0,0,0
2222,-458,8122,-353,0,0,0,0,0
2223,-467,8127,-340,0,0,0,0,0
2224,-465,8100,-355,0,0,0,0,0
2225,-457,8131,-346,0,2,0,0,0
2226,-450,8113,-348,0,0,0,0,0
2227,-467,8112,-354,0,0,0,0,0
2228,-460,8142,-358,0,0,0,0,0
2229,-457,8100,-346,0,0,0,0,0
2230,-452,8119,-350,0,2,0,0,0
2231,-459,8113,-345,0,0,0,0,0
2232,-464,8112,-358,0,0,0,0,0
2233,-453,8126,-353,0,0,0,0,0
2234,-463,8110,-354,0,0,0,0,0
2235,-464,8135,-340,0,0,0,0,0
2236,-464,8108,-360,0,255,255,0,0
2237,-471,8131,-348,0,0,0,0,0
2238,-454,8107,-345,0,0,0,0,0
2239,-458,8095,-348,0,0,0,0,0
2240,-476,8134,-342,0,0,0,0,0
2241,-447,8108,-363,0,0,0,0,0
2242,-466,8111,-330,0,0,0,0,0
2243,-467,8112,-358,0,0,0,0,0
2244,-458,8128,-350,0,0,0,0,0
2245,-453,8093,-353,0,0,0,0,0
2246,-458,8125,-357,0,0,0,0,0
2247,-462,8108,-348,0,0,0,0,0
2248,-456,8132,-344,0,0,0,0,0
2249,-466,8119,-355,0,0,0,0,0
2250,-459,8135,-346,0,0,0,0,0
2251,-456,8112,-340,0,0,0,0,0
2252,-438,8122,-336,0,0,0,0,0
2253,-476,8114,-356,0,0,0,0,0
2254,-457,8119,-356,0,0,0,0,0
2255,-458,8135,-335,0,0,0,0,0
2256,-463,8117,-341,0,0,0,0,0
2257,-471,8122,-344,0,2,0,0,0
2258,-442,8100,-348,0,0,0,0,0
2259,-475,8131,-345,0,0,0,0,0
2260,-458,8116,-353,0,0,0,0,0
2261,-462,8101,-346,0,0,0,0,0
2262,-454,8108,-347,0,0,0,0,0
2263,-477,8145,-323,0,0,0,0,0
2264,-447,8118,-359,0,189,254,0,0
2265,-462,8110,-351,0,189,254,0,0
2266,-445,8118,-347,0,0,0,0,0
2267,-481,8104,-345,0,0,0,0,0
2268,-418,8084,-330,0,2,0,0,0
2269,-496,8159,-350,0,0,0,0,0
2270,-450,8136,-356,0,0,0,0,0
2271,-449,8087,-331,0,0,0,0,0
2272,-452,8095,-361,0,0,0,0,0
2273,-460,8141,-330,0,0,0,0,0
2274,-448,8109,-353,0,182,254,0,0
2275,-461,8097,-349,0,182,254,0,0
2276,-462,8101,-352,0,0,0,0,0
2277,-458,8142,-362,0,0,0,0,0
2278,-470,8104,-353,1,2,0,0,0
2279,-472,8094,-340,0,0,0,0,0
2280,-254,8142,1094,0,101,255,0,0
2281,-415,8463,209,0,0,0,0,0
2282,-213,8150,805,0,0,0,0,0
2283,-686,8112,306,0,0,0,0,0
2284,-650,8029,356,0,0,0,0,0
2285,-523,8275,511,791,0,0,0,0
2286,-275,8255,334,0,0,0,0,0
2287,-542,8066,344,0,0,0,0,0
2288,-331,7785,779,331,22,3,22,3
2289,-798,8482,502,0,0,0,0,0
2290,-357,8254,437,351,0,0,0,0
2291,-387,7666,635,0,23,3,23,3
2292,-398,7823,728,0,0,0,0,0
2293,-266,8188,928,0,23,3,23,3
2294,-556,8054,694,0,0,0,0,0
2295,-882,9139,353,1222,2,0,0,0
2296,-134,7370,572,0,0,0,0,0
2297,-665,8752,348,0,2,0,0,0
2298,-838,7459,658,0,182,0,0,0
2299,-596,7610,798,0,0,0,0,0
2300,-1698,9162,531,0,122,2,130,2
2301,-150,8598,600,0,0,0,0,0
2302,-318,8398,1053,0,184,0,0,0
2303,-668,6901,1243,0,29,4,0,0
2304,10,7965,1008,0,0,0,0,0
2305,-624,8152,406,0,2,0,0,0
2306,-498,8230,476,0,0,0,0,0
2307,-346,7734,874,0,0,0,0,0
2308,-1290,8996,508,0,0,0,0,0
2309,168,8846,664,0,2,0,0,0
2310,-455,8000,458,0,0,0,0,0
2311,-588,8262,768,0,0,0,0,0
2312,-474,9963,586,0,0,0,0,0
2313,-8,7636,932,0,0,0,0,0
2314,204,8789,676,0,0,0,0,0
2315,-715,9480,1004,0,0,0,0,0
2316,220,7431,850,0,0,0,0,0
2317,-1034,8350,496,0,0,0,0,0
2318,-67,8311,949,0,240,1,0,0
2319,-587,8033,590,791,0,0,0,0
2320,-485,7062,1018,0,11,0,236,4
2321,-4,8124,281,0,0,0,0,0
2322,-346,7413,200,1243,23,3,0,0
2323,-414,9577,443,0,0,0,0,0
2324,-241,9060,266,0,14,5,254,4
2325,116,9728,310,0,155,5,162,5
2326,-408,9160,886,0,197,0,0,0
2327,-1216,7707,320,0,197,0,0,0
2328,8,7174,684,0,197,0,0,0
2329,211,3828,-4219,0,0,0,0,0
2330,-422,8097,-363,0,0,0,0,0
2331,-393,8126,-384,0,0,0,0,0
2332,-408,8106,-375,0,0,0,0,0
2333,-409,8134,-383,0,0,0,0,0
2334,-400,8120,-373,0,0,0,0,0
2335,-401,8123,-378,0,0,0,0,0
2336,-412,8122,-400,0,0,0,0,0
2337,-412,8111,-378,0,0,0,0,0
2338,-398,8119,-381,0,0,0,0,0
2339,-396,8121,-387,0,2,0,0,0
2340,-398,8116,-384,0,0,0,0,0
2341,-400,8105,-390,0,0,0,0,0
2342,-388,8132,-377,0,0,0,0,0
2343,-400,8116,-396,0,0,0,0,0
2344,-410,8116,-391,0,0,0,0,0
2345,-394,8111,-398,0,0,0,0,0
2346,-411,8101,-382,0,0,0,0,0
2347,-398,8113,-396,0,0,0,0,0
2348,-409,8120,-390,0,0,0,0,0
2349,-414,8114,-384,0,0,0,0,0
2350,-408,8116,-382,0,0,0,0,0
2351,-406,8120,-380,0,0,0,0,0
2352,-414,8130,-383,0,0,0,0,0
2353,-397,8122,-383,0,0,0,0,0
2354,-408,8110,-388,0,2,0,0,0
2355,-407,8122,-378,0,0,0,0,0
2356,-402,8121,-384,0,0,0,0,0
2357,-407,8118,-388,0,2,0,0,0
2358,-406,8125,-390,0,0,0,0,0
2359,-396,8116,-380,0,0,0,0,0
2360,-406,8120,-378,0,0,0,0,0
2361,-389,8102,-393,0,0,0,0,0
2362,-419,8120,-387,0,0,0,0,0
2363,-396,8120,-355,0,0,0,0,0
2364,-402,8120,-408,0,0,0,0,0
2365,-402,8132,-384,0,0,0,0,0
2366,-394,8126,-399,0,0,0,0,0
2367,-387,8135,-375,0,0,0,0,0
2368,-419,8106,-381,0,0,0,0,0
2369,-400,8130,-382,0,0,0,0,0
2370,-408,8107,-404,0,255,255,0,0
2371,-400,8112,-390,0,0,0,0,0
2372,-400,8114,-383,0,0,0,0,0
2373,-412,8125,-391,0,0,0,0,0
2374,-398,8116,-381,0,0,0,0,0
2375,-416,8133,-385,0,0,0,0,0
2376,-397,8116,-389,0,0,0,0,0
2377,-412,8124,-379,0,0,0,0,0
2378,-409,8111,-386,0,0,0,0,0
2379,-407,8125,-371,0,2,0,0,0
2380,-407,8118,-388,0,0,0,0,0
2381,-393,8124,-385,0,0,0,0,0
2382,-398,8113,-386,0,0,0,0,0
2383,-424,8117,-395,0,2,0,0,0
2384,-387,8116,-394,0,0,0,0,0
2385,-400,8110,-395,0,0,0,0,0
2386,-408,8132,-387,0,0,0,0,0
2387,-406,8124,-380,0,0,0,0,0
2388,-399,8114,-390,0,0,0,0,0
2389,-407,8122,-397,0,0,0,0,0
2390,-410,8113,-390,0,0,0,0,0
2391,-397,8115,-391,0,0,0,0,0
2392,-406,8126,-398,0,0,0,0,0
2393,-400,8128,-383,0,0,0,0,0
2394,-414,8102,-382,0,0,0,0,0
2395,-403,8140,-400,0,0,0,0,0
2396,-403,8104,-390,0,0,0,0,0
2397,-406,8107,-398,0,0,0,0,0
2398,-419,8139,-380,0,0,0,0,0
2399,-384,8096,-381,0,0,0,0,0
2400,-400,8117,-394,0,0,0,0,0
2401,-447,8126,-392,0,0,0,0,0
2402,-367,8108,-372,0,0,0,0,0
2403,-410,8118,-386,0,255,255,0,0
2404,-420,8154,-382,0,2,0,0,0
2405,-400,8103,-405,0,0,0,0,0
2406,-396,8117,-388,0,0,0,0,0
2407,-411,8122,-404,0,0,0,0,0
2408,-389,8098,-383,0,0,0,0,0
2409,-392,8118,-377,0,0,0,0,0
2410,-412,8120,-395,0,0,0,0,0
2411,-398,8117,-390,0,0,0,0,0
2412,-404,8120,-380,0,0,0,0,0
2413,-400,8124,-380,0,0,0,0,0
2414,-411,8106,-387,0,0,0,0,0
2415,-403,8127,-378,0,0,0,0,0
2416,-392,8116,-401,0,0,0,0,0
2417,-401,8118,-389,0,0,0,0,0
2418,-413,8130,-375,0,0,0,0,0
2419,-400,8119,-389,0,2,0,0,0
2420,-400,8108,-386,0,0,0,0,0
2421,-412,8125,-379,0,0,0,0,0
2422,-403,8122,-394,0,0,0,0,0
2423,-400,8102,-386,0,2,0,0,0
2424,-411,8113,-402,0,0,0,0,0
2425,-393,8124,-382,0,0,0,0,0
2426,-418,8102,-406,0,0,0,0,0
2427,-386,8135,-381,0,2,0,0,0
2428,-410,8104,-382,0,0,0,0,0
2429,-397,8124,-395,0,0,0,0,0
2430,-404,8149,-419,0,0,0,0,0
2431,-420,8122,-389,0,2,0,0,0
2432,-412,8086,-395,0,0,0,0,0
2433,-404,8144,-394,0,0,0,0,0
2434,-376,8129,-373,0,0,0,0,0
2435,-429,8117,-390,0,2,0,0,0
2436,-398,8104,-376,0,0,0,0,0
2437,-396,8136,-394,0,0,0,0,0
2438,-402,8124,-378,0,0,0,0,0
2439,-387,8114,-389,0,0,0,0,0
2440,-409,8113,-380,0,0,0,0,0
2441,-394,8126,-392,0,0,0,0,0
2442,-394,8125,-386,0,0,0,0,0
2443,-407,8108,-389,0,0,0,0,0
2444,-414,8122,-386,0,0,0,0,0
2445,-406,8114,-392,0,0,0,0,0
2446,-398,8134,-388,0,0,0,0,0
2447,-400,8109,-391,0,0,0,0,0
2448,-402,8112,-399,0,0,0,0,0
2449,-412,8131,-379,0,0,0,0,0
2450,-404,8116,-374,0,0,0,0,0
2451,-400,8116,-416,0,0,0,0,0
2452,-404,8112,-388,0,0,0,0,0
2453,-414,8114,-386,0,0,0,0,0
2454,-402,8127,-378,0,0,0,0,0
2455,-396,8127,-402,0,0,0,0,0
2456,-406,8100,-405,0,0,0,0,0
2457,-414,8104,-392,0,0,0,0,0
2458,-400,8143,-393,0,0,0,0,0
2459,-411,8132,-380,0,0,0,0,0
2460,-417,8087,-365,0,2,0,0,0
2461,-427,8142,-376,0,0,0,0,0
2462,-394,8138,-370,0,0,0,0,0
2463,-389,8091,-408,0,0,0,0,0
2464,-416,8121,-396,0,0,0,0,0
2465,-407,8112,-375,0,0,0,0,0
2466,-391,8123,-367,0,0,0,0,0
2467,-400,8128,-392,0,0,0,0,0
2468,-421,8103,-424,0,0,0,0,0
2469,-386,8114,-391,0,0,0,0,0
2470,-410,8130,-376,0,0,0,0,0
2471,-414,8095,-346,0,0,0,0,0
2472,-417,8110,-337,0,2,0,0,0
2473,-400,8124,-378,0,0,0,0,0
2474,-387,8116,-381,0,0,0,0,0
2475,-430,8112,-451,0,0,0,0,0
2476,-388,8126,-438,0,2,0,0,0
2477,-458,8078,-412,0,0,0,0,0
2478,-373,8134,-378,0,0,0,0,0
2479,-416,8103,-377,0,0,0,0,0
2480,-420,8128,-355,0,0,0,0,0
2481,-411,8091,-385,0,0,0,0,0
2482,-384,8120,-401,0,127,254,0,0
2483,-410,8157,-402,0,0,0,0,0
2484,-420,8088,-408,0,0,0,0,0
2485,-386,8120,-386,0,0,0,0,0
2486,-418,8158,-393,0,0,0,0,0
2487,-410,8102,-378,0,0,0,0,0
2488,-414,8090,-388,0,0,0,0,0
2489,-397,8144,-393,0,0,0,0,0
2490,-411,8113,-389,0,0,0,0,0
2491,-404,8118,-397,0,0,0,0,0
2492,-392,8115,-404,0,0,0,0,0
2493,-406,8118,-382,0,0,0,0,0
2494,-412,8118,-373,0,0,0,0,0
2495,-391,8111,-380,0,0,0,0,0
2496,-396,8134,-402,0,0,0,0,0
2497,-418,8119,-400,0,0,0,0,0
