index,date,GYRO_X,GYRO_Y,GYRO_Z,1,2,3,4,5
0,1765227022505,-4,2,4,0,0,0,0,0
1,1765227022941,5,15,6,0,0,0,0,0
2,1765227023002,4,14,0,0,0,0,0,0
3,1765227023237,7,31,4,0,0,0,0,0
4,1765227023379,81,-21,32,0,0,0,0,0
5,1765227023464,44,117,-41,0,0,0,0,0
6,1765227023713,-53,-27,14,0,0,0,0,0
7,1765227023855,33,-106,40,0,0,0,0,0
8,1765227023997,15,106,-28,0,0,0,0,0
9,1765227024139,5,95,21,0,0,0,0,0
10,1765227024431,-2,-186,1,0,0,0,0,0
11,1765227024547,-2,18,-24,0,0,0,0,0
12,1765227024689,-11,-45,14,0,0,0,0,0
13,1765227024871,3,-273,8,0,0,0,0,0
14,1765227025030,-50,-189,1,0,0,0,0,0
15,1765227025314,54,-329,10,0,0,0,0,0
16,1765227025572,8,-362,54,0,0,0,0,0
17,1765227025636,43,-386,4,0,0,0,0,0
18,1765227025998,45,-474,30,0,0,0,0,0
19,1765227026231,15,-518,32,0,0,0,0,0
20,1765227026371,67,-508,-5,0,0,0,0,0
21,1765227026505,49,-473,70,0,0,0,0,0
22,1765227026656,17,-432,51,0,0,0,0,0
23,1765227026796,37,-279,35,0,0,0,0,0
24,1765227027029,51,-184,7,0,0,0,0,0
25,1765227027255,8,1,-11,0,0,0,0,0
26,1765227027365,7,40,17,0,0,0,0,0
27,1765227027539,8,0,8,0,0,0,0,0
28,1765227027671,-3,-39,38,0,0,0,0,0
29,1765227027738,-12,-61,27,0,0,0,0,0
30,1765227027989,34,-74,16,0,0,0,0,0
31,1765227028163,-1,-80,19,0,0,0,0,0
32,1765227028415,4,-49,-6,0,0,0,0,0
33,1765227028514,-2,-64,-4,0,0,0,0,0
34,1765227028713,7,-54,-6,0,0,0,0,0
35,1765227028923,16,-34,-11,0,0,0,0,0
36,1765227029071,3,-33,-10,0,0,0,0,0
37,1765227029238,10,-36,-11,0,0,0,0,0
38,1765227029354,5,-29,-11,0,0,0,0,0
39,1765227029621,2,-14,-3,0,0,0,0,0
40,1765227029695,4,-12,-4,0,0,0,0,0
41,1765227030006,3,-10,-1,0,0,0,0,0
42,1765227030171,2,-9,2,0,0,0,0,0
43,1765227030379,4,-8,0,0,0,0,0,0
44,1765227030471,7,-8,-2,0,0,0,0,0
45,1765227030836,4,-9,0,0,0,0,0,0
46,1765227030957,4,-8,1,0,0,0,0,0
47,1765227031155,3,-9,0,0,0,0,0,0
48,1765227031313,4,-9,0,0,0,0,0,0
49,1765227031555,4,-7,-1,0,0,0,0,0
50,1765227031780,4,-8,-1,0,0,0,0,0
51,1765227031987,4,-8,0,0,0,0,0,0
52,1765227032064,4,-8,0,0,0,0,0,0
53,1765227032304,5,-8,1,0,0,0,0,0
54,1765227032447,5,-9,0,0,0,0,0,0
55,1765227032662,6,-8,0,0,0,0,0,0
56,1765227032780,3,-8,1,0,0,0,0,0
57,1765227033005,4,-8,0,0,0,0,0,0
58,1765227033087,6,-8,1,0,0,0,0,0
59,1765227033162,4,-5,2,0,0,0,0,0
60,1765227033288,4,-5,2,0,0,0,0,0
61,1765227033530,4,-4,2,0,0,0,0,0
62,1765227033905,10,-8,1,0,0,0,0,0
63,1765227034063,10,-10,0,0,0,0,0,0
64,1765227034238,-1,-11,0,0,0,0,0,0
65,1765227034422,7,-9,0,0,0,0,0,0
66,1765227034637,4,-8,0,0,0,0,0,0
67,1765227034797,2,-9,0,0,0,0,0,0
68,1765227035003,5,-8,1,0,0,0,0,0
69,1765227035222,4,-7,1,0,0,0,0,0
70,1765227035379,3,-8,0,0,0,0,0,0
71,1765227035562,4,-9,1,0,0,0,0,0
72,1765227035729,4,-8,0,0,0,0,0,0
73,1765227035804,4,-8,0,0,0,0,0,0
74,1765227036088,5,-8,0,0,0,0,0,0
75,1765227036221,4,-8,0,0,0,0,0,0
76,1765227036437,4,-9,0,0,0,0,0,0
77,1765227036529,5,-9,0,0,0,0,0,0
78,1765227036829,5,-8,0,0,0,0,0,0
79,1765227036976,5,-9,0,0,0,0,0,0
80,1765227037202,4,-8,1,0,0,0,0,0
81,1765227037277,4,-8,0,0,0,0,0,0
82,1765227037512,3,-8,0,0,0,0,0,0
83,1765227037662,4,-7,0,0,0,0,0,0
84,1765227037904,2,-7,0,0,0,0,0,0
85,1765227038003,7,-8,-1,0,0,0,0,0
86,1765227038096,5,-8,1,0,0,0,0,0
87,1765227038221,4,-7,0,0,0,0,0,0
88,1765227038395,6,-9,0,0,0,0,0,0
89,1765227038704,4,-7,0,0,0,0,0,0
90,1765227038844,5,-8,1,0,0,0,0,0
91,1765227038961,3,-8,0,0,0,0,0,0
92,1765227039137,4,-8,-1,0,0,0,0,0
93,1765227039576,6,-8,-1,0,0,0,0,0
94,1765227039629,4,-8,0,0,0,0,0,0
95,1765227039845,4,-8,0,0,0,0,0,0
96,1765227039978,3,-9,0,0,0,0,0,0
97,1765227040162,5,-9,0,0,0,0,0,0
98,1765227040404,4,-8,0,0,0,0,0,0
99,1765227040611,4,-8,-1,0,0,0,0,0
100,1765227040727,5,-9,1,0,0,0,0,0
101,1765227040953,3,-8,-1,0,0,0,0,0
102,1765227041071,3,-8,0,0,0,0,0,0
103,1765227041287,5,-8,1,0,0,0,0,0
104,1765227041446,6,-8,0,0,0,0,0,0
105,1765227041636,5,-9,0,0,0,0,0,0
106,1765227041740,3,-8,-1,0,0,0,0,0
107,1765227041893,5,-6,0,0,0,0,0,0
108,1765227042186,3,-8,-1,0,0,0,0,0
109,1765227042362,5,-8,0,0,0,0,0,0
110,1765227042554,5,-7,-1,0,0,0,0,0
111,1765227042630,3,-9,1,0,0,0,0,0
112,1765227042886,6,-9,-1,0,0,0,0,0
113,1765227042993,3,-9,0,0,0,0,0,0
114,1765227043235,4,-8,0,0,0,0,0,0
115,1765227043335,3,-7,0,0,0,0,0,0
116,1765227043588,3,-7,-1,0,0,0,0,0
117,1765227043729,4,-8,1,0,0,0,0,0
118,1765227044036,5,-7,0,0,0,0,0,0
119,1765227044103,5,-8,0,0,0,0,0,0
120,1765227044463,4,-8,1,0,0,0,0,0
121,1765227044722,4,-9,-1,0,0,0,0,0
122,1765227044796,5,-8,1,0,0,0,0,0
123,1765227044995,5,-8,1,0,0,0,0,0
124,1765227045168,3,-8,0,0,0,0,0,0
125,1765227045468,3,-8,1,0,0,0,0,0
126,1765227045602,5,-7,0,0,0,0,0,0
127,1765227045769,4,-9,-1,0,0,0,0,0
128,1765227045893,6,-8,0,0,0,0,0,0
129,1765227046136,3,-7,0,0,0,0,0,0
130,1765227046269,5,-9,0,0,0,0,0,0
131,1765227046427,4,-8,0,0,0,0,0,0
132,1765227046594,4,-9,0,0,0,0,0,0
133,1765227046786,5,-8,0,0,0,0,0,0
134,1765227046985,5,-9,-1,0,0,0,0,0
135,1765227047227,4,-8,1,0,0,0,0,0
136,1765227047360,5,-8,0,0,0,0,0,0
137,1765227047445,3,-8,0,0,0,0,0,0
138,1765227047510,3,-8,1,0,0,0,0,0
139,1765227047743,5,-9,0,0,0,0,0,0
140,1765227047885,3,-8,0,0,0,0,0,0
141,1765227048061,4,-8,-2,0,0,0,0,0
142,1765227048177,3,-7,-1,0,0,0,0,0
143,1765227048412,5,-8,0,0,0,0,0,0
144,1765227048477,3,-8,-1,0,0,0,0,0
145,1765227048911,3,-9,-1,0,0,0,0,0
146,1765227049112,5,-8,0,0,0,0,0,0
147,1765227049220,5,-9,0,0,0,0,0,0
148,1765227049302,5,-9,1,0,0,0,0,0
149,1765227049397,3,-8,-1,0,0,0,0,0
150,1765227049605,3,-9,-1,0,0,0,0,0
151,1765227049794,3,-7,1,0,0,0,0,0
152,1765227050002,4,-8,0,0,0,0,0,0
153,1765227050086,4,-8,-1,0,0,0,0,0
154,1765227050311,3,-6,1,0,0,0,0,0
155,1765227050762,4,-9,0,0,0,0,0,0
156,1765227050836,2,-9,-1,0,0,0,0,0
157,1765227051053,4,-7,1,0,0,0,0,0
158,1765227051194,2,-9,0,0,0,0,0,0
159,1765227051344,4,-8,1,0,0,0,0,0
160,1765227051519,4,-9,-1,0,0,0,0,0
161,1765227051728,5,-8,0,0,0,0,0,0
162,1765227051894,3,-8,0,0,0,0,0,0
163,1765227052002,4,-8,0,0,0,0,0,0
164,1765227052270,4,-8,1,0,0,0,0,0
165,1765227052645,4,-9,0,0,0,0,0,0
166,1765227052760,4,-9,0,0,0,0,0,0
167,1765227052944,5,-9,0,0,0,0,0,0
168,1765227053084,5,-9,0,0,0,0,0,0
169,1765227053360,3,-9,0,0,0,0,0,0
170,1765227053436,5,-8,0,0,0,0,0,0
171,1765227053661,4,-9,-1,0,0,0,0,0
172,1765227053785,3,-9,-2,0,0,0,0,0
173,1765227054061,4,-8,0,0,0,0,0,0
174,1765227054152,6,-9,1,0,0,0,0,0
175,1765227054485,5,-8,-1,0,0,0,0,0
176,1765227054577,5,-8,0,0,0,0,0,0
177,1765227054851,4,-9,0,0,0,0,0,0
178,1765227054976,4,-9,1,0,0,0,0,0
179,1765227055077,3,-8,0,0,0,0,0,0
180,1765227055276,3,-8,1,0,0,0,0,0
181,1765227055393,5,-7,-1,0,0,0,0,0
182,1765227055778,4,-7,0,0,0,0,0,0
183,1765227055995,4,-7,-1,0,0,0,0,0
184,1765227056069,6,-8,-1,0,0,0,0,0
185,1765227056151,5,-9,0,0,0,0,0,0
186,1765227056210,4,-9,-1,0,0,0,0,0
187,1765227056454,5,-8,-1,0,0,0,0,0
188,1765227056577,4,-7,-1,0,0,0,0,0
189,1765227056917,3,-8,0,0,0,0,0,0
190,1765227056963,5,-8,0,0,0,0,0,0
191,1765227057186,4,-9,0,0,0,0,0,0
192,1765227057294,11,-5,-10,0,0,0,0,0
193,1765227057387,6,-7,-3,0,0,0,0,0
194,1765227057693,3,-7,-1,0,0,0,0,0
195,1765227057769,5,-9,1,0,0,0,0,0
196,1765227058052,3,-10,0,0,0,0,0,0
197,1765227058152,5,-7,2,0,0,0,0,0
198,1765227058335,3,-7,-2,0,0,0,0,0
199,1765227058477,4,-10,0,0,0,0,0,0
200,1765227058570,6,-9,-2,0,0,0,0,0
201,1765227058709,5,-7,2,0,0,0,0,0
202,1765227058886,4,-7,0,0,0,0,0,0
203,1765227059018,3,-8,-1,0,0,0,0,0
204,1765227059310,5,-8,-1,0,0,0,0,0
205,1765227059510,5,-7,0,0,0,0,0,0
206,1765227059677,4,-8,0,0,0,0,0,0
207,1765227059793,4,-8,-1,0,0,0,0,0
208,1765227059859,2,-8,1,0,0,0,0,0
209,1765227060092,5,-8,0,0,0,0,0,0
210,1765227060152,4,-8,0,0,0,0,0,0
211,1765227060493,4,-11,-1,0,0,0,0,0
212,1765227060591,5,-9,-1,0,0,0,0,0
213,1765227060776,5,-8,1,0,0,0,0,0
214,1765227060885,4,-9,-1,0,0,0,0,0
215,1765227061010,4,-9,1,0,0,0,0,0
216,1765227061110,4,-9,0,0,0,0,0,0
217,1765227061368,3,-7,0,0,0,0,0,0
218,1765227061544,3,-8,-1,0,0,0,0,0
219,1765227061610,5,-9,0,0,0,0,0,0
220,1765227061784,5,-7,-1,0,0,0,0,0
221,1765227061893,4,-7,1,0,0,0,0,0
222,1765227062077,5,-8,-1,0,0,0,0,0
223,1765227062193,4,-8,-1,0,0,0,0,0
224,1765227062310,3,-9,0,0,0,0,0,0
225,1765227062534,5,-9,0,0,0,0,0,0
226,1765227062601,4,-9,0,0,0,0,0,0
227,1765227062851,3,-6,1,0,0,0,0,0
228,1765227063008,4,-8,-1,0,0,0,0,0
229,1765227063259,6,-9,0,0,0,0,0,0
230,1765227063476,7,-8,1,0,0,0,0,0
231,1765227063560,5,-7,2,0,0,0,0,0
232,1765227063762,7,-7,-1,0,0,0,0,0
233,1765227063829,4,-6,0,0,0,0,0,0
234,1765227064093,6,-9,-2,0,0,0,0,0
235,1765227064283,4,-8,0,0,0,0,0,0
236,1765227066020,4,-9,-1,0,0,0,0,0
237,1765227066020,4,-7,0,0,0,0,0,0
238,1765227066021,4,-9,0,0,0,0,0,0
239,1765227066021,1,-7,1,0,0,0,0,0
240,1765227066021,4,-7,1,0,0,0,0,0
241,1765227066021,4,-7,0,0,0,0,0,0
242,1765227066021,5,-8,-1,0,0,0,0,0
243,1765227066021,3,-8,1,0,0,0,0,0
244,1765227066021,5,-7,0,0,0,0,0,0
245,1765227066169,3,-9,-1,0,0,0,0,0
246,1765227066257,5,-9,2,0,0,0,0,0
247,1765227066415,4,-8,0,0,0,0,0,0
248,1765227066624,3,-9,1,0,0,0,0,0
249,1765227066908,5,-9,-1,0,0,0,0,0
250,1765227067074,5,-8,1,0,0,0,0,0
251,1765227067157,4,-9,-1,0,0,0,0,0
252,1765227067366,5,-9,0,0,0,0,0,0
253,1765227067498,4,-9,0,0,0,0,0,0
254,1765227067749,5,-7,0,0,0,0,0,0
255,1765227067874,5,-8,0,0,0,0,0,0
256,1765227068081,4,-8,0,0,0,0,0,0
257,1765227068209,3,-8,-1,0,0,0,0,0
258,1765227068441,5,-7,1,0,0,0,0,0
259,1765227068657,4,-10,-1,0,0,0,0,0
260,1765227068817,4,-9,-2,0,0,0,0,0
261,1765227068865,3,-8,-1,0,0,0,0,0
262,1765227068966,5,-8,1,0,0,0,0,0
263,1765227069190,6,-8,1,0,0,0,0,0
264,1765227069265,5,-8,0,0,0,0,0,0
265,1765227069666,3,-8,0,0,0,0,0,0
266,1765227069840,4,-7,0,0,0,0,0,0
267,1765227069956,5,-10,0,0,0,0,0,0
268,1765227070398,4,-8,0,0,0,0,0,0
269,1765227070540,6,-8,0,0,0,0,0,0
270,1765227070690,4,-9,-1,0,0,0,0,0
271,1765227070791,4,-9,1,0,0,0,0,0
272,1765227070858,3,-9,1,0,0,0,0,0
273,1765227071081,5,-7,-1,0,0,0,0,0
274,1765227071273,5,-7,-1,0,0,0,0,0
275,1765227071482,4,-8,1,0,0,0,0,0
276,1765227071582,4,-10,0,0,0,0,0,0
277,1765227071806,4,-9,0,0,0,0,0,0
278,1765227072199,4,-9,0,0,0,0,0,0
279,1765227072324,4,-8,1,0,0,0,0,0
280,1765227072532,5,-9,1,0,0,0,0,0
281,1765227072697,0,-11,-1,0,0,0,0,0
282,1765227072765,6,-7,0,0,0,0,0,0
283,1765227073024,3,-8,1,0,0,0,0,0
284,1765227073158,5,-8,-1,0,0,0,0,0
285,1765227073340,5,-7,0,0,0,0,0,0
286,1765227073448,3,-8,0,0,0,0,0,0
287,1765227073752,5,-8,1,0,0,0,0,0
288,1765227073881,5,-7,-1,0,0,0,0,0
289,1765227074063,5,-9,-1,0,0,0,0,0
290,1765227074206,4,-8,0,0,0,0,0,0
291,1765227074398,5,-8,0,0,0,0,0,0
292,1765227074572,4,-8,0,0,0,0,0,0
293,1765227074740,6,-9,1,0,0,0,0,0
294,1765227074915,3,-8,1,0,0,0,0,0
295,1765227075080,4,-7,0,0,0,0,0,0
296,1765227076407,3,-8,-1,0,0,0,0,0
297,1765227076614,6,-9,-1,0,0,0,0,0
298,1765227076682,7,-8,1,0,0,0,0,0
299,1765227076898,3,-7,0,0,0,0,0,0
300,1765227076971,4,-9,-1,0,0,0,0,0
301,1765227077239,4,-7,1,0,0,0,0,0
302,1765227077308,4,-7,0,0,0,0,0,0
303,1765227145016,6,-9,0,0,0,0,0,0
304,1765227145190,4,-8,0,0,0,0,0,0
305,1765227145299,5,-10,1,0,0,0,0,0
306,1765227145532,4,-10,-1,0,0,0,0,0
307,1765227145608,4,-8,0,0,0,0,0,0
308,1765227146271,5,-9,-1,0,0,0,0,0
309,1765227146292,4,-9,0,0,0,0,0,0
310,1765227146341,5,-9,-2,0,0,0,0,0
311,1765227146367,5,-8,1,0,0,0,0,0
312,1765227146401,6,-9,1,0,0,0,0,0
313,1765227146586,5,-9,0,0,0,0,0,0
314,1765227146768,5,-9,0,0,0,0,0,0
315,1765227146878,5,-9,0,0,0,0,0,0
316,1765227147060,6,-10,1,0,0,0,0,0
317,1765227147327,5,-9,0,0,0,0,0,0
318,1765227147569,6,-10,-1,0,0,0,0,0
319,1765227147710,5,-8,0,0,0,0,0,0
320,1765227147852,5,-11,1,0,0,0,0,0
321,1765227148002,5,-8,255,0,0,0,0,0
322,1765227148419,5,-9,-1,0,0,0,0,0
323,1765227148511,4,-10,0,0,0,0,0,0
324,1765227148719,4,-8,0,0,0,0,0,0
325,1765227149152,5,-9,-1,0,0,0,0,0
326,1765227149227,7,-9,1,0,0,0,0,0
327,1765227149444,5,-10,0,0,0,0,0,0
328,1765227149576,6,-9,0,0,0,0,0,0
329,1765227149736,6,-9,0,0,0,0,0,0
330,1765227149893,5,-10,255,0,0,0,0,0
331,1765227150277,5,-9,0,0,0,0,0,0
332,1765227150352,5,-9,-1,0,0,0,0,0
333,1765227150652,4,-10,1,0,0,0,0,0
334,1765227150761,6,-9,1,0,0,0,0,0
335,1765227151010,6,-10,-2,0,0,0,0,0
336,1765227151094,4,-9,0,0,0,0,0,0
337,1765227151303,6,-9,1,0,0,0,0,0
338,1765227151445,4,-8,-1,0,0,0,0,0
339,1765227151636,4,-10,-1,0,0,0,0,0
340,1765227151773,5,-9,1,0,0,0,0,0
341,1765227151950,6,-9,0,0,0,0,0,0
342,1765227152086,5,-9,-1,0,0,0,0,0
343,1765227152195,6,-6,0,0,0,0,0,0
344,1765227152494,6,-10,3,0,0,0,0,0
345,1765227152627,6,-10,-1,0,0,0,0,0
346,1765227152769,3,-9,1,0,0,0,0,0
347,1765227152928,5,-8,1,0,0,0,0,0
348,1765227153102,6,-10,-1,0,0,0,0,0
349,1765227153244,5,-9,-1,0,0,0,0,0
350,1765227153386,6,-8,0,0,0,0,0,0
351,1765227153601,5,-9,-1,0,0,0,0,0
352,1765227153677,5,-9,0,0,0,0,0,0
353,1765227154051,5,-10,-1,0,0,0,0,0
354,1765227154294,6,-10,1,0,0,0,0,0
355,1765227154552,6,-9,-2,0,0,0,0,0
356,1765227154703,5,-10,0,0,0,0,0,0
357,1765227154844,6,-8,0,0,0,0,0,0
358,1765227155042,4,-9,-2,0,0,0,0,0
359,1765227155051,5,-9,0,0,0,0,0,0
360,1765227155278,5,-10,0,0,0,0,0,0
361,1765227155393,5,-8,-1,0,0,0,0,0
362,1765227156127,5,-8,1,0,0,0,0,0
363,1765227156336,5,-8,0,0,0,0,0,0
364,1765227156411,3,-7,0,0,0,0,0,0
365,1765227156644,6,-10,-2,0,0,0,0,0
366,1765227156719,6,-8,0,0,0,0,0,0
367,1765227156983,6,-9,0,0,0,0,0,0
368,1765227157058,5,-11,1,0,0,0,0,0
369,1765227157268,5,-8,-2,0,0,0,0,0
370,1765227157846,5,-9,1,0,0,0,0,0
371,1765227157857,5,-10,-1,0,0,0,0,0
372,1765227157882,4,-8,-1,0,0,0,0,0
373,1765227157908,5,-11,0,0,0,0,0,0
374,1765227158003,5,-10,-1,0,0,0,0,0
375,1765227158147,6,-9,-1,0,0,0,0,0
376,1765227158319,6,-9,0,0,0,0,0,0
377,1765227158571,4,-8,0,0,0,0,0,0
378,1765227158754,5,-10,-1,0,0,0,0,0
379,1765227158889,3,-10,0,0,0,0,0,0
380,1765227159129,5,-9,0,0,0,0,0,0
381,1765227159246,6,-10,-1,0,0,0,0,0
382,1765227159496,6,-9,0,0,0,0,0,0
383,1765227159613,6,-9,0,0,0,0,0,0
384,1765227159854,4,-8,0,0,0,0,0,0
385,1765227159996,6,-9,0,0,0,0,0,0
386,1765227160213,4,-10,-1,0,0,0,0,0
387,1765227160370,5,-10,-1,0,0,0,0,0
388,1765227160546,3,-9,-1,0,0,0,0,0
389,1765227160753,5,-9,-1,0,0,0,0,0
390,1765227160879,6,-9,-2,0,0,0,0,0
391,1765227161087,5,-9,0,0,0,0,0,0
392,1765227161238,4,-10,0,0,0,0,0,0
393,1765227161470,6,-10,0,0,0,0,0,0
394,1765227161571,4,-6,0,0,0,0,0,0
395,1765227161796,5,-10,0,0,0,0,0,0
396,1765227162054,4,-9,-2,0,0,0,0,0
397,1765227162238,4,-9,-1,0,0,0,0,0
398,1765227162595,6,-9,0,0,0,0,0,0
399,1765227162671,6,-9,0,0,0,0,0,0
400,1765227162936,4,-10,0,0,0,0,0,0
401,1765227163078,5,-9,-1,0,0,0,0,0
402,1765227163246,5,-9,-1,0,0,0,0,0
403,1765227163370,6,-9,0,0,0,0,0,0
404,1765227163807,6,-9,1,0,0,0,0,0
405,1765227163973,5,-9,1,0,0,0,0,0
406,1765227164109,5,-9,0,0,0,0,0,0
407,1765227164293,4,-9,-2,0,0,0,0,0
408,1765227164520,4,-8,-1,0,0,0,0,0
409,1765227164687,5,-9,-1,0,0,0,0,0
410,1765227164812,5,-10,0,0,0,0,0,0
411,1765227164903,5,-10,-1,0,0,0,0,0
412,1765227164979,5,-9,-1,0,0,0,0,0
413,1765227165195,4,-9,0,0,0,0,0,0
414,1765227165654,5,-11,0,0,0,0,0,0
415,1765227165752,6,-9,-1,0,0,0,0,0
416,1765227165952,5,-8,-1,0,0,0,0,0
417,1765227166112,6,-10,0,0,0,0,0,0
418,1765227166311,6,-9,0,0,0,0,0,0
419,1765227166411,5,-9,1,0,0,0,0,0
420,1765227166636,4,-9,0,0,0,0,0,0
421,1765227166728,7,-10,-1,0,0,0,0,0
422,1765227166770,4,-9,-1,0,0,0,0,0
423,1765227166953,5,-9,0,0,0,0,0,0
424,1765227167153,6,-10,0,0,0,0,0,0
425,1765227167370,6,-8,0,0,0,0,0,0
426,1765227167511,6,-9,0,0,0,0,0,0
427,1765227167729,5,-9,-1,0,0,0,0,0
428,1765227167861,5,-8,0,0,0,0,0,0
429,1765227168094,6,-9,0,0,0,0,0,0
430,1765227168244,5,-9,0,0,0,0,0,0
431,1765227168824,5,-8,0,0,0,0,0,0
432,1765227168872,4,-9,0,0,0,0,0,0
433,1765227168924,3,-9,-1,0,0,0,0,0
434,1765227169001,5,-10,-1,0,0,0,0,0
435,1765227169369,6,-10,0,0,0,0,0,0
436,1765227169501,5,-9,0,0,0,0,0,0
437,1765227169711,4,-9,-1,0,0,0,0,0
438,1765227170086,6,-9,0,0,0,0,0,0
439,1765227170210,6,-9,-1,0,0,0,0,0
440,1765227170451,6,-9,0,0,0,0,0,0
441,1765227170651,3,-10,1,0,0,0,0,0
442,1765227170836,5,-9,-1,0,0,0,0,0
443,1765227171001,6,-10,0,0,0,0,0,0
444,1765227171219,4,-9,0,0,0,0,0,0
445,1765227171386,6,-9,1,0,0,0,0,0
446,1765227171559,4,-9,0,0,0,0,0,0
447,1765227171735,4,-7,254,0,0,0,0,0
448,1765227171941,6,-9,1,0,0,0,0,0
449,1765227172160,5,-9,-1,0,0,0,0,0
450,1765227172301,6,-9,0,0,0,0,0,0
451,1765227172376,5,-8,1,0,0,0,0,0
452,1765227172442,5,-9,0,0,0,0,0,0
453,1765227172676,4,-10,0,0,0,0,0,0
454,1765227172792,6,-9,0,0,0,0,0,0
455,1765227173009,4,-9,-1,0,0,0,0,0
456,1765227173151,5,-9,0,0,0,0,0,0
457,1765227173393,6,-8,0,0,0,0,0,0
458,1765227173492,7,-9,-1,0,0,0,0,0
459,1765227173710,5,-11,-4,0,0,0,0,0
460,1765227173953,3,-9,-2,0,0,0,0,0
461,1765227174136,4,-9,-2,0,0,0,0,0
462,1765227174276,4,-10,-1,0,0,0,0,0
463,1765227174517,5,-9,0,0,0,0,0,0
464,1765227174659,5,-9,0,0,0,0,0,0
465,1765227174851,6,-10,-1,0,0,0,0,0
466,1765227174884,5,-9,1,0,0,0,0,0
467,1765227174992,6,-8,-1,0,0,0,0,0
468,1765227175218,4,-9,-1,0,0,0,0,0
469,1765227175394,6,-9,0,0,0,0,0,0
470,1765227175627,4,-10,0,0,0,0,0,0
471,1765227175731,6,-9,0,0,0,0,0,0
472,1765227175965,4,-8,-1,0,0,0,0,0
473,1765227176041,6,-9,0,0,0,0,0,0
474,1765227176109,4,-9,0,0,0,0,0,0
475,1765227176234,6,-10,0,0,0,0,0,0
476,1765227176435,6,-8,0,0,0,0,0,0
477,1765227176620,4,-8,1,0,0,0,0,0
478,1765227176801,5,-10,0,0,0,0,0,0
479,1765227176929,8,-11,1,0,0,0,0,0
480,1765227177180,5,-7,0,0,0,0,0,0
481,1765227177388,4,-9,-2,0,0,0,0,0
482,1765227177552,6,-10,1,0,0,0,0,0
483,1765227177744,5,-7,-1,0,0,0,0,0
484,1765227177851,6,-9,-1,0,0,0,0,0
485,1765227178094,7,-11,3,0,0,0,0,0
486,1765227178252,1,-12,-1,0,0,0,0,0
487,1765227178468,5,-5,-2,0,0,0,0,0
488,1765227178555,2,-10,2,0,0,0,0,0
489,1765227178827,3,-9,1,0,0,0,0,0
490,1765227178988,5,-9,0,0,0,0,0,0
491,1765227179731,4,-5,-1,0,0,0,0,0
492,1765227179760,6,-39,-3,0,0,0,0,0
493,1765227179800,-7,-7,-9,0,0,0,0,0
494,1765227179842,8,-17,-9,0,0,0,0,0
495,1765227179943,14,-25,19,0,0,0,0,0
496,1765227180101,13,-57,9,0,0,0,0,0
497,1765227180278,28,-28,21,0,0,0,0,0
498,1765227180769,3,-40,-20,0,0,0,0,0
499,1765227180860,-1,-54,3,0,0,0,0,0
500,1765227181103,41,-38,-8,0,0,0,0,0
501,1765227181235,-30,-48,-13,0,0,0,0,0
502,1765227181394,-5,-54,14,0,0,0,0,0
503,1765227181569,10,-50,20,0,0,0,0,0
504,1765227181744,-6,-46,0,0,0,0,0,0
505,1765227181905,9,24,-12,0,0,0,0,0
506,1765227181987,21,34,-4,0,0,0,0,0
507,1765227182286,7,51,-7,0,0,0,0,0
508,1765227182419,-20,17,15,0,0,0,0,0
509,1765227182652,10,34,-34,0,0,0,0,0
510,1765227182728,3,52,-6,0,0,0,0,0
511,1765227183143,25,26,2,0,0,0,0,0
512,1765227183319,50,35,-3,0,0,0,0,0
513,1765227183435,-29,57,11,0,0,0,0,0
514,1765227183818,2,5,3,0,0,0,0,0
515,1765227184052,2,-7,-50,0,0,0,0,0
516,1765227184185,32,-12,25,0,0,0,0,0
517,1765227184235,38,-59,26,0,0,0,0,0
518,1765227184310,-6,-26,-17,0,0,0,0,0
519,1765227184551,-1,-34,26,0,0,0,0,0
520,1765227184609,2,-52,41,0,0,0,0,0
521,1765227185018,-3,-104,-27,0,0,0,0,0
522,1765227185160,-25,-122,-17,0,0,0,0,0
523,1765227185311,21,-188,12,0,0,0,0,0
524,1765227185727,31,-234,-6,0,0,0,0,0
525,1765227185852,-7,-271,18,0,0,0,0,0
526,1765227186043,59,-272,19,0,0,0,0,0
527,1765227186194,-21,-318,-39,0,0,0,0,0
528,1765227186376,20,-337,55,0,0,0,0,0
529,1765227186537,-11,-301,8,0,0,0,0,0
530,1765227186990,-30,-392,-7,0,0,0,0,0
531,1765227187204,36,-422,10,0,0,0,0,0
532,1765227187308,44,-414,55,0,0,0,0,0
533,1765227187377,48,-428,68,0,0,0,0,0
534,1765227187668,23,-439,60,0,0,0,0,0
535,1765227187810,40,-413,-11,0,0,0,0,0
536,1765227188085,57,-223,24,0,0,0,0,0
537,1765227188294,-8,-198,-28,0,0,0,0,0
538,1765227188401,28,-133,-3,0,0,0,0,0
539,1765227188744,36,-35,19,0,0,0,0,0
540,1765227188826,-25,-47,36,0,0,0,0,0
541,1765227189135,6,17,-11,0,0,0,0,0
542,1765227189243,84,53,9,0,0,0,0,0
543,1765227189426,-62,80,-14,0,0,0,0,0
544,1765227189560,-19,45,16,0,0,0,0,0
545,1765227189742,48,42,6,0,0,0,0,0
546,1765227189852,28,-164,-17,0,0,0,0,0
547,1765227189977,-15,-242,27,0,0,0,0,0
548,1765227190673,53,-264,-22,0,0,0,0,0
549,1765227190683,-65,-313,-38,0,0,0,0,0
550,1765227190702,18,-559,-14,0,0,0,0,0
551,1765227190747,94,-589,116,0,0,0,0,0
552,1765227190768,66,-576,9,0,0,0,0,0
553,1765227191167,-1,-632,52,0,0,0,0,0
554,1765227191293,23,-616,32,0,0,0,0,0
555,1765227191461,81,-609,55,0,0,0,0,0
556,1765227191594,-17,-615,47,0,0,0,0,0
557,1765227191667,-44,-463,13,0,0,0,0,0
558,1765227191917,94,-357,24,0,0,0,0,0
559,1765227192068,72,-350,46,0,0,0,0,0
560,1765227192217,-11,-284,-32,0,0,0,0,0
561,1765227192359,36,155,0,0,0,0,0,0
562,1765227192568,-40,221,8,0,0,0,0,0
563,1765227192792,96,229,5,0,0,0,0,0
564,1765227193026,-22,916,-9,0,0,0,0,0
565,1765227193109,-55,843,-144,0,0,0,0,0
566,1765227193342,83,809,21,0,0,0,0,0
567,1765227193493,-92,830,-63,0,0,0,0,0
568,1765227193720,-26,773,-48,0,0,0,0,0
569,1765227193809,-118,808,-77,0,0,0,0,0
570,1765227194027,-34,757,-40,0,0,0,0,0
571,1765227194104,-16,792,57,0,0,0,0,0
572,1765227194186,43,815,-19,0,0,0,0,0
573,1765227194496,-55,839,-58,0,0,0,0,0
574,1765227194578,68,767,-106,0,0,0,0,0
575,1765227194869,44,851,-7,0,0,0,0,0
576,1765227194943,57,793,-75,0,0,0,0,0
577,1765227195183,-5,806,-60,0,0,0,0,0
578,1765227195375,-34,808,-39,0,0,0,0,0
579,1765227195585,46,741,-47,0,0,0,0,0
580,1765227195777,-11,738,-54,0,0,0,0,0
581,1765227196008,-28,746,-58,0,0,0,0,0
582,1765227196266,-18,698,31,0,0,0,0,0
583,1765227196340,43,693,-79,0,0,0,0,0
584,1765227196574,-4,698,-51,0,0,0,0,0
585,1765227196715,35,642,-62,0,0,0,0,0
586,1765227196988,24,720,-51,0,0,0,0,0
587,1765227197041,18,696,13,0,0,0,0,0
588,1765227197283,12,682,-107,0,0,0,0,0
589,1765227197408,-76,679,47,0,0,0,0,0
590,1765227197709,-108,739,-11,0,0,0,0,0
591,1765227197826,-19,642,5,0,0,0,0,0
592,1765227198083,-23,15,-4,0,0,0,0,0
593,1765227198140,-13,-50,-11,0,0,0,0,0
594,1765227198417,12,-168,3,0,0,0,0,0
595,1765227198557,-52,-243,7,0,0,0,0,0
596,1765227198797,84,-696,75,0,0,0,0,0
597,1765227198915,0,-729,20,0,0,0,0,0
598,1765227199164,31,-704,-4,0,0,0,0,0
599,1765227199405,-47,-625,66,0,0,0,0,0
600,1765227199553,45,-670,77,0,0,0,0,0
601,1765227199792,-12,-616,16,0,0,0,0,0
602,1765227199931,29,-421,33,0,0,0,0,0
603,1765227200161,64,-380,42,0,0,0,0,0
604,1765227200264,-38,-334,48,0,0,0,0,0
605,1765227200555,22,-258,34,0,0,0,0,0
606,1765227200655,18,-274,21,0,0,0,0,0
607,1765227200973,14,-270,14,0,0,0,0,0
608,1765227201112,22,-247,-10,0,0,0,0,0
609,1765227201729,-6,-201,9,0,0,0,0,0
610,1765227201743,-23,-200,66,0,0,0,0,0
611,1765227201770,98,-173,-18,0,0,0,0,0
612,1765227201786,-18,-124,33,0,0,0,0,0
613,1765227201920,8,-126,-16,0,0,0,0,0
614,1765227202088,-23,-144,20,0,0,0,0,0
615,1765227202297,-26,-129,21,0,0,0,0,0
616,1765227202472,-20,-161,-12,0,0,0,0,0
617,1765227202788,-15,-166,7,0,0,0,0,0
618,1765227202863,76,-167,39,0,0,0,0,0
619,1765227203221,108,-79,-37,0,0,0,0,0
620,1765227203649,24,-97,30,0,0,0,0,0
621,1765227203864,-23,-111,33,0,0,0,0,0
622,1765227203952,21,-178,6,0,0,0,0,0
623,1765227204405,33,-384,40,0,0,0,0,0
624,1765227204642,30,-422,12,0,0,0,0,0
625,1765227204762,28,-412,12,0,0,0,0,0
626,1765227205025,-6,-470,54,0,0,0,0,0
627,1765227205144,29,-489,30,0,0,0,0,0
628,1765227205352,34,-468,22,0,0,0,0,0
629,1765227205511,-4,-456,-18,0,0,0,0,0
630,1765227205751,47,-433,47,0,0,0,0,0
631,1765227206022,21,-436,61,0,0,0,0,0
632,1765227206208,-1,-414,0,0,0,0,0,0
633,1765227206363,15,-433,25,0,0,0,0,0
634,1765227206504,26,-25012,18038,0,0,0,0,0
635,1765227206929,-28,-596,0,0,0,0,0,0
636,1765227207109,32,-600,-3,0,0,0,0,0
637,1765227207221,29,-571,47,0,0,0,0,0
638,1765227207433,7,-608,56,0,0,0,0,0
639,1765227207695,55,-618,57,0,0,0,0,0
640,1765227207921,73,-606,33,0,0,0,0,0
641,1765227208080,17,-533,17,0,0,0,0,0
642,1765227208315,6,-527,29,0,0,0,0,0
643,1765227208446,10,-487,47,0,0,0,0,0
644,1765227208795,-18,-131,-8,0,0,0,0,0
645,1765227209023,66,-66,9,0,0,0,0,0
646,1765227209260,-29,-1,1,0,0,0,0,0
647,1765227209478,-49,533,-35,0,0,0,0,0
648,1765227209556,8,525,-109,0,0,0,0,0
649,1765227209775,66,554,175,0,0,0,0,0
650,1765227209926,-67,826,-28,0,0,0,0,0
651,1765227210207,6,770,-80,0,0,0,0,0
652,1765227210304,-74,727,-63,0,0,0,0,0
653,1765227210582,11,346,-10,0,0,0,0,0
654,1765227210655,-26,203,-49,0,0,0,0,0
655,1765227210917,55,60,-74,0,0,0,0,0
656,1765227211126,-59,-499,83,0,0,0,0,0
657,1765227211358,56,-659,-21,0,0,0,0,0
658,1765227211455,45,-767,12295,0,0,0,0,0
659,1765227211801,52,-896,25,0,0,0,0,0
660,1765227212092,107,-911,73,0,0,0,0,0
661,1765227212197,69,-915,56,0,0,0,0,0
662,1765227212421,73,-871,-43,0,0,0,0,0
663,1765227213003,2,-930,166,0,0,0,0,0
664,1765227213049,72,-911,140,0,0,0,0,0
665,1765227213223,25,-1029,-38,0,0,0,0,0
666,1765227213329,86,-1006,49,0,0,0,0,0
667,1765227213569,11,-1037,-18,0,0,0,0,0
668,1765227213719,34,-963,37,0,0,0,0,0
669,1765227213940,388,-1013,43,0,0,0,0,0
670,1765227214056,23,-988,96,0,0,0,0,0
671,1765227214320,66,-931,98,0,0,0,0,0
672,1765227214551,99,-949,81,0,0,0,0,0
673,1765227214691,112,-937,93,0,0,0,0,0
674,1765227215072,31,-736,23,0,0,0,0,0
675,1765227215271,10,-752,60,0,0,0,0,0
676,1765227215407,-4,-612,-17,0,0,0,0,0
677,1765227215478,52,-166,-40,0,0,0,0,0
678,1765227215547,47,-100,8,0,0,0,0,0
679,1765227215779,-14,-35,26,0,0,0,0,0
680,1765227215855,-46,7,-6,0,0,0,0,0
681,1765227216521,-11,586,1,0,0,0,0,0
682,1765227216606,93,624,-67,0,0,0,0,0
683,1765227216821,-48,744,-64,0,0,0,0,0
684,1765227217004,-47,712,-27,0,0,0,0,0
685,1765227217197,-48,729,-23,0,0,0,0,0
686,1765227217303,-14,645,-72,0,0,0,0,0
687,1765227217371,10,323,-9,0,0,0,0,0
688,1765227217473,5,275,7,0,0,0,0,0
689,1765227217667,5,265,-45,0,0,0,0,0
690,1765227217946,2,194,-11,0,0,0,0,0
691,1765227218128,111,-3,263,0,0,0,0,0
692,1765227218254,41,-16,-21,0,0,0,0,0
693,1765227218430,-33,23,-27,0,0,0,0,0
694,1765227218763,-74,25,-19,0,0,0,0,0
695,1765227218891,-39,25,-24,0,0,0,0,0
696,1765227219103,7,48,47,0,0,0,0,0
697,1765227219243,-30,297,-8,0,0,0,0,0
698,1765227219639,-65,364,-57,0,0,0,0,0
699,1765227220001,73,458,24,0,0,0,0,0
700,1765227220085,51,471,-113,0,0,0,0,0
701,1765227220316,-23,476,-60,0,0,0,0,0
702,1765227220461,-3,528,30,0,0,0,0,0
703,1765227220630,9,534,-67,0,0,0,0,0
704,1765227220785,24,472,-36,0,0,0,0,0
705,1765227220979,-11,501,-35,0,0,0,0,0
706,1765227221169,32,551,80,0,0,0,0,0
707,1765227221363,-29,564,-80,0,0,0,0,0
708,1765227221539,-57,578,-67,0,0,0,0,0
709,1765227221671,-10,615,-23,0,0,0,0,0
710,1765227221839,37,533,-67,0,0,0,0,0
711,1765227221971,-31,600,-4,0,0,0,0,0
712,1765227222200,-63,590,-122,0,0,0,0,0
713,1765227222287,64,886,23,0,0,0,0,0
714,1765227222421,30,876,-181,0,0,0,0,0
715,1765227222645,155,821,8,0,0,0,0,0
716,1765227222705,22,919,-151,0,0,0,0,0
717,1765227223158,-17,882,3,0,0,0,0,0
718,1765227223341,-89,857,-64,0,0,0,0,0
719,1765227223454,-53,732,-14,0,0,0,0,0
720,1765227223504,-36,225,-42,0,0,0,0,0
721,1765227223590,7,105,-15,0,0,0,0,0
722,1765227224288,-1,-35,-65,0,0,0,0,0
723,1765227224309,32,-152,-39,0,0,0,0,0
724,1765227224371,124,-973,64,0,0,0,0,0
725,1765227224400,28,-1018,59,0,0,0,0,0
726,1765227224591,-70,-980,90,0,0,0,0,0
727,1765227224733,109,-838,111,0,0,0,0,0
728,1765227224795,53,-788,114,0,0,0,0,0
729,1765227225089,158,-487,94,0,0,0,0,0
730,1765227225272,76,-246,48,0,0,0,0,0
731,1765227225345,-37,76,-7,0,0,0,0,0
732,1765227225513,108,237,80,0,0,0,0,0
733,1765227225660,-5,314,-95,0,0,0,0,0
734,1765227225860,-27,393,43,0,0,0,0,0
735,1765227225942,48,915,4,0,0,0,0,0
736,1765227226284,-107,972,-251,0,0,0,0,0
737,1765227226369,-9,981,33,0,0,0,0,0
738,1765227226663,54,901,63,0,0,0,0,0
739,1765227226893,-64,900,-170,0,0,0,0,0
740,1765227227062,-44,927,-51,0,0,0,0,0
741,1765227227212,-111,920,-130,0,0,0,0,0
742,1765227227451,12,785,125,0,0,0,0,0
743,1765227227627,-12,829,-72,0,0,0,0,0
744,1765227227872,137,922,-17,0,0,0,0,0
745,1765227227954,16,953,-78,0,0,0,0,0
746,1765227228166,-79,1054,-129,0,0,0,0,0
747,1765227228642,-74,1151,-158,0,0,0,0,0
748,1765227228887,-143,1149,-49,0,0,0,0,0
749,1765227229006,-14,1068,-53,0,0,0,0,0
750,1765227229073,-16,811,-90,0,0,0,0,0
751,1765227229349,-26,794,-88,0,0,0,0,0
752,1765227229538,-23,802,-71,0,0,0,0,0
753,1765227229763,-21,610,-32,0,0,0,0,0
754,1765227229985,-15,561,-86,0,0,0,0,0
755,1765227230475,17,83,-38,0,0,0,0,0
756,1765227230577,37,2,-82,0,0,0,0,0
757,1765227230766,-31,-74,-66,0,0,0,0,0
758,1765227230877,49,-281,5,0,0,0,0,0
759,1765227230979,44,-294,14,0,0,0,0,0
760,1765227231229,42,-296,77,0,0,0,0,0
761,1765227231411,105,-276,-11,0,0,0,0,0
762,1765227231621,60,-374,22,0,0,0,0,0
763,1765227231921,14,-395,9,0,0,0,0,0
764,1765227231997,-21,-398,60,0,0,0,0,0
765,1765227232318,13,-369,-69,0,0,0,0,0
766,1765227232393,-21,-372,-31,0,0,0,0,0
767,1765227232677,-5,-354,20,0,0,0,0,0
768,1765227232881,-22,-298,49,0,0,0,0,0
769,1765227233079,17,-288,-11,0,0,0,0,0
770,1765227233259,-42,-260,2,0,0,0,0,0
771,1765227233476,11,-107,-1,0,0,0,0,0
772,1765227233790,20,-86,20,0,0,0,0,0
773,1765227233859,5,-87,0,0,0,0,0,0
774,1765227234157,11,-64,6,0,0,0,0,0
775,1765227234243,24,-51,24,0,0,0,0,0
776,1765227234515,-19,-50,-11,0,0,0,0,0
777,1765227234665,20,-50,19,0,0,0,0,0
778,1765227235330,-1,-47,4,0,0,0,0,0
779,1765227235346,35,-55,7,0,0,0,0,0
780,1765227235459,-15,-24,1,0,0,0,0,0
781,1765227235561,10,-56,18,0,0,0,0,0
782,1765227235685,-22,-31,8,0,0,0,0,0
783,1765227235941,4,-32,-24,0,0,0,0,0
784,1765227236128,-13,-28,9,0,0,0,0,0
785,1765227236386,20,-27,20,0,0,0,0,0
786,1765227236559,8,-23,-7,0,0,0,0,0
787,1765227236780,9,-28,6,0,0,0,0,0
788,1765227236971,3,-18,-4,0,0,0,0,0
789,1765227237261,-22,-13,-2,0,0,0,0,0
790,1765227237327,3,-5,-3,0,0,0,0,0
791,1765227237556,18,-13,-4,0,0,0,0,0
792,1765227237685,6,-6,0,0,0,0,0,0
793,1765227237976,5,-10,0,0,0,0,0,0
794,1765227238063,2,-8,-1,0,0,0,0,0
795,1765227238278,7,-10,0,0,0,0,0,0
796,1765227238359,4,-10,0,0,0,0,0,0
797,1765227238437,1,0,-1,0,0,0,0,0
798,1765227238758,4,-9,-1,0,0,0,0,0
799,1765227238994,1,-9,0,0,0,0,0,0
800,1765227239146,8,-8,0,0,0,0,0,0
801,1765227239346,3,-8,2,0,0,0,0,0
802,1765227239473,3,-7,-1,0,0,0,0,0
803,1765227239813,3,-7,1,0,0,0,0,0
804,1765227239893,4,-8,1,0,0,0,0,0
805,1765227240118,4,-8,-1,0,0,0,0,0
806,1765227240299,3,-8,-1,0,0,0,0,0
807,1765227240594,5,-8,0,0,0,0,0,0
808,1765227240806,4,-8,0,0,0,0,0,0
809,1765227240989,5,-9,0,0,0,0,0,0
810,1765227241137,4,-9,0,0,0,0,0,0
811,1765227241323,3,-8,0,0,0,0,0,0
812,1765227241541,4,-8,1,0,0,0,0,0
813,1765227241714,5,-9,0,0,0,0,0,0
814,1765227241913,5,-8,0,0,0,0,0,0
815,1765227242129,3,-8,0,0,0,0,0,0
816,1765227242427,5,-10,-1,0,0,0,0,0
817,1765227242519,5,-9,1,0,0,0,0,0
818,1765227242818,5,-8,-1,0,0,0,0,0
819,1765227242883,6,-9,0,0,0,0,0,0
820,1765227243177,4,-9,1,0,0,0,0,0
821,1765227243335,4,-8,-1,0,0,0,0,0
822,1765227243570,6,-9,1,0,0,0,0,0
823,1765227243673,5,-8,0,0,0,0,0,0
824,1765227244036,5,-8,1,0,0,0,0,0
825,1765227244144,5,-10,-1,0,0,0,0,0
826,1765227244332,4,-8,0,0,0,0,0,0
827,1765227244515,4,-9,0,0,0,0,0,0
828,1765227244764,4,-8,1,0,0,0,0,0
829,1765227244945,5,-9,0,0,0,0,0,0
830,1765227245067,3,-8,0,0,0,0,0,0
831,1765227245336,5,-8,0,0,0,0,0,0
832,1765227245558,5,-8,-1,0,0,0,0,0
833,1765227246265,4,-10,1,0,0,0,0,0
834,1765227246281,5,-9,0,0,0,0,0,0
835,1765227246299,3,-8,0,0,0,0,0,0
836,1765227246346,4,-9,0,0,0,0,0,0
837,1765227246401,6,-8,0,0,0,0,0,0
838,1765227246638,3,-7,-1,0,0,0,0,0
839,1765227246743,4,-8,-1,0,0,0,0,0
840,1765227246927,5,-7,-1,0,0,0,0,0
841,1765227247122,5,-8,0,0,0,0,0,0
842,1765227247409,6,-9,0,0,0,0,0,0
843,1765227247655,3,-9,1,0,0,0,0,0
844,1765227247800,5,-8,-1,0,0,0,0,0
845,1765227247999,5,-9,-1,0,0,0,0,0
846,1765227248174,5,-9,0,0,0,0,0,0
847,1765227248484,5,-9,-1,0,0,0,0,0
848,1765227248565,5,-8,0,0,0,0,0,0
849,1765227248799,4,-8,0,0,0,0,0,0
850,1765227248967,3,-9,0,0,0,0,0,0
851,1765227249270,3,-8,0,0,0,0,0,0
852,1765227249401,4,-8,0,0,0,0,0,0
853,1765227249649,4,-8,-1,0,0,0,0,0
854,1765227249725,4,-9,0,0,0,0,0,0
855,1765227250015,4,-8,-1,0,0,0,0,0
856,1765227250166,4,-9,0,0,0,0,0,0
857,1765227250399,5,-8,0,0,0,0,0,0
858,1765227250475,5,-9,0,0,0,0,0,0
859,1765227250925,4,-8,-1,0,0,0,0,0
860,1765227251150,5,-9,1,0,0,0,0,0
861,1765227251258,3,-8,0,0,0,0,0,0
862,1765227251474,5,-7,0,0,0,0,0,0
863,1765227251599,3,-9,-1,0,0,0,0,0
864,1765227251882,6,-8,-1,0,0,0,0,0
865,1765227251951,5,-9,-1,0,0,0,0,0
866,1765227252027,4,-7,1,0,0,0,0,0
867,1765227252157,6,-9,0,0,0,0,0,0
868,1765227252316,5,-8,-1,0,0,0,0,0
869,1765227252766,6,-9,0,0,0,0,0,0
870,1765227252907,4,-7,0,0,0,0,0,0
871,1765227253066,5,-8,0,0,0,0,0,0
872,1765227253382,5,-9,1,0,0,0,0,0
873,1765227253543,5,-8,0,0,0,0,0,0
874,1765227253774,4,-8,-256,0,0,0,0,0
875,1765227253939,4,-9,0,0,0,0,0,0
876,1765227254033,4,-11,0,0,0,0,0,0
877,1765227254298,4,-8,0,0,0,0,0,0
878,1765227254691,5,-8,0,0,0,0,0,0
879,1765227254781,6,-9,0,0,0,0,0,0
880,1765227254984,6,-9,-2,0,0,0,0,0
881,1765227255142,4,-10,-3,0,0,0,0,0
882,1765227255339,2,-8,-1,0,0,0,0,0
883,1765227255465,5,-8,3,0,0,0,0,0
884,1765227255847,6,-9,-1,0,0,0,0,0
885,1765227255905,6,-8,0,0,0,0,0,0
886,1765227256205,6,-8,0,0,0,0,0,0
887,1765227256365,3,-8,0,0,0,0,0,0
888,1765227256524,5,-12,-1,0,0,0,0,0
889,1765227257222,4,-9,-2,0,0,0,0,0
890,1765227257255,1,-10,0,0,0,0,0,0
891,1765227257291,4,-9,-1,0,0,0,0,0
892,1765227257323,5,-8,0,0,0,0,0,0
893,1765227257387,4,-8,0,0,0,0,0,0
894,1765227257544,4,-8,1,0,0,0,0,0
895,1765227257686,3,-8,0,0,0,0,0,0
896,1765227257861,4,-8,-1,0,0,0,0,0
897,1765227258311,5,-9,0,0,0,0,0,0
898,1765227258403,4,-8,0,0,0,0,0,0
899,1765227258588,6,-9,2,0,0,0,0,0
900,1765227258729,3,-10,1,0,0,0,0,0
901,1765227258864,4,-9,-1,0,0,0,0,0
902,1765227259059,3,-9,-2,0,0,0,0,0
903,1765227259229,3,-7,0,0,0,0,0,0
904,1765227259377,6,-9,-1,0,0,0,0,0
905,1765227259496,4,-8,2,0,0,0,0,0
906,1765227259803,5,-9,0,0,0,0,0,0
907,1765227259877,4,-8,-1,0,0,0,0,0
908,1765227260020,5,-10,0,0,0,0,0,0
909,1765227260228,5,-8,-1,0,0,0,0,0
910,1765227260336,4,-9,0,0,0,0,0,0
911,1765227260529,4,-7,0,0,0,0,0,0
912,1765227260677,3,-9,0,0,0,0,0,0
913,1765227260863,4,-7,-1,0,0,0,0,0
914,1765227261028,5,-8,-1,0,0,0,0,0
915,1765227261170,5,-8,-2,0,0,0,0,0
916,1765227261312,2,-7,0,0,0,0,0,0
917,1765227261451,4,-10,1,0,0,0,0,0
918,1765227261910,5,-8,1,0,0,0,0,0
919,1765227262102,6,-9,0,0,0,0,0,0
920,1765227262219,5,-9,0,0,0,0,0,0
921,1765227262427,4,-7,0,0,0,0,0,0
922,1765227262644,4,-9,-1,0,0,0,0,0
923,1765227262877,2,-7,0,0,0,0,0,0
924,1765227262954,3,-9,-1,0,0,0,0,0
925,1765227263803,5,-9,1,0,0,0,0,0
926,1765227264011,6,-10,1,0,0,0,0,0
927,1765227264078,4,-9,0,0,0,0,0,0
928,1765227264295,5,-7,0,0,0,0,0,0
929,1765227264368,3,-9,0,0,0,0,0,0
930,1765227264635,3,-7,0,0,0,0,0,0
931,1765227264712,4,-9,-1,0,0,0,0,0
932,1765227264917,5,-8,0,0,0,0,0,0
933,1765227264993,5,-9,1,0,0,0,0,0
934,1765227265060,3,-8,0,0,0,0,0,0
935,1765227265152,4,-8,0,0,0,0,0,0
936,1765227265376,3,-10,1,0,0,0,0,0
937,1765227265477,4,-8,-2,0,0,0,0,0
938,1765227265694,4,-8,0,0,0,0,0,0
939,1765227265844,5,-8,1,0,0,0,0,0
940,1765227265960,3,-9,-1,0,0,0,0,0
941,1765227266210,3,-9,-1,0,0,0,0,0
942,1765227266368,3,-8,-1,0,0,0,0,0
943,1765227266594,3,-9,0,0,0,0,0,0
944,1765227266669,6,-8,0,0,0,0,0,0
945,1765227266884,4,-8,0,0,0,0,0,0
946,1765227267059,3,-9,0,0,0,0,0,0
947,1765227267224,4,-7,1,0,0,0,0,0
948,1765227267402,3,-8,0,0,0,0,0,0
949,1765227267567,3,-8,0,0,0,0,0,0
950,1765227267694,3,-8,-1,0,0,0,0,0
951,1765227267860,5,-8,-2,0,0,0,0,0
952,1765227268922,4,-8,0,0,0,0,0,0
953,1765227268947,4,-8,0,0,0,0,0,0
954,1765227269017,7,-9,0,0,0,0,0,0
955,1765227269025,6,-8,0,0,0,0,0,0
956,1765227269079,5,-8,0,0,0,0,0,0
957,1765227269271,4,-8,1,0,0,0,0,0
958,1765227269461,3,-8,-1,0,0,0,0,0
959,1765227269595,6,-9,0,0,0,0,0,0
960,1765227269779,4,-8,0,0,0,0,0,0
961,1765227269938,3,-8,0,0,0,0,0,0
962,1765227270047,5,-7,0,0,0,0,0,0
963,1765227270339,5,-7,0,0,0,0,0,0
964,1765227270480,6,-7,0,0,0,0,0,0
965,1765227270648,5,-9,0,0,0,0,0,0
966,1765227270780,5,-7,-1,0,0,0,0,0
967,1765227271037,2,-9,0,0,0,0,0,0
968,1765227271179,4,-9,1,0,0,0,0,0
969,1765227271255,9,-7,0,0,0,0,0,0
970,1765227271472,2,-8,0,0,0,0,0,0
971,1765227271622,6,-7,0,0,0,0,0,0
972,1765227274114,7,-9,-1,0,0,0,0,0
973,1765227274287,4,-7,-2,0,0,0,0,0
974,1765227274412,4,-8,-1,0,0,0,0,0
975,1765227274637,4,-8,2,0,0,0,0,0
976,1765227274721,6,-8,0,0,0,0,0,0
977,1765227274954,5,-8,2,0,0,0,0,0
978,1765227275047,3,-8,0,0,0,0,0,0
979,1765227275250,4,-8,0,0,0,0,0,0
980,1765227275370,6,-6,-1,0,0,0,0,0
981,1765227275512,5,-7,1,0,0,0,0,0
982,1765227275704,6,-9,0,0,0,0,0,0
983,1765227275922,5,-9,-1,0,0,0,0,0
984,1765227275995,6,-9,1,0,0,0,0,0
985,1765227276190,3,-8,1,0,0,0,0,0
986,1765227276438,5,-8,1,0,0,0,0,0
987,1765227276680,5,-8,1,0,0,0,0,0
988,1765227276812,7,-6,1,0,0,0,0,0
989,1765227276955,5,-9,1,0,0,0,0,0
990,1765227277103,4,-6,0,0,0,0,0,0
991,1765227277520,6,-11,0,0,0,0,0,0
992,1765227277611,9,-8,1,0,0,0,0,0
993,1765227277816,2,-9,2,0,0,0,0,0
994,1765227278222,4,-6,0,0,0,0,0,0
995,1765227278296,5,-9,0,0,0,0,0,0
996,1765227278526,5,-9,255,0,0,0,0,0
997,1765227278653,6,-8,0,0,0,0,0,0
998,1765227278829,4,-9,0,0,0,0,0,0
999,1765227279000,4,-8,-1,0,0,0,0,0
1000,1765227279367,4,-8,0,0,0,0,0,0
1001,1765227279470,5,-9,0,0,0,0,0,0
1002,1765227279727,4,-9,0,0,0,0,0,0
1003,1765227279869,4,-9,1,0,0,0,0,0
1004,1765227280112,5,-8,0,0,0,0,0,0
1005,1765227280244,4,-9,1,0,0,0,0,0
1006,1765227280410,5,-8,0,0,0,0,0,0
1007,1765227280544,5,-8,0,0,0,0,0,0
1008,1765227280820,4,-9,0,0,0,0,0,0
1009,1765227280886,4,-9,-1,0,0,0,0,0
1010,1765227281237,4,-7,0,0,0,0,0,0
1011,1765227281493,4,-8,0,0,0,0,0,0
1012,1765227282115,6,-8,1,0,0,0,0,0
1013,1765227282136,4,-6,-1,0,0,0,0,0
1014,1765227282169,5,-7,0,0,0,0,0,0
1015,1765227282190,3,-6,0,0,0,0,0,0
1016,1765227282285,6,-7,0,0,0,0,0,0
1017,1765227282386,6,-10,0,0,0,0,0,0
1018,1765227282536,5,-8,0,0,0,0,0,0
1019,1765227282711,6,-7,-1,0,0,0,0,0
1020,1765227282851,5,-8,0,0,0,0,0,0
1021,1765227282986,3,-9,0,0,0,0,0,0
1022,1765227283168,5,-7,-1,0,0,0,0,0
1023,1765227283444,3,-9,0,0,0,0,0,0
1024,1765227283589,4,-9,0,0,0,0,0,0
1025,1765227283688,6,-9,0,0,0,0,0,0
1026,1765227283885,6,-7,0,0,0,0,0,0
1027,1765227284034,4,-9,0,0,0,0,0,0
1028,1765227284327,6,-8,0,0,0,0,0,0
1029,1765227284451,4,-9,0,0,0,0,0,0
1030,1765227284625,5,-8,-1,0,0,0,0,0
1031,1765227284803,3,-8,255,0,0,0,0,0
1032,1765227285102,4,-9,0,0,0,0,0,0
1033,1765227285243,4,-7,0,0,0,0,0,0
1034,1765227285534,2,-8,-2,0,0,0,0,0
1035,1765227285618,4,-7,0,0,0,0,0,0
1036,1765227285817,5,-8,0,0,0,0,0,0
1037,1765227286044,5,-8,0,0,0,0,0,0
1038,1765227286244,4,-7,-1,0,0,0,0,0
1039,1765227286343,4,-6,-1,0,0,0,0,0
1040,1765227286545,4,-7,0,0,0,0,0,0
1041,1765227286735,7,-6,1,0,0,0,0,0
1042,1765227287026,4,-6,0,0,0,0,0,0
1043,1765227287102,5,-9,1,0,0,0,0,0
1044,1765227287234,0,-8,1,0,0,0,0,0
1045,1765227287394,6,-8,1,0,0,0,0,0
1046,1765227287517,7,-11,0,0,0,0,0,0
1047,1765227287753,2,-8,0,0,0,0,0,0
1048,1765227287967,5,-7,0,0,0,0,0,0
1049,1765227288076,5,-8,0,0,0,0,0,0
1050,1765227288253,5,-8,0,0,0,0,0,0
1051,1765227288442,6,-8,1,0,0,0,0,0
1052,1765227288638,4,-8,0,0,0,0,0,0
1053,1765227288860,4,-9,1,0,0,0,0,0
1054,1765227289094,5,-9,0,0,0,0,0,0
1055,1765227289224,5,-8,-1,0,0,0,0,0
1056,1765227289381,4,-8,0,0,0,0,0,0
1057,1765227289498,4,-9,0,0,0,0,0,0
1058,1765227289632,4,-8,0,0,0,0,0,0
1059,1765227289774,3,-8,0,0,0,0,0,0
1060,1765227289950,4,-8,1,0,0,0,0,0
1061,1765227290080,4,-8,0,0,0,0,0,0
1062,1765227290343,4,-9,0,0,0,0,0,0
1063,1765227290436,5,-9,0,0,0,0,0,0
1064,1765227290740,3,-8,0,0,0,0,0,0
1065,1765227290842,6,-8,1,0,0,0,0,0
1066,1765227290924,4,-8,0,0,0,0,0,0
1067,1765227291125,4,-9,1,0,0,0,0,0
1068,1765227291215,4,-9,0,0,0,0,0,0
1069,1765227291433,6,-7,-1,0,0,0,0,0
1070,1765227291642,2,-8,0,0,0,0,0,0
1071,1765227291755,3,-8,1,0,0,0,0,0
1072,1765227291927,5,-9,0,0,0,0,0,0
1073,1765227292000,3,-9,1,0,0,0,0,0
1074,1765227292110,6,-7,0,0,0,0,0,0
1075,1765227292308,6,-9,0,0,0,0,0,0
1076,1765227293076,5,-8,1,0,0,0,0,0
1077,1765227293116,4,-7,1,0,0,0,0,0
1078,1765227293127,6,-9,0,0,0,0,0,0
1079,1765227293171,5,-8,0,0,0,0,0,0
1080,1765227293251,4,-7,0,0,0,0,0,0
1081,1765227293460,3,-9,-1,0,0,0,0,0
1082,1765227293580,5,-6,0,0,0,0,0,0
1083,1765227293797,3,-7,0,0,0,0,0,0
1084,1765227293946,-5,16,1,0,0,0,0,0
1085,1765227294265,4,7,5,0,0,0,0,0
1086,1765227294338,11,-32,-6,0,0,0,0,0
1087,1765227294640,5,-16,1,0,0,0,0,0
1088,1765227294699,12,-12,2,0,0,0,0,0
1089,1765227294947,5,-17,-8,0,0,0,0,0
1090,1765227295107,10,-25,-4,0,0,0,0,0
1091,1765227295360,7,-21,-13,0,0,0,0,0
1092,1765227295476,8,-33,16,0,0,0,0,0
1093,1765227295715,-6,-21,11,0,0,0,0,0
1094,1765227296001,3,-9,-7,0,0,0,0,0
1095,1765227296110,-3,-12,9,0,0,0,0,0
1096,1765227296348,15,7,14,0,0,0,0,0
1097,1765227296498,-8,164,6,0,0,0,0,0
1098,1765227296742,-3,252,-9,0,0,0,0,0
1099,1765227296827,52,280,-50,0,0,0,0,0
1100,1765227297042,-14,425,-58,0,0,0,0,0
1101,1765227297212,21,415,-22,0,0,0,0,0
1102,1765227297507,21,433,-38,0,0,0,0,0
1103,1765227297606,13,435,-14,0,0,0,0,0
1104,1765227297678,6,450,-42,0,0,0,0,0
1105,1765227297895,18,445,-2,0,0,0,0,0
1106,1765227297966,5,463,-12,0,0,0,0,0
1107,1765227298205,-2,433,-54,0,0,0,0,0
1108,1765227298393,-21,494,-25,0,0,0,0,0
1109,1765227298630,9,470,-22,0,0,0,0,0
1110,1765227298725,13,511,-45,0,0,0,0,0
1111,1765227299005,30,428,-18,0,0,0,0,0
1112,1765227299134,-9,447,-49,0,0,0,0,0
1113,1765227299382,-5,414,-5,0,0,0,0,0
1114,1765227299564,-28,240,-28,0,0,0,0,0
1115,1765227299760,8,216,-28,0,0,0,0,0
1116,1765227299961,17,236,11,0,0,0,0,0
1117,1765227300092,-44,236,10,0,0,0,0,0
1118,1765227300179,-30,165,-45,0,0,0,0,0
1119,1765227300299,14,148,26,0,0,0,0,0
1120,1765227300475,-1,140,-27,0,0,0,0,0
1121,1765227300762,-37,99,-32,0,0,0,0,0
1122,1765227300916,42,-55,61,0,0,0,0,0
1123,1765227301146,26,-26,14,0,0,0,0,0
1124,1765227301222,1,-20,-27,0,0,0,0,0
1125,1765227301460,-22,-35,-15,0,0,0,0,0
1126,1765227301597,-9,-14,-7,0,0,0,0,0
1127,1765227301859,-29,-28,30,0,0,0,0,0
1128,1765227301924,18,-30,-14,0,0,0,0,0
1129,1765227302157,-7,-16,-13,0,0,0,0,0
1130,1765227302299,-14,-1,9,0,0,0,0,0
1131,1765227302612,3,-8,0,0,0,0,0,0
1132,1765227302724,24,99,-7,0,0,0,0,0
1133,1765227302847,-13,108,-7,0,0,0,0,0
1134,1765227303018,-14,128,-7,0,0,0,0,0
1135,1765227303187,5,124,28,0,0,0,0,0
1136,1765227303403,-35,130,13,0,0,0,0,0
1137,1765227303480,37,121,16,0,0,0,0,0
1138,1765227304110,18,103,-19,0,0,0,0,0
1139,1765227304132,-25,103,2,0,0,0,0,0
1140,1765227304174,23,91,-23,0,0,0,0,0
1141,1765227304250,-44,112,-39,0,0,0,0,0
1142,1765227304464,26,76,2,0,0,0,0,0
1143,1765227304614,30,-31,-22,0,0,0,0,0
1144,1765227304809,2,-47,-22,0,0,0,0,0
1145,1765227304955,39,-84,-4,0,0,0,0,0
1146,1765227305313,-7,-305,-19,0,0,0,0,0
1147,1765227305458,45,-304,15,0,0,0,0,0
1148,1765227305608,-5,-299,9,0,0,0,0,0
1149,1765227306060,21,102,20,0,0,0,0,0
1150,1765227306208,123,159,-73,0,0,0,0,0
1151,1765227306349,62,139,-5,0,0,0,0,0
1152,1765227306430,63,-87,117,0,0,0,0,0
1153,1765227306490,-109,-190,67,0,0,0,0,0
1154,1765227306760,-15,-353,14,0,0,0,0,0
1155,1765227306883,-34,-440,-110,0,0,0,0,0
1156,1765227307048,77,-465,22,0,0,0,0,0
1157,1765227307134,101,-541,-23,0,0,0,0,0
1158,1765227307206,57,-522,-3,0,0,0,0,0
1159,1765227307486,41,-532,-32,0,0,0,0,0
1160,1765227307903,61,-479,38,0,0,0,0,0
1161,1765227308010,27,-476,15,0,0,0,0,0
1162,1765227308195,30,-452,46,0,0,0,0,0
1163,1765227308339,-2,-396,37,0,0,0,0,0
1164,1765227308624,2,-387,-1,0,0,0,0,0
1165,1765227308740,4,-383,29,0,0,0,0,0
1166,1765227308919,-14,-362,21,0,0,0,0,0
1167,1765227308972,20,-298,22,0,0,0,0,0
1168,1765227309062,2,-320,20,0,0,0,0,0
1169,1765227309371,28,-290,14,0,0,0,0,0
1170,1765227309524,-15,-266,32,0,0,0,0,0
1171,1765227309753,37,-74,-14,0,0,0,0,0
1172,1765227309823,-29,-332,22,0,0,0,0,0
1173,1765227310087,8,-113,-28,0,0,0,0,0
1174,1765227310249,0,-207,36,0,0,0,0,0
1175,1765227310481,5,-255,31,0,0,0,0,0
1176,1765227310603,11,-234,12,0,0,0,0,0
1177,1765227310844,23,-252,47,0,0,0,0,0
1178,1765227311069,21,-265,-2,0,0,0,0,0
1179,1765227311234,47,-203,10,0,0,0,0,0
1180,1765227311629,19,-68,30,0,0,0,0,0
1181,1765227311718,-31,-72,2,0,0,0,0,0
1182,1765227311959,20,-86,-10,0,0,0,0,0
1183,1765227312084,7,-31,1,0,0,0,0,0
1184,1765227312279,1,1,-2,0,0,0,0,0
1185,1765227312386,6,-9,4,0,0,0,0,0
1186,1765227312829,7,-9,0,0,0,0,0,0
1187,1765227313029,0,-5,2,0,0,0,0,0
1188,1765227313126,4,-7,6,0,0,0,0,0
1189,1765227313492,2,-56,5,0,0,0,0,0
1190,1765227313688,16,-46,6,0,0,0,0,0
1191,1765227313825,1,-51,12,0,0,0,0,0
1192,1765227313964,3,-50,25,0,0,0,0,0
1193,1765227314197,4,-53,15,0,0,0,0,0
1194,1765227315009,26,-62,-17,0,0,0,0,0
1195,1765227315025,-5,-62,-7,0,0,0,0,0
1196,1765227315042,-2,-66,10,0,0,0,0,0
1197,1765227315075,4,-62,9,0,0,0,0,0
1198,1765227315095,-15,-64,1,0,0,0,0,0
1199,1765227315192,16,-68,-2,0,0,0,0,0
1200,1765227315375,4,-66,6,0,0,0,0,0
1201,1765227315551,15,-67,8,0,0,0,0,0
1202,1765227315679,1,-66,-3,0,0,0,0,0
1203,1765227316125,10,-65,8,0,0,0,0,0
1204,1765227316273,10,-77,3,0,0,0,0,0
1205,1765227316424,11,-70,-25,0,0,0,0,0
1206,1765227316549,7,-74,-15,0,0,0,0,0
1207,1765227316748,7,-76,10,0,0,0,0,0
1208,1765227316889,14,-60,-2,0,0,0,0,0
1209,1765227317046,3,8,18,0,0,0,0,0
1210,1765227317256,-11,17,-13,0,0,0,0,0
1211,1765227317380,0,13,-24,0,0,0,0,0
1212,1765227317539,-1,31,-4,0,0,0,0,0
1213,1765227317683,-34,29,16,0,0,0,0,0
1214,1765227317987,-19,37,18,0,0,0,0,0
1215,1765227318079,-9,31,-56,0,0,0,0,0
1216,1765227318289,1,11,6,0,0,0,0,0
1217,1765227318414,-34,69,3,0,0,0,0,0
1218,1765227318681,6,52,-15,0,0,0,0,0
1219,1765227318760,-9,12,14,0,0,0,0,0
1220,1765227318918,105,72,-4,0,0,0,0,0
1221,1765227319115,-51,132,-17,0,0,0,0,0
1222,1765227319237,-28,-100,1,0,0,0,0,0
1223,1765227319487,94,68,-16,0,0,0,0,0
1224,1765227319619,4,138,-18,0,0,0,0,0
1225,1765227319861,-49,-42,-5,0,0,0,0,0
1226,1765227319955,78,9,-16,0,0,0,0,0
1227,1765227320276,-37,2,-21,0,0,0,0,0
1228,1765227320464,90,34,16,0,0,0,0,0
1229,1765227320605,-21,-48,16,0,0,0,0,0
1230,1765227320922,74,84,-22,0,0,0,0,0
1231,1765227321030,-37,-45,39,0,0,0,0,0
1232,1765227321330,34,-108,-5,0,0,0,0,0
1233,1765227321464,-11,-171,-12,0,0,0,0,0
1234,1765227321597,36,-194,14,0,0,0,0,0
1235,1765227321757,-5,-259,20,0,0,0,0,0
1236,1765227321931,11,-258,4,0,0,0,0,0
1237,1765227322072,15,-342,12,0,0,0,0,0
1238,1765227322230,58,-376,24,0,0,0,0,0
1239,1765227322473,71,-359,31,0,0,0,0,0
1240,1765227322538,100,-373,66,0,0,0,0,0
1241,1765227322613,48,-386,13,0,0,0,0,0
1242,1765227322697,6,-404,12,0,0,0,0,0
1243,1765227322904,254,-433,27,0,0,0,0,0
1244,1765227323145,31,-393,27,0,0,0,0,0
1245,1765227323289,76,-229,16,0,0,0,0,0
1246,1765227323405,9,-195,8,0,0,0,0,0
1247,1765227323620,12,-236,19,0,0,0,0,0
1248,1765227323708,81,-224,-6,0,0,0,0,0
1249,1765227324022,-2,-216,-2,0,0,0,0,0
1250,1765227324138,11,-198,10,0,0,0,0,0
1251,1765227324297,-18,-187,19,0,0,0,0,0
1252,1765227324548,20,-107,10,0,0,0,0,0
1253,1765227324622,-25,-125,9,0,0,0,0,0
1254,1765227324905,-36,-89,-27,0,0,0,0,0
1255,1765227325082,18,-36,-6,0,0,0,0,0
1256,1765227325313,26,15,-24,0,0,0,0,0
1257,1765227325894,-26,16,-23,0,0,0,0,0
1258,1765227325923,-3,11,-15,0,0,0,0,0
1259,1765227325957,-31,9,-36,0,0,0,0,0
1260,1765227325982,43,14,-5,0,0,0,0,0
1261,1765227326084,47,-1,-10,0,0,0,0,0
1262,1765227326227,3,7,0,0,0,0,0,0
1263,1765227326476,-3,-10,5,0,0,0,0,0
1264,1765227326671,6,3,-30,0,0,0,0,0
1265,1765227326910,-256,-9,-9,0,0,0,0,0
1266,1765227327028,3,-8,-6,0,0,0,0,0
1267,1765227327202,3,-8,-1,0,0,0,0,0
1268,1765227327311,4,-9,-2,0,0,0,0,0
1269,1765227327585,5,-10,0,0,0,0,0,0
1270,1765227327761,1,-8,0,0,0,0,0,0
1271,1765227327945,8,-12,0,0,0,0,0,0
1272,1765227328053,5,-8,0,0,0,0,0,0
1273,1765227328112,5,-9,0,0,0,0,0,0
1274,1765227328185,5,-8,1,0,0,0,0,0
1275,1765227328495,6,-9,-1,0,0,0,0,0
1276,1765227328703,3,-10,0,0,0,0,0,0
1277,1765227328863,4,-9,0,0,0,0,0,0
1278,1765227328937,5,-8,-1,0,0,0,0,0
1279,1765227329161,4,-9,-1,0,0,0,0,0
1280,1765227329319,6,-9,-1,0,0,0,0,0
1281,1765227329494,3,-8,0,0,0,0,0,0
1282,1765227329618,5,-8,0,0,0,0,0,0
1283,1765227329826,4,-9,0,0,0,0,0,0
1284,1765227329985,3,-9,0,0,0,0,0,0
1285,1765227330194,3,-8,0,0,0,0,0,0
1286,1765227330352,4,-8,0,0,0,0,0,0
1287,1765227330536,7,-9,-256,0,0,0,0,0
1288,1765227330718,6,-8,0,0,0,0,0,0
1289,1765227330777,5,-8,1,0,0,0,0,0
1290,1765227331051,4,-9,-1,0,0,0,0,0
1291,1765227331161,4,-7,0,0,0,0,0,0
1292,1765227331193,5,-8,1,0,0,0,0,0
1293,1765227331352,6,-9,0,0,0,0,0,0
1294,1765227331486,8,-7,-1,0,0,0,0,0
1295,1765227331768,4,-8,1,0,0,0,0,0
1296,1765227331910,10,-11,0,0,0,0,0,0
1297,1765227332152,2,-7,0,0,0,0,0,0
1298,1765227332253,2,-9,1,0,0,0,0,0
1299,1765227332635,5,-8,0,0,0,0,0,0
1300,1765227332827,6,-9,1,0,0,0,0,0
1301,1765227332976,5,-8,255,0,0,0,0,0
1302,1765227333102,3,-10,-1,0,0,0,0,0
1303,1765227333301,5,-9,0,0,0,0,0,0
1304,1765227333401,5,-9,0,0,0,0,0,0
1305,1765227333826,3,-9,-1,0,0,0,0,0
1306,1765227694147,5,-10,0,0,0,0,0,0
1307,1765227694323,8,-9,0,0,0,0,0,0
1308,1765227694438,6,-10,-1,0,0,0,0,0
1309,1765227694664,6,-10,-256,0,0,0,0,0
1310,1765227694732,6,-11,1,0,0,0,0,0
1311,1765227694980,5,-9,-1,0,0,0,0,0
1312,1765227695055,6,-11,-2,0,0,0,0,0
1313,1765227695288,4,-10,-1,0,0,0,0,0
1314,1765227695380,6,-10,0,0,0,0,0,0
1315,1765227695506,7,-9,0,0,0,0,0,0
1316,1765227695713,7,-11,-1,0,0,0,0,0
1317,1765227695889,8,-11,-1,0,0,0,0,0
1318,1765227696006,5,-10,0,0,0,0,0,0
1319,1765227696097,6,-10,-2,0,0,0,0,0
1320,1765227696172,6,-10,-2,0,0,0,0,0
1321,1765227697033,5,-9,0,0,0,0,0,0
1322,1765227697060,7,-9,0,0,0,0,0,0
1323,1765227697099,7,-11,-1,0,0,0,0,0
1324,1765227697105,7,-10,0,0,0,0,0,0
1325,1765227697153,4,-9,0,0,0,0,0,0
1326,1765227697255,7,-10,0,0,0,0,0,0
1327,1765227697373,7,-9,0,0,0,0,0,0
1328,1765227697581,6,-9,-2,0,0,0,0,0
1329,1765227697717,7,-10,0,0,0,0,0,0
1330,1765227697874,5,-9,-1,0,0,0,0,0
1331,1765227698007,4,-8,-1,0,0,0,0,0
1332,1765227698299,5,-7,-2,0,0,0,0,0
1333,1765227698383,3,-13,-1,0,0,0,0,0
1334,1765227698742,5,-9,0,0,0,0,0,0
1335,1765227698825,8,-8,-1,0,0,0,0,0
1336,1765227699066,5,-11,0,0,0,0,0,0
1337,1765227699201,6,-11,-1,0,0,0,0,0
1338,1765227699298,7,-11,-1,0,0,0,0,0
1339,1765227699490,5,-10,-1,0,0,0,0,0
1340,1765227699625,5,-9,1,0,0,0,0,0
1341,1765227699907,5,-11,0,0,0,0,0,0
1342,1765227700158,4,-10,-1,0,0,0,0,0
1343,1765227700282,6,-9,0,0,0,0,0,0
1344,1765227700399,5,-10,0,0,0,0,0,0
1345,1765227700498,7,-9,-1,0,0,0,0,0
1346,1765227700682,6,-10,-1,0,0,0,0,0
1347,1765227700850,7,-8,-256,0,0,0,0,0
1348,1765227701091,6,-10,1,0,0,0,0,0
1349,1765227701191,6,-10,-1,0,0,0,0,0
1350,1765227701374,6,-10,-1,0,0,0,0,0
1351,1765227701483,6,-10,-1,0,0,0,0,0
1352,1765227701615,5,-10,0,0,0,0,0,0
1353,1765227701725,6,-9,0,0,0,0,0,0
1354,1765227701976,5,-9,-1,0,0,0,0,0
1355,1765227702148,5,-10,0,0,0,0,0,0
1356,1765227702216,6,-10,-1,0,0,0,0,0
1357,1765227702391,6,-10,0,0,0,0,0,0
1358,1765227702490,4,-11,-1,0,0,0,0,0
1359,1765227702707,7,-11,-1,0,0,0,0,0
1360,1765227702890,7,-8,-1,0,0,0,0,0
1361,1765227703115,7,-10,-1,0,0,0,0,0
1362,1765227703188,6,-10,0,0,0,0,0,0
1363,1765227703406,6,-7,0,0,0,0,0,0
1364,1765227703449,5,-10,0,0,0,0,0,0
1365,1765227703600,5,-8,0,0,0,0,0,0
1366,1765227703889,5,-11,0,0,0,0,0,0
1367,1765227703972,7,-9,0,0,0,0,0,0
1368,1765227704082,5,-9,0,0,0,0,0,0
1369,1765227704224,5,-10,-1,0,0,0,0,0
1370,1765227704382,6,-10,0,0,0,0,0,0
1371,1765227704557,5,-9,0,0,0,0,0,0
1372,1765227704791,4,-10,0,0,0,0,0,0
1373,1765227704873,7,-10,-1,0,0,0,0,0
1374,1765227705079,8,-10,0,0,0,0,0,0
1375,1765227705138,5,-9,0,0,0,0,0,0
1376,1765227705248,5,-10,0,0,0,0,0,0
1377,1765227705409,7,-10,-1,0,0,0,0,0
1378,1765227705623,4,-11,0,0,0,0,0,0
1379,1765227705865,7,-10,-1,0,0,0,0,0
1380,1765227706040,5,-10,-1,0,0,0,0,0
1381,1765227706148,6,-9,0,0,0,0,0,0
1382,1765227706323,4,-9,0,0,0,0,0,0
1383,1765227706498,8,-9,1,0,0,0,0,0
1384,1765227706739,6,-10,0,0,0,0,0,0
1385,1765227706839,5,-10,0,0,0,0,0,0
1386,1765227707015,4,-10,-256,0,0,0,0,0
1387,1765227707239,6,-9,0,0,0,0,0,0
1388,1765227707365,5,-10,-1,0,0,0,0,0
1389,1765227707966,5,-9,-1,0,0,0,0,0
1390,1765227707984,7,-10,-1,0,0,0,0,0
1391,1765227707996,5,-9,0,0,0,0,0,0
1392,1765227708047,7,-11,0,0,0,0,0,0
1393,1765227708081,5,-10,-1,0,0,0,0,0
1394,1765227708284,7,-11,0,0,0,0,0,0
1395,1765227708517,8,-11,0,0,0,0,0,0
1396,1765227708667,5,-9,-1,0,0,0,0,0
1397,1765227708808,6,-10,0,0,0,0,0,0
1398,1765227708875,5,-10,-1,0,0,0,0,0
1399,1765227708967,5,-9,0,0,0,0,0,0
1400,1765227709216,6,-9,-1,0,0,0,0,0
1401,1765227709433,6,-10,-1,0,0,0,0,0
1402,1765227709649,7,-10,-1,0,0,0,0,0
1403,1765227709725,5,-10,-1,0,0,0,0,0
1404,1765227709943,4,-10,0,0,0,0,0,0
1405,1765227710100,6,-9,1,0,0,0,0,0
1406,1765227710333,6,-10,-1,0,0,0,0,0
1407,1765227710425,6,-10,0,0,0,0,0,0
1408,1765227710658,5,-9,0,0,0,0,0,0
1409,1765227710801,5,-10,-1,0,0,0,0,0
1410,1765227711059,6,-9,0,0,0,0,0,0
1411,1765227711174,6,-8,-1,0,0,0,0,0
1412,1765227711525,9,-9,-1,0,0,0,0,0
1413,1765227711642,5,-9,-2,0,0,0,0,0
1414,1765227711857,6,-10,0,0,0,0,0,0
1415,1765227711999,7,-8,-2,0,0,0,0,0
1416,1765227712241,6,-10,1,0,0,0,0,0
1417,1765227712325,5,-10,1,0,0,0,0,0
1418,1765227712758,5,-8,-1,0,0,0,0,0
1419,1765227712999,5,-9,-1,0,0,0,0,0
1420,1765227713133,6,-9,0,0,0,0,0,0
1421,1765227713300,4,-9,0,0,0,0,0,0
1422,1765227713433,5,-10,0,0,0,0,0,0
1423,1765227713708,6,-9,0,0,0,0,0,0
1424,1765227713775,6,-10,0,0,0,0,0,0
1425,1765227713866,6,-10,1,0,0,0,0,0
1426,1765227713974,6,-10,1,0,0,0,0,0
1427,1765227714149,6,-7,-3,0,0,0,0,0
1428,1765227714600,6,-9,-1,0,0,0,0,0
1429,1765227714707,5,-10,0,0,0,0,0,0
1430,1765227714891,9,-11,1,0,0,0,0,0
1431,1765227715032,8,-11,0,0,0,0,0,0
1432,1765227715232,7,-11,1,0,0,0,0,0
1433,1765227715357,4,-9,-2,0,0,0,0,0
1434,1765227715583,5,-9,-2,0,0,0,0,0
1435,1765227715730,6,-10,-1,0,0,0,0,0
1436,1765227715906,7,-10,-1,0,0,0,0,0
1437,1765227716122,4,-11,0,0,0,0,0,0
1438,1765227716333,6,-8,-1,0,0,0,0,0
1439,1765227716473,5,-10,1,0,0,0,0,0
1440,1765227716699,5,-10,-1,0,0,0,0,0
1441,1765227716772,5,-11,1,0,0,0,0,0
1442,1765227717190,6,-10,0,0,0,0,0,0
1443,1765227717324,6,-9,0,0,0,0,0,0
1444,1765227717483,5,-11,1,0,0,0,0,0
1445,1765227717615,5,-8,-2,0,0,0,0,0
1446,1765227717915,5,-8,-1,0,0,0,0,0
1447,1765227718057,5,-9,-1,0,0,0,0,0
1448,1765227718280,6,-9,0,0,0,0,0,0
1449,1765227718958,6,-10,1,0,0,0,0,0
1450,1765227719004,4,-10,0,0,0,0,0,0
1451,1765227719036,7,-8,-1,0,0,0,0,0
1452,1765227719078,5,-9,0,0,0,0,0,0
1453,1765227719105,7,-10,-1,0,0,0,0,0
1454,1765227719280,5,-8,0,0,0,0,0,0
1455,1765227719447,7,-8,-1,0,0,0,0,0
1456,1765227719700,4,-8,0,0,0,0,0,0
1457,1765227719813,6,-10,0,0,0,0,0,0
1458,1765227720189,3,-8,-1,0,0,0,0,0
1459,1765227720306,9,-11,-1,0,0,0,0,0
1460,1765227720514,4,-9,1,0,0,0,0,0
1461,1765227720846,4,-9,1,0,0,0,0,0
1462,1765227720939,6,-8,0,0,0,0,0,0
1463,1765227721249,3,-9,-1,0,0,0,0,0
1464,1765227721389,5,-8,1,0,0,0,0,0
1465,1765227721589,7,-9,0,0,0,0,0,0
1466,1765227721689,6,-10,-2,0,0,0,0,0
1467,1765227722070,6,-10,0,0,0,0,0,0
1468,1765227722313,5,-7,-1,0,0,0,0,0
1469,1765227722422,4,-9,0,0,0,0,0,0
1470,1765227722630,6,-12,0,0,0,0,0,0
1471,1765227722797,3,-5,0,0,0,0,0,0
1472,1765227723105,-58,-14,16,0,0,0,0,0
1473,1765227723255,81,-11,-67,0,0,0,0,0
1474,1765227723405,2,-10,25,0,0,0,0,0
1475,1765227723548,41,-15,-5,0,0,0,0,0
1476,1765227723980,6,-8,-4,0,0,0,0,0
1477,1765227724121,-5,-8,-3,0,0,0,0,0
1478,1765227724272,5,-8,2,0,0,0,0,0
1479,1765227724414,-6,-4,12,0,0,0,0,0
1480,1765227724730,-8,-13,-3,0,0,0,0,0
1481,1765227724915,6,-2,11,0,0,0,0,0
1482,1765227725105,2,-1,1,0,0,0,0,0
1483,1765227725224,10,-17,2,0,0,0,0,0
1484,1765227725398,-9,16,6,0,0,0,0,0
1485,1765227725638,-11,-2,3,0,0,0,0,0
1486,1765227725813,13,-2,16,0,0,0,0,0
1487,1765227725946,26,7,9,0,0,0,0,0
1488,1765227726105,-5,-12,14,0,0,0,0,0
1489,1765227726548,-10,-6,10,0,0,0,0,0
1490,1765227726691,28,11,-10,0,0,0,0,0
1491,1765227726837,-8,3,-18,0,0,0,0,0
1492,1765227726905,-20,7,1,0,0,0,0,0
1493,1765227726981,-10,9,17,0,0,0,0,0
1494,1765227727247,2,11,-14,0,0,0,0,0
1495,1765227727363,0,6,-21,0,0,0,0,0
1496,1765227727572,-1,9,-8,0,0,0,0,0
1497,1765227727699,2,13,-22,0,0,0,0,0
1498,1765227727961,7,43,6,0,0,0,0,0
1499,1765227728156,-14,137,-23,0,0,0,0,0
1500,1765227728396,-5,147,-39,0,0,0,0,0
1501,1765227728462,12,116,-8,0,0,0,0,0
1502,1765227728692,-3,124,-22,0,0,0,0,0
1503,1765227728838,7,-64,38,0,0,0,0,0
1504,1765227729107,27,-80,4,0,0,0,0,0
1505,1765227729166,105,-82,4,0,0,0,0,0
1506,1765227729853,51,-113,35,0,0,0,0,0
1507,1765227729915,61,-119,250,0,0,0,0,0
1508,1765227729940,11,-2436,25096,0,0,0,0,0
1509,1765227730177,28,-154,4,0,0,0,0,0
1510,1765227730270,24,-146,50,0,0,0,0,0
1511,1765227730538,30,-192,15,0,0,0,0,0
1512,1765227730622,52,-171,17,0,0,0,0,0
1513,1765227730653,39,-195,21,0,0,0,0,0
1514,1765227730794,12,-229,1,0,0,0,0,0
1515,1765227730946,29,-257,3,0,0,0,0,0
1516,1765227731136,4,-215,6,0,0,0,0,0
1517,1765227731320,-18,-254,-14,0,0,0,0,0
1518,1765227731562,23,-254,3,0,0,0,0,0
1519,1765227731698,-7,-228,33,0,0,0,0,0
1520,1765227731894,-9,-234,10,0,0,0,0,0
1521,1765227732188,57,-212,9,0,0,0,0,0
1522,1765227732395,-48,-241,-6,0,0,0,0,0
1523,1765227732695,34,-305,19,0,0,0,0,0
1524,1765227732820,-1,-264,-3,0,0,0,0,0
1525,1765227733127,12,-286,-18,0,0,0,0,0
1526,1765227733269,18,-329,13,0,0,0,0,0
1527,1765227733419,-92,-169,-19,0,0,0,0,0
1528,1765227733563,75,-224,41,0,0,0,0,0
1529,1765227733944,-22,-125,9,0,0,0,0,0
1530,1765227734087,-93,-14,-26,0,0,0,0,0
1531,1765227734269,148,-165,89,0,0,0,0,0
1532,1765227734427,-74,-24782,109,0,0,0,0,0
1533,1765227734610,-2,-135,-8,0,0,0,0,0
1534,1765227734794,-5,-61,6,0,0,0,0,0
1535,1765227735169,29,-281,-6,0,0,0,0,0
1536,1765227735311,21,-290,4,0,0,0,0,0
1537,1765227735461,23,-299,25,0,0,0,0,0
1538,1765227735802,1,-247,7,0,0,0,0,0
1539,1765227735919,-4,-224,3,0,0,0,0,0
1540,1765227736128,10,-197,0,0,0,0,0,0
1541,1765227736219,-33,-229,-37,0,0,0,0,0
1542,1765227736227,-94,-191,5,0,0,0,0,0
1543,1765227736335,47,-163,14,0,0,0,0,0
1544,1765227736643,26,-191,7,0,0,0,0,0
1545,1765227736744,-17,-167,-40,0,0,0,0,0
1546,1765227736919,-24,-198,24,0,0,0,0,0
1547,1765227737068,23,-174,35,0,0,0,0,0
1548,1765227737236,-25,-162,-27,0,0,0,0,0
1549,1765227737393,15,-184,70,0,0,0,0,0
1550,1765227737535,8,-146,22,0,0,0,0,0
1551,1765227737734,-13,-152,23,0,0,0,0,0
1552,1765227737827,-81,-161,3,0,0,0,0,0
1553,1765227738061,49,-173,49,0,0,0,0,0
1554,1765227738168,36,-182,3,0,0,0,0,0
1555,1765227738384,22,-156,-12,0,0,0,0,0
1556,1765227738554,7,-139,35,0,0,0,0,0
1557,1765227738702,-8,-161,4,0,0,0,0,0
1558,1765227738785,-25,-1,-39,0,0,0,0,0
1559,1765227739146,22,-23,-12,0,0,0,0,0
1560,1765227739278,2,-17,45,0,0,0,0,0
1561,1765227739392,48,6,-52,0,0,0,0,0
1562,1765227739525,3,-19,53,0,0,0,0,0
1563,1765227739701,-60,4,-28,0,0,0,0,0
1564,1765227739843,59,41,59,0,0,0,0,0
1565,1765227740182,-72,254,209,0,0,0,0,0
1566,1765227740814,44,287,-2,0,0,0,0,0
1567,1765227740831,-55,309,28,0,0,0,0,0
1568,1765227740858,18,405,-61,0,0,0,0,0
1569,1765227740880,100,427,-23,0,0,0,0,0
1570,1765227740905,58,402,-131,0,0,0,0,0
1571,1765227741043,-36,354,29,0,0,0,0,0
1572,1765227741284,2,125,-28,0,0,0,0,0
1573,1765227741393,-28,83,-28,0,0,0,0,0
1574,1765227741576,-8,64,12,0,0,0,0,0
1575,1765227741677,10,25,-11,0,0,0,0,0
1576,1765227741786,-6,-30,3,0,0,0,0,0
1577,1765227741852,0,0,4,0,0,0,0,0
1578,1765227742160,3,-23,10,0,0,0,0,0
1579,1765227742301,8,-9,-6,0,0,0,0,0
1580,1765227742552,3,-7,1,0,0,0,0,0
1581,1765227742619,7,-9,1,0,0,0,0,0
1582,1765227742868,4,-13,-1,0,0,0,0,0
1583,1765227742944,4,-9,0,0,0,0,0,0
1584,1765227743076,4,-8,1,0,0,0,0,0
1585,1765227743309,6,-11,0,0,0,0,0,0
1586,1765227743385,4,-10,-1,0,0,0,0,0
1587,1765227743821,4,-8,-1,0,0,0,0,0
1588,1765227744060,4,-7,-1,0,0,0,0,0
1589,1765227744126,6,-11,1,0,0,0,0,0
1590,1765227744209,6,-8,0,0,0,0,0,0
1591,1765227744353,5,-11,0,0,0,0,0,0
1592,1765227744501,6,-9,-1,0,0,0,0,0
1593,1765227744727,4,-9,0,0,0,0,0,0
1594,1765227744877,3,-9,0,0,0,0,0,0
1595,1765227744953,4,-9,-2,0,0,0,0,0
1596,1765227745185,4,-9,-1,0,0,0,0,0
1597,1765227745434,5,-9,1,0,0,0,0,0
1598,1765227745635,4,-7,-1,0,0,0,0,0
1599,1765227745694,4,-9,0,0,0,0,0,0
1600,1765227745926,5,-8,1,0,0,0,0,0
1601,1765227746060,4,-8,0,0,0,0,0,0
1602,1765227746201,4,-10,0,0,0,0,0,0
1603,1765227746385,5,-7,0,0,0,0,0,0
1604,1765227746609,6,-8,0,0,0,0,0,0
1605,1765227746759,5,-7,0,0,0,0,0,0
1606,1765227746868,4,-8,1,0,0,0,0,0
1607,1765227747134,6,-9,0,0,0,0,0,0
1608,1765227747517,5,-9,-1,0,0,0,0,0
1609,1765227747634,6,-9,-1,0,0,0,0,0
1610,1765227747800,5,-8,0,0,0,0,0,0
1611,1765227747942,4,-9,1,0,0,0,0,0
1612,1765227748192,5,-8,-1,0,0,0,0,0
1613,1765227748268,4,-9,0,0,0,0,0,0
1614,1765227748501,5,-8,0,0,0,0,0,0
1615,1765227748644,5,-8,0,0,0,0,0,0
1616,1765227748751,5,-9,0,0,0,0,0,0
1617,1765227749000,4,-9,0,0,0,0,0,0
1618,1765227749375,6,-9,1,0,0,0,0,0
1619,1765227749492,5,-10,0,0,0,0,0,0
1620,1765227749701,5,-9,0,0,0,0,0,0
1621,1765227749842,6,-9,-1,0,0,0,0,0
1622,1765227750075,4,-7,0,0,0,0,0,0
1623,1765227750150,3,-9,0,0,0,0,0,0
1624,1765227750392,3,-9,-1,0,0,0,0,0
1625,1765227750542,7,-10,-1,0,0,0,0,0
1626,1765227750825,6,-10,1,0,0,0,0,0
1627,1765227750927,6,-9,-1,0,0,0,0,0
1628,1765227751109,4,-9,1,0,0,0,0,0
1629,1765227751779,4,-8,2,0,0,0,0,0
1630,1765227751823,5,-10,0,0,0,0,0,0
1631,1765227751849,5,-8,-1,0,0,0,0,0
1632,1765227751866,5,-10,0,0,0,0,0,0
1633,1765227751883,8,-9,-1,0,0,0,0,0
1634,1765227751968,5,-9,1,0,0,0,0,0
1635,1765227752109,2,-10,-1,0,0,0,0,0
1636,1765227752478,7,-7,1,0,0,0,0,0
1637,1765227752710,2,-11,2,0,0,0,0,0
1638,1765227752819,5,-9,-3,0,0,0,0,0
1639,1765227753001,2,-10,-1,0,0,0,0,0
1640,1765227753144,3,-8,0,0,0,0,0,0
1641,1765227753385,7,-9,0,0,0,0,0,0
1642,1765227753460,4,-7,-1,0,0,0,0,0
1643,1765227753546,6,-11,0,0,0,0,0,0
1644,1765227753653,4,-9,0,0,0,0,0,0
1645,1765227753829,5,-9,1,0,0,0,0,0
1646,1765227754277,6,-11,0,0,0,0,0,0
1647,1765227754411,6,-10,-1,0,0,0,0,0
1648,1765227754568,6,-8,0,0,0,0,0,0
1649,1765227754985,13,56,-4,0,0,0,0,0
1650,1765227755102,-29,67,-5,0,0,0,0,0
1651,1765227755275,2,80,-13,0,0,0,0,0
1652,1765227755594,19,-12,-3,0,0,0,0,0
1653,1765227755793,8,-44,-16,0,0,0,0,0
1654,1765227756001,-1,-62,-20,0,0,0,0,0
1655,1765227756034,19,11,-8,0,0,0,0,0
1656,1765227756151,48,118,13,0,0,0,0,0
1657,1765227756359,26,184,-14,0,0,0,0,0
1658,1765227756476,1,263,9,0,0,0,0,0
1659,1765227756734,-9,462,-5,0,0,0,0,0
1660,1765227756859,-18,479,16,0,0,0,0,0
1661,1765227757085,-54,510,-53,0,0,0,0,0
1662,1765227757510,-33,523,-40,0,0,0,0,0
1663,1765227757610,-15,530,14,0,0,0,0,0
1664,1765227757835,-6,556,-16,0,0,0,0,0
1665,1765227757976,-4,587,-86,0,0,0,0,0
1666,1765227758309,35,610,-15,0,0,0,0,0
1667,1765227758686,-39,627,-87,0,0,0,0,0
1668,1765227758853,29,587,-23,0,0,0,0,0
1669,1765227759068,-1,638,-27,0,0,0,0,0
1670,1765227759310,-31,682,-48,0,0,0,0,0
1671,1765227759443,-35,699,-72,0,0,0,0,0
1672,1765227759687,-7,689,-26,0,0,0,0,0
1673,1765227759834,-43,621,-66,0,0,0,0,0
1674,1765227760084,4,568,-43,0,0,0,0,0
1675,1765227760177,0,526,-26,0,0,0,0,0
1676,1765227760560,-60,208,42,0,0,0,0,0
1677,1765227760860,1,144,33,0,0,0,0,0
1678,1765227760959,-7,126,-12,0,0,0,0,0
1679,1765227761184,62,61,81,0,0,0,0,0
1680,1765227761318,3,52,-7,0,0,0,0,0
1681,1765227761601,28,-22,-88,0,0,0,0,0
1682,1765227761719,2,-113,24,0,0,0,0,0
1683,1765227761850,-7,-143,28,0,0,0,0,0
1684,1765227762009,-63,-145,-66,0,0,0,0,0
1685,1765227762727,10,-220,2,0,0,0,0,0
1686,1765227762774,23,-568,-2,0,0,0,0,0
1687,1765227762812,2,-518,37,0,0,0,0,0
1688,1765227762836,-17,-544,106,0,0,0,0,0
1689,1765227762980,34,-616,7,0,0,0,0,0
1690,1765227763164,64,-539,46,0,0,0,0,0
1691,1765227763405,31,-539,53,0,0,0,0,0
1692,1765227763573,-13,-806,20,0,0,0,0,0
1693,1765227763647,81,-772,13,0,0,0,0,0
1694,1765227763871,30,-723,105,0,0,0,0,0
1695,1765227764130,75,-686,159,0,0,0,0,0
1696,1765227764299,58,-473,168,0,0,0,0,0
1697,1765227764380,-109,-491,80,0,0,0,0,0
1698,1765227764597,50,-443,36,0,0,0,0,0
1699,1765227764708,173,-449,67,0,0,0,0,0
1700,1765227764921,-105,-397,-46,0,0,0,0,0
1701,1765227765079,-22,-409,-4,0,0,0,0,0
1702,1765227765438,-43,-1011,148,0,0,0,0,0
1703,1765227765614,29,-966,-21,0,0,0,0,0
1704,1765227765848,36,-926,-10,0,0,0,0,0
1705,1765227766172,49,-818,82,0,0,0,0,0
1706,1765227766338,-56,-888,-31,0,0,0,0,0
1707,1765227766462,87,-966,99,0,0,0,0,0
1708,1765227766838,22,348,-41,0,0,0,0,0
1709,1765227766930,36,356,-25,0,0,0,0,0
1710,1765227767154,-18,371,17,0,0,0,0,0
1711,1765227767228,-8,365,-47,0,0,0,0,0
1712,1765227767279,-3,285,-4,0,0,0,0,0
1713,1765227767337,-36,263,-32,0,0,0,0,0
1714,1765227767646,13,191,26,0,0,0,0,0
1715,1765227767754,98,192,-41,0,0,0,0,0
1716,1765227768070,137,-187,22,0,0,0,0,0
1717,1765227768196,53,-178,-17,0,0,0,0,0
1718,1765227768404,-15,-197,-6,0,0,0,0,0
1719,1765227768523,51,-666,48,0,0,0,0,0
1720,1765227768822,24,-850,69,0,0,0,0,0
1721,1765227769012,18,-917,34,0,0,0,0,0
1722,1765227769123,60,-754,16,0,0,0,0,0
1723,1765227769338,50,-782,18,0,0,0,0,0
1724,1765227769539,39,-851,34,0,0,0,0,0
1725,1765227769656,69,-920,103,0,0,0,0,0
1726,1765227769956,89,-969,8,0,0,0,0,0
1727,1765227770280,41,-1013,7,0,0,0,0,0
1728,1765227770396,82,-1069,32,0,0,0,0,0
1729,1765227770496,84,-951,98,0,0,0,0,0
1730,1765227770679,42,-992,95,0,0,0,0,0
1731,1765227770955,-4,29651,-30717,0,0,0,0,0
1732,1765227771189,82,-993,49,0,0,0,0,0
1733,1765227771429,67,-1040,87,0,0,0,0,0
1734,1765227771507,45,-964,52,0,0,0,0,0
1735,1765227771654,16,-641,34,0,0,0,0,0
1736,1765227771845,10,-712,70,0,0,0,0,0
1737,1765227772070,22,-672,13,0,0,0,0,0
1738,1765227772495,12,-329,-28,0,0,0,0,0
1739,1765227773053,18,426,26,0,0,0,0,0
1740,1765227773129,62,542,-2,0,0,0,0,0
1741,1765227773345,35,651,-29,0,0,0,0,0
1742,1765227773996,-50,844,77,0,0,0,0,0
1743,1765227774006,-47,841,-106,0,0,0,0,0
1744,1765227774056,39,1003,-38,0,0,0,0,0
1745,1765227774084,-80,844,-150,0,0,0,0,0
1746,1765227774110,-34,729,-152,0,0,0,0,0
1747,1765227774219,-24,678,29,0,0,0,0,0
1748,1765227774388,-88,555,-81,0,0,0,0,0
1749,1765227774580,81,325,-52,0,0,0,0,0
1750,1765227775029,131,451,-34,0,0,0,0,0
1751,1765227775238,-135,474,-38,0,0,0,0,0
1752,1765227775379,0,627,-77,0,0,0,0,0
1753,1765227775521,23,613,-17,0,0,0,0,0
1754,1765227775706,9,627,-38,0,0,0,0,0
1755,1765227775838,1,590,-43,0,0,0,0,0
1756,1765227776112,-15,411,-25,0,0,0,0,0
1757,1765227776179,-15,438,24,0,0,0,0,0
1758,1765227776571,-50,570,-67,0,0,0,0,0
1759,1765227776646,53,605,71,0,0,0,0,0
1760,1765227776856,-42,736,0,0,0,0,0,0
1761,1765227776940,-33,5871,-71,0,0,0,0,0
1762,1765227777128,-77,920,-80,0,0,0,0,0
1763,1765227777348,-33,902,-27,0,0,0,0,0
1764,1765227777446,57,828,-93,0,0,0,0,0
1765,1765227777645,-30,906,-104,0,0,0,0,0
1766,1765227777771,-9,947,-107,0,0,0,0,0
1767,1765227778113,-245,958,-63,0,0,0,0,0
1768,1765227778531,-9,-745,6,0,0,0,0,0
1769,1765227778607,141,-771,-1,0,0,0,0,0
1770,1765227778821,22,-906,69,0,0,0,0,0
1771,1765227778972,-5,-709,35,0,0,0,0,0
1772,1765227779212,156,-774,39,0,0,0,0,0
1773,1765227779304,10,-918,113,0,0,0,0,0
1774,1765227779530,92,-875,-55,0,0,0,0,0
1775,1765227779670,9,-481,114,0,0,0,0,0
1776,1765227779971,-56,-278,61,0,0,0,0,0
1777,1765227780037,80,165,94,0,0,0,0,0
1778,1765227780212,24,795,-155,0,0,0,0,0
1779,1765227780412,-34,937,-60,0,0,0,0,0
1780,1765227780595,-87,953,-78,0,0,0,0,0
1781,1765227780746,-5,892,-209,0,0,0,0,0
1782,1765227780838,96,931,-119,0,0,0,0,0
1783,1765227780996,112,944,69,0,0,0,0,0
1784,1765227781129,-80,965,-207,0,0,0,0,0
1785,1765227781338,-154,1044,-14,0,0,0,0,0
1786,1765227781513,5,865,144,0,0,0,0,0
1787,1765227781795,-25,873,-106,0,0,0,0,0
1788,1765227781887,-37,852,-52,0,0,0,0,0
1789,1765227782245,9,784,-73,0,0,0,0,0
1790,1765227782429,-5,796,-46,0,0,0,0,0
1791,1765227782746,-34,803,-47,0,0,0,0,0
1792,1765227782962,-7,838,-37,0,0,0,0,0
1793,1765227783270,5,845,-34,0,0,0,0,0
1794,1765227783420,-43,882,-36,0,0,0,0,0
1795,1765227783620,-14,911,-45,0,0,0,0,0
1796,1765227783713,66,846,19,0,0,0,0,0
1797,1765227784012,-64,932,-25,0,0,0,0,0
1798,1765227784153,-18,924,33,0,0,0,0,0
1799,1765227785044,-118,946,-76,0,0,0,0,0
1800,1765227785097,-32,442,-106,0,0,0,0,0
1801,1765227785140,59,18,-144,0,0,0,0,0
1802,1765227785173,-40,-307,-17,0,0,0,0,0
1803,1765227785210,71,-906,10,0,0,0,0,0
1804,1765227785291,-38,-822,13,0,0,0,0,0
1805,1765227785525,2,-843,4,0,0,0,0,0
1806,1765227785941,39,-808,89,0,0,0,0,0
1807,1765227786034,-29,-934,40,0,0,0,0,0
1808,1765227786234,16,-961,32,0,0,0,0,0
1809,1765227786677,-14,-141,-11,0,0,0,0,0
1810,1765227786894,-48,-227,-65,0,0,0,0,0
1811,1765227786986,45,-306,46,0,0,0,0,0
1812,1765227787252,101,-322,-61,0,0,0,0,0
1813,1765227787646,30,-323,48,0,0,0,0,0
1814,1765227787804,23,-474,4,0,0,0,0,0
1815,1765227788044,61,-521,37,0,0,0,0,0
1816,1765227788293,135,-581,187,0,0,0,0,0
1817,1765227788478,36,-892,42,0,0,0,0,0
1818,1765227788603,-8,-794,105,0,0,0,0,0
1819,1765227788785,107,-479,118,0,0,0,0,0
1820,1765227789203,-72,-543,-36,0,0,0,0,0
1821,1765227789377,87,-597,61,0,0,0,0,0
1822,1765227789494,73,-689,-40,0,0,0,0,0
1823,1765227789701,49,-777,-37,0,0,0,0,0
1824,1765227789945,114,-941,184,0,0,0,0,0
1825,1765227790186,8,-891,-96,0,0,0,0,0
1826,1765227790243,86,-912,63,0,0,0,0,0
1827,1765227790352,-7,-872,142,0,0,0,0,0
1828,1765227790578,25,-793,-45,0,0,0,0,0
1829,1765227790735,22,-819,126,0,0,0,0,0
1830,1765227791018,115,-455,39,0,0,0,0,0
1831,1765227791092,74,79,82,0,0,0,0,0
1832,1765227791310,17,358,7,0,0,0,0,0
1833,1765227791751,21,827,-50,0,0,0,0,0
1834,1765227792045,-69,953,-52,0,0,0,0,0
1835,1765227792120,-132,878,-121,0,0,0,0,0
1836,1765227792194,-84,566,14,0,0,0,0,0
1837,1765227792476,34,231,16358,0,0,0,0,0
1838,1765227792619,74,79,-139,0,0,0,0,0
1839,1765227792862,23,-450,25,0,0,0,0,0
1840,1765227792936,-31,-514,42,0,0,0,0,0
1841,1765227793235,17,-622,-11,0,0,0,0,0
1842,1765227793419,70,-918,-45,0,0,0,0,0
1843,1765227793620,107,-1066,61,0,0,0,0,0
1844,1765227793768,-17,-1020,58,0,0,0,0,0
1845,1765227793959,57,-1032,12,0,0,0,0,0
1846,1765227794011,35,-815,55,0,0,0,0,0
1847,1765227794184,32,-810,72,0,0,0,0,0
1848,1765227794351,24,-943,-93,0,0,0,0,0
1849,1765227794543,103,-967,53,0,0,0,0,0
1850,1765227794717,77,-813,8,0,0,0,0,0
1851,1765227794979,-9,-792,86,0,0,0,0,0
1852,1765227795093,21,-762,46,0,0,0,0,0
1853,1765227795277,-6,-703,4,0,0,0,0,0
1854,1765227795467,23,-704,-24,0,0,0,0,0
1855,1765227795620,-8,-695,39,0,0,0,0,0
1856,1765227796309,60,-679,59,0,0,0,0,0
1857,1765227796329,87,-726,15,0,0,0,0,0
1858,1765227796355,38,-700,68,0,0,0,0,0
1859,1765227796395,43,-625,18,0,0,0,0,0
1860,1765227796420,69,-712,29,0,0,0,0,0
1861,1765227796607,51,-714,79,0,0,0,0,0
1862,1765227796893,49,-640,-4,0,0,0,0,0
1863,1765227796951,40,-720,58,0,0,0,0,0
1864,1765227797226,-21,-535,45,0,0,0,0,0
1865,1765227797334,60,-463,55,0,0,0,0,0
1866,1765227797716,-1,-376,15,0,0,0,0,0
1867,1765227798040,41,-243,4,0,0,0,0,0
1868,1765227798358,1,-214,2,0,0,0,0,0
1869,1765227798491,16,-14,-70,0,0,0,0,0
1870,1765227798727,-14,-17,48,0,0,0,0,0
1871,1765227798810,-18,35,12,0,0,0,0,0
1872,1765227799058,-67,293,17,0,0,0,0,0
1873,1765227799201,-22,302,-49,0,0,0,0,0
1874,1765227799443,19,313,-48,0,0,0,0,0
1875,1765227799567,-16,305,-11,0,0,0,0,0
1876,1765227799791,-34,231,-1,0,0,0,0,0
1877,1765227800007,-34,215,-18,0,0,0,0,0
1878,1765227800199,-17,175,-12,0,0,0,0,0
1879,1765227800341,17,11,31,0,0,0,0,0
1880,1765227800584,20,-14,20,0,0,0,0,0
1881,1765227800732,-23,34,13,0,0,0,0,0
1882,1765227801049,-11,53,-26,0,0,0,0,0
1883,1765227801282,34,48,1,0,0,0,0,0
1884,1765227801366,13,30,-20,0,0,0,0,0
1885,1765227801792,-53,96,33,0,0,0,0,0
1886,1765227802109,-25,111,-6,0,0,0,0,0
1887,1765227802166,-39,205,4,0,0,0,0,0
1888,1765227802293,5,214,-16,0,0,0,0,0
1889,1765227802506,23,234,12,0,0,0,0,0
1890,1765227802700,-4,220,25,0,0,0,0,0
1891,1765227802881,-47,369,-65,0,0,0,0,0
1892,1765227803008,-17,354,-12,0,0,0,0,0
1893,1765227803218,13,348,7,0,0,0,0,0
1894,1765227803631,56,292,-44,0,0,0,0,0
1895,1765227803766,-14,297,-21,0,0,0,0,0
1896,1765227803929,-22,24,-22,0,0,0,0,0
1897,1765227804047,-69,264,19,0,0,0,0,0
1898,1765227804279,-15,228,-27,0,0,0,0,0
1899,1765227804362,19,251,38,0,0,0,0,0
1900,1765227804593,-18,207,-19,0,0,0,0,0
1901,1765227804730,-5,364,27,0,0,0,0,0
1902,1765227804824,-22,289,-76,0,0,0,0,0
1903,1765227805099,73,301,-96,0,0,0,0,0
1904,1765227805465,-5,242,-53,0,0,0,0,0
1905,1765227805557,61,289,18,0,0,0,0,0
1906,1765227805767,-21,288,-89,0,0,0,0,0
1907,1765227805908,-47,218,41,0,0,0,0,0
1908,1765227806097,37,164,-46,0,0,0,0,0
1909,1765227806240,25,157,-24,0,0,0,0,0
1910,1765227806434,-68,174,-34,0,0,0,0,0
1911,1765227806616,-48,86,1,0,0,0,0,0
1912,1765227806807,-17,136,-27,0,0,0,0,0
1913,1765227807000,50,91,7,0,0,0,0,0
1914,1765227807685,-58,154,2,0,0,0,0,0
1915,1765227807715,9,133,45,0,0,0,0,0
1916,1765227807741,8,179,-24,0,0,0,0,0
1917,1765227807797,-18,168,7,0,0,0,0,0
1918,1765227807873,46,225,46,0,0,0,0,0
1919,1765227808057,-42,218,-46,0,0,0,0,0
1920,1765227808166,20,221,3,0,0,0,0,0
1921,1765227808465,-32,218,-42,0,0,0,0,0
1922,1765227808683,19,241,43,0,0,0,0,0
1923,1765227808890,-12,247,-80,0,0,0,0,0
1924,1765227809025,-39,298,-87,0,0,0,0,0
1925,1765227809107,13,281,-2,0,0,0,0,0
1926,1765227809308,-37,312,-89,0,0,0,0,0
1927,1765227809457,45,291,55,0,0,0,0,0
1928,1765227809740,-34,355,31,0,0,0,0,0
1929,1765227809815,-30,374,-46,0,0,0,0,0
1930,1765227810024,19,356,-9,0,0,0,0,0
1931,1765227810225,-4,654,-15,0,0,0,0,0
1932,1765227810483,55,621,-54,0,0,0,0,0
1933,1765227810591,52,642,-118,0,0,0,0,0
1934,1765227810807,11,619,-12,0,0,0,0,0
1935,1765227810998,9,573,-62,0,0,0,0,0
1936,1765227811093,-28,572,-59,0,0,0,0,0
1937,1765227811339,47,578,-78,0,0,0,0,0
1938,1765227811391,-11,435,-28,0,0,0,0,0
1939,1765227811507,-27,420,-4,0,0,0,0,0
1940,1765227811731,-21,374,-27,0,0,0,0,0
1941,1765227811792,-23,362,-56,0,0,0,0,0
1942,1765227812082,2,147,-18,0,0,0,0,0
1943,1765227812289,-37,133,10,0,0,0,0,0
1944,1765227812515,0,133,-17,0,0,0,0,0
1945,1765227812658,-1,-29,-10,0,0,0,0,0
1946,1765227812865,-16,-63,-24,0,0,0,0,0
1947,1765227812952,4,-69,11,0,0,0,0,0
1948,1765227813237,30,-161,-12,0,0,0,0,0
1949,1765227813374,17,-161,18,0,0,0,0,0
1950,1765227813599,33,-136,35,0,0,0,0,0
1951,1765227813674,-39,-158,37,0,0,0,0,0
1952,1765227814060,-18,-438,56,0,0,0,0,0
1953,1765227814191,30,-504,-19,0,0,0,0,0
1954,1765227814364,-2,-514,29,0,0,0,0,0
1955,1765227814598,-48,-468,19,0,0,0,0,0
1956,1765227814773,33,-485,9,0,0,0,0,0
1957,1765227815015,-15,-446,19,0,0,0,0,0
1958,1765227815173,60,-343,34,0,0,0,0,0
1959,1765227815407,19,-437,12,0,0,0,0,0
1960,1765227815682,37,-297,35,0,0,0,0,0
1961,1765227815866,-21,-69,14,0,0,0,0,0
1962,1765227816065,109,-273,55,0,0,0,0,0
1963,1765227816165,-72,-215,-31,0,0,0,0,0
1964,1765227816455,26,-76,42,0,0,0,0,0
1965,1765227816567,31,-114,10,0,0,0,0,0
1966,1765227816817,16,2,-21,0,0,0,0,0
1967,1765227816890,-67,-62,40,0,0,0,0,0
1968,1765227817248,65,-60,-80,0,0,0,0,0
1969,1765227817356,46,31,10,0,0,0,0,0
1970,1765227817556,-61,-50,11,0,0,0,0,0
1971,1765227817948,-53,42,-27,0,0,0,0,0
1972,1765227818624,25,83,-30,0,0,0,0,0
1973,1765227818649,-75,146,7,0,0,0,0,0
1974,1765227818668,-29,244,-12,0,0,0,0,0
1975,1765227818692,-30,252,-97,0,0,0,0,0
1976,1765227818741,-2,284,-29,0,0,0,0,0
1977,1765227819085,-1,523,-4,0,0,0,0,0
1978,1765227819259,25,562,-14,0,0,0,0,0
1979,1765227819384,-31,550,-39,0,0,0,0,0
1980,1765227819771,81,566,-51,0,0,0,0,0
1981,1765227819917,-2,614,-21,0,0,0,0,0
1982,1765227820066,-7,586,-149,0,0,0,0,0
1983,1765227820267,23,607,0,0,0,0,0,0
1984,1765227820532,5,575,60,0,0,0,0,0
1985,1765227820765,-29,615,-104,0,0,0,0,0
1986,1765227820915,-10,640,-29,0,0,0,0,0
1987,1765227821090,-64,614,-64,0,0,0,0,0
1988,1765227821241,9,625,-42,0,0,0,0,0
1989,1765227821625,37,576,-46,0,0,0,0,0
1990,1765227821808,1,574,-19,0,0,0,0,0
1991,1765227821990,-18,542,-42,0,0,0,0,0
1992,1765227822266,-7,476,-9,0,0,0,0,0
1993,1765227822375,9,-32295,23392,0,0,0,0,0
1994,1765227822616,-25,441,-7,0,0,0,0,0
1995,1765227822749,-28,394,-26,0,0,0,0,0
1996,1765227822942,-24,394,-11,0,0,0,0,0
1997,1765227823083,17,395,18,0,0,0,0,0
1998,1765227823317,-13,360,-13,0,0,0,0,0
1999,1765227823467,22,341,-13,0,0,0,0,0
2000,1765227823700,-124,145,22,0,0,0,0,0
2001,1765227823850,136,96,-41,0,0,0,0,0
2002,1765227824167,-53,314,29,0,0,0,0,0
2003,1765227824234,73,130,17,0,0,0,0,0
2004,1765227824466,-133,307,-44,0,0,0,0,0
2005,1765227824640,-11,315,-4,0,0,0,0,0
2006,1765227824876,25,314,-253,0,0,0,0,0
2007,1765227824991,-27,320,-11,0,0,0,0,0
2008,1765227825183,18,336,-48,0,0,0,0,0
2009,1765227825266,-44,416,-31,0,0,0,0,0
2010,1765227825492,2,391,-8,0,0,0,0,0
2011,1765227825633,-15,417,-22,0,0,0,0,0
2012,1765227825842,29,422,-17,0,0,0,0,0
2013,1765227826025,-27,460,-21,0,0,0,0,0
2014,1765227826159,32,431,-16,0,0,0,0,0
2015,1765227826367,-3,466,-44,0,0,0,0,0
2016,1765227826458,-12,503,-69,0,0,0,0,0
2017,1765227826574,30,393,-30,0,0,0,0,0
2018,1765227826759,33,235,-86,0,0,0,0,0
2019,1765227827066,42,153,-30,0,0,0,0,0
2020,1765227827215,-28,-116,-4,0,0,0,0,0
2021,1765227827399,11,-92,-10,0,0,0,0,0
2022,1765227827508,5,-117,-30,0,0,0,0,0
2023,1765227827766,44,-574,41,0,0,0,0,0
2024,1765227827907,-19,-646,15,0,0,0,0,0
2025,1765227828190,57,-694,45,0,0,0,0,0
2026,1765227828275,16,-741,15,0,0,0,0,0
2027,1765227828585,-7,-737,84,0,0,0,0,0
2028,1765227828800,8,-709,-10,0,0,0,0,0
2029,1765227829041,1,-208,0,0,0,0,0,0
2030,1765227829707,4,-127,8,0,0,0,0,0
2031,1765227829748,34,-76,21,0,0,0,0,0
2032,1765227829781,-8,-29,-17,0,0,0,0,0
2033,1765227829813,-51,6,0,0,0,0,0,0
2034,1765227829874,-23,20,18,0,0,0,0,0
2035,1765227830048,-1,3,-9,0,0,0,0,0
2036,1765227830507,-8,-91,30,0,0,0,0,0
2037,1765227830745,-43,-117,16,0,0,0,0,0
2038,1765227830890,-17,-375,33,0,0,0,0,0
2039,1765227831124,59,-411,54,0,0,0,0,0
2040,1765227831216,-1,-442,9,0,0,0,0,0
2041,1765227831458,-249,-469,-11,0,0,0,0,0
2042,1765227831601,6,-421,-21,0,0,0,0,0
2043,1765227831842,-16,-391,21,0,0,0,0,0
2044,1765227832032,30,-384,36,0,0,0,0,0
2045,1765227832285,44,-444,62,0,0,0,0,0
2046,1765227832349,-1,-424,53,0,0,0,0,0
2047,1765227832583,38,-469,32,0,0,0,0,0
2048,1765227832723,-19,-503,-13,0,0,0,0,0
2049,1765227833000,63,-821,52,0,0,0,0,0
2050,1765227833076,-27,-787,19,0,0,0,0,0
2051,1765227833291,140,-800,77,0,0,0,0,0
2052,1765227833441,-6,-707,30,0,0,0,0,0
2053,1765227833760,-46,-730,-26,0,0,0,0,0
2054,1765227833985,92,-751,6,0,0,0,0,0
2055,1765227834125,35,-615,90,0,0,0,0,0
2056,1765227834299,34,-588,45,0,0,0,0,0
2057,1765227834433,2,-473,53,0,0,0,0,0
2058,1765227834658,30,-441,47,0,0,0,0,0
2059,1765227834841,19,-426,43,0,0,0,0,0
2060,1765227835023,30,-374,40,0,0,0,0,0
2061,1765227835141,24,-297,0,0,0,0,0,0
2062,1765227835574,21,-100,124,0,0,0,0,0
2063,1765227835775,69,-125,67,0,0,0,0,0
2064,1765227835875,5,-83,-53,0,0,0,0,0
2065,1765227835923,69,-9,-11,0,0,0,0,0
2066,1765227836015,1,10,-20,0,0,0,0,0
2067,1765227836275,-31,105,4,0,0,0,0,0
2068,1765227836374,4,171,31,0,0,0,0,0
2069,1765227836583,-59,894,-129,0,0,0,0,0
2070,1765227836716,-51,864,10,0,0,0,0,0
2071,1765227837140,119,790,17,0,0,0,0,0
2072,1765227837282,-252,881,-60,0,0,0,0,0
2073,1765227837440,-6,887,89,0,0,0,0,0
2074,1765227837615,25,883,19,0,0,0,0,0
2075,1765227837740,-62,873,-69,0,0,0,0,0
2076,1765227837815,-43,910,15,0,0,0,0,0
2077,1765227837907,-22,935,-141,0,0,0,0,0
2078,1765227838157,13,908,-92,0,0,0,0,0
2079,1765227838273,46,885,1,0,0,0,0,0
2080,1765227838418,-33,845,-61,0,0,0,0,0
2081,1765227838587,1,873,-26,0,0,0,0,0
2082,1765227838799,-17,849,-50,0,0,0,0,0
2083,1765227838950,54,794,-83,0,0,0,0,0
2084,1765227839107,-1,682,-9,0,0,0,0,0
2085,1765227839315,-31,716,-81,0,0,0,0,0
2086,1765227839425,-4,680,-31,0,0,0,0,0
2087,1765227839782,-8,507,-10,0,0,0,0,0
2088,1765227839965,-11,466,-87,0,0,0,0,0
2089,1765227840082,0,448,-40,0,0,0,0,0
2090,1765227840458,-53,-255,-29,0,0,0,0,0
2091,1765227841131,-20,-325,-7,0,0,0,0,0
2092,1765227841163,-12,-383,-2,0,0,0,0,0
2093,1765227841191,10,-376,2,0,0,0,0,0
2094,1765227841254,2,-245,18,0,0,0,0,0
2095,1765227841675,33,478,-26,0,0,0,0,0
2096,1765227841795,22,558,-72,0,0,0,0,0
2097,1765227841973,171,615,5,0,0,0,0,0
2098,1765227842106,-83,589,36,0,0,0,0,0
2099,1765227842281,21,551,-69,0,0,0,0,0
2100,1765227842502,11,565,-62,0,0,0,0,0
2101,1765227842709,-75,571,93,0,0,0,0,0
2102,1765227842865,-29,533,-83,0,0,0,0,0
2103,1765227843046,-74,584,-168,0,0,0,0,0
2104,1765227843205,114,512,212,0,0,0,0,0
2105,1765227843586,-80,475,9,0,0,0,0,0
2106,1765227843675,6,476,-45,0,0,0,0,0
2107,1765227843881,69,424,5,0,0,0,0,0
2108,1765227844016,-24,447,-32,0,0,0,0,0
2109,1765227844320,-8,479,37,0,0,0,0,0
2110,1765227844407,-10,502,-74,0,0,0,0,0
2111,1765227844547,-6,444,-80,0,0,0,0,0
2112,1765227844751,-9,444,-7,0,0,0,0,0
2113,1765227844838,54,425,-2,0,0,0,0,0
2114,1765227845100,0,394,-21,0,0,0,0,0
2115,1765227845224,-40,349,-15,0,0,0,0,0
2116,1765227845347,31,331,-38,0,0,0,0,0
2117,1765227845507,98,314,-39,0,0,0,0,0
2118,1765227845664,18,370,-56,0,0,0,0,0
2119,1765227845757,54,199,-24,0,0,0,0,0
2120,1765227846015,-26,192,-44,0,0,0,0,0
2121,1765227846208,-55,223,14,0,0,0,0,0
2122,1765227846307,-18,219,18,0,0,0,0,0
2123,1765227846358,8,198,1,0,0,0,0,0
2124,1765227846447,-59,218,-6,0,0,0,0,0
2125,1765227846679,-1,205,-27,0,0,0,0,0
2126,1765227846838,-29,212,36,0,0,0,0,0
2127,1765227847151,28,338,20,0,0,0,0,0
2128,1765227847259,32,328,-16,0,0,0,0,0
2129,1765227847441,-8,291,-34,0,0,0,0,0
2130,1765227847638,-27,158,5,0,0,0,0,0
2131,1765227847914,-13,167,-8,0,0,0,0,0
2132,1765227848130,29,117,15,0,0,0,0,0
2133,1765227848303,-1,-2,14,0,0,0,0,0
2134,1765227848531,14,5,-2,0,0,0,0,0
2135,1765227848673,-4,-8,7,0,0,0,0,0
2136,1765227848973,17,-5,6,0,0,0,0,0
2137,1765227849047,-22,-14,1,0,0,0,0,0
2138,1765227849344,14,-7,-9,0,0,0,0,0
2139,1765227849573,1,-9,-1,0,0,0,0,0
2140,1765227849749,4,-8,-1,0,0,0,0,0
2141,1765227849956,7,-9,1,0,0,0,0,0
2142,1765227850056,2,-8,-1,0,0,0,0,0
2143,1765227850156,4,-8,1,0,0,0,0,0
2144,1765227850379,5,-9,1,0,0,0,0,0
2145,1765227850480,3,-7,-2,0,0,0,0,0
2146,1765227850718,3,-8,0,0,0,0,0,0
2147,1765227850775,5,-9,0,0,0,0,0,0
2148,1765227850878,5,-8,1,0,0,0,0,0
2149,1765227851193,8,-10,-1,0,0,0,0,0
2150,1765227851355,4,-9,0,0,0,0,0,0
2151,1765227852104,4,-9,0,0,0,0,0,0
2152,1765227852133,4,-9,0,0,0,0,0,0
2153,1765227852175,4,-9,-1,0,0,0,0,0
2154,1765227852251,6,-9,-1,0,0,0,0,0
2155,1765227852330,4,-9,0,0,0,0,0,0
2156,1765227852553,5,-9,-1,0,0,0,0,0
2157,1765227852610,6,-9,255,0,0,0,0,0
2158,1765227852853,5,-10,0,0,0,0,0,0
2159,1765227853034,7,-9,0,0,0,0,0,0
2160,1765227853217,5,-9,0,0,0,0,0,0
2161,1765227853394,4,-8,-1,0,0,0,0,0
2162,1765227853628,6,-9,0,0,0,0,0,0
2163,1765227853744,4,-9,0,0,0,0,0,0
2164,1765227853976,4,-9,-1,0,0,0,0,0
2165,1765227854127,5,-8,0,0,0,0,0,0
2166,1765227854437,5,-9,1,0,0,0,0,0
2167,1765227854602,5,-9,-1,0,0,0,0,0
2168,1765227854836,7,-10,1,0,0,0,0,0
2169,1765227854936,3,-9,0,0,0,0,0,0
2170,1765227855244,5,-9,0,0,0,0,0,0
2171,1765227855418,6,-9,0,0,0,0,0,0
2172,1765227855584,4,-8,0,0,0,0,0,0
2173,1765227855802,5,-7,0,0,0,0,0,0
2174,1765227855994,5,-9,0,0,0,0,0,0
2175,1765227856294,4,-7,255,0,0,0,0,0
2176,1765227856343,4,-11,-1,0,0,0,0,0
2177,1765227856461,5,-9,1,0,0,0,0,0
2178,1765227856692,6,-8,0,0,0,0,0,0
2179,1765227856788,2,-10,1,0,0,0,0,0
2180,1765227857134,4,-9,-1,0,0,0,0,0
2181,1765227857212,3,-10,-1,0,0,0,0,0
2182,1765227857434,4,-9,0,0,0,0,0,0
2183,1765227857552,3,-8,1,0,0,0,0,0
2184,1765227859977,5,-6,-3,0,0,0,0,0
2185,1765227860152,7,-9,2,0,0,0,0,0
2186,1765227860259,8,-8,1,0,0,0,0,0
2187,1765227860491,3,-11,0,0,0,0,0,0
2188,1765227860568,7,-7,-2,0,0,0,0,0
2189,1765227860809,0,-8,0,0,0,0,0,0
2190,1765227860886,2,-10,-3,0,0,0,0,0
2191,1765227861109,6,-10,-1,0,0,0,0,0
2192,1765227861226,1,-9,0,0,0,0,0,0
2193,1765227861368,4,-9,0,0,0,0,0,0
2194,1765227861544,4,-9,1,0,0,0,0,0
2195,1765227861761,5,-9,0,0,0,0,0,0
2196,1765227861836,6,-9,0,0,0,0,0,0
2197,1765227862034,7,-8,-1,0,0,0,0,0
2198,1765227862284,6,-8,-1,0,0,0,0,0
2199,1765227862525,5,-9,0,0,0,0,0,0
2200,1765227862650,2,-11,1,0,0,0,0,0
2201,1765227862782,5,-10,0,0,0,0,0,0
2202,1765227862950,3,-9,1,0,0,0,0,0
2203,1765227863173,4,-8,0,0,0,0,0,0
2204,1765227863354,4,-9,1,0,0,0,0,0
2205,1765227863451,7,-9,2,0,0,0,0,0
2206,1765227863648,3,-9,0,0,0,0,0,0
2207,1765227864068,5,-9,-1,0,0,0,0,0
2208,1765227864154,6,-7,1,0,0,0,0,0
2209,1765227864383,4,-9,0,0,0,0,0,0
2210,1765227864512,3,-7,1,0,0,0,0,0
2211,1765227864641,4,-9,-1,0,0,0,0,0
2212,1765227865284,6,-9,-1,0,0,0,0,0
2213,1765227865329,4,-10,0,0,0,0,0,0
2214,1765227865371,4,-9,0,0,0,0,0,0
2215,1765227865387,5,-8,1,0,0,0,0,0
2216,1765227865606,4,-9,0,0,0,0,0,0
2217,1765227865748,6,-8,0,0,0,0,0,0
2218,1765227865990,3,-10,-1,0,0,0,0,0
2219,1765227866056,5,-8,2,0,0,0,0,0
2220,1765227866273,3,-8,1,0,0,0,0,0
2221,1765227866415,5,-9,-1,0,0,0,0,0
2222,1765227866581,5,-7,0,0,0,0,0,0
2223,1765227866757,4,-8,1,0,0,0,0,0
2224,1765227866898,3,-9,1,0,0,0,0,0
2225,1765227867047,4,-9,0,0,0,0,0,0
2226,1765227867181,6,-9,0,0,0,0,0,0
2227,1765227867489,6,-9,0,0,0,0,0,0
2228,1765227867565,6,-7,0,0,0,0,0,0
2229,1765227867682,6,-8,0,0,0,0,0,0
2230,1765227867916,6,-9,1,0,0,0,0,0
2231,1765227867998,4,-7,-2,0,0,0,0,0
2232,1765227868139,6,-9,0,0,0,0,0,0
2233,1765227868348,5,-9,0,0,0,0,0,0
2234,1765227868516,3,-10,0,0,0,0,0,0
2235,1765227868691,4,-9,0,0,0,0,0,0
2236,1765227868831,5,-9,1,0,0,0,0,0
2237,1765227868976,5,-10,-2,0,0,0,0,0
2238,1765227869135,5,-9,0,0,0,0,0,0
2239,1765227869470,6,-10,2,0,0,0,0,0
2240,1765227869616,8,-9,-1,0,0,0,0,0
2241,1765227869774,5,-9,-1,0,0,0,0,0
2242,1765227869906,7,-9,-1,0,0,0,0,0
2243,1765227870026,5,-9,-1,0,0,0,0,0
2244,1765227870124,5,-8,-1,0,0,0,0,0
2245,1765227870348,5,-9,0,0,0,0,0,0
2246,1765227870473,4,-9,0,0,0,0,0,0
2247,1765227870733,6,-9,0,0,0,0,0,0
2248,1765227870822,3,-8,0,0,0,0,0,0
2249,1765227871121,5,-9,-1,0,0,0,0,0
2250,1765227871358,5,-8,1,0,0,0,0,0
2251,1765227871547,5,-9,0,0,0,0,0,0
2252,1765227871666,4,-10,0,0,0,0,0,0
2253,1765227871914,5,-8,-1,0,0,0,0,0
2254,1765227872048,4,-8,1,0,0,0,0,0
2255,1765227872240,7,-9,0,0,0,0,0,0
2256,1765227872330,5,-8,0,0,0,0,0,0
2257,1765227872456,5,-9,1,0,0,0,0,0
2258,1765227872598,6,-8,1,0,0,0,0,0
2259,1765227872757,7,-9,0,0,0,0,0,0
2260,1765227873231,5,-7,0,0,0,0,0,0
2261,1765227873373,4,-10,-1,0,0,0,0,0
2262,1765227873525,4,-8,1,0,0,0,0,0
2263,1765227873640,5,-9,-1,0,0,0,0,0
2264,1765227873728,4,-8,1,0,0,0,0,0
2265,1765227873966,5,-9,0,0,0,0,0,0
2266,1765227874080,4,-9,-1,0,0,0,0,0
2267,1765227874339,6,-9,0,0,0,0,0,0
2268,1765227874440,5,-9,0,0,0,0,0,0
2269,1765227874649,4,-9,0,0,0,0,0,0
2270,1765227874923,6,-9,1,0,0,0,0,0
2271,1765227875116,4,-8,0,0,0,0,0,0
2272,1765227875212,6,-7,-1,0,0,0,0,0
2273,1765227875449,6,-8,0,0,0,0,0,0
2274,1765227876188,4,-9,-1,0,0,0,0,0
2275,1765227876211,5,-9,0,0,0,0,0,0
2276,1765227876230,5,-8,0,0,0,0,0,0
2277,1765227876249,5,-10,1,0,0,0,0,0
2278,1765227876262,6,-9,0,0,0,0,0,0
2279,1765227876329,5,-9,0,0,0,0,0,0
2280,1765227876405,4,-9,0,0,0,0,0,0
2281,1765227876656,5,-10,-1,0,0,0,0,0
2282,1765227876873,6,-9,0,0,0,0,0,0
2283,1765227877098,6,-9,0,0,0,0,0,0
2284,1765227877173,3,-9,0,0,0,0,0,0
2285,1765227877275,4,-9,-1,0,0,0,0,0
2286,1765227877415,5,-9,0,0,0,0,0,0
2287,1765227877598,3,-9,0,0,0,0,0,0
2288,1765227877773,5,-8,1,0,0,0,0,0
2289,1765227877948,4,-7,1,0,0,0,0,0
2290,1765227878023,6,-10,1,0,0,0,0,0
2291,1765227878265,5,-9,-1,0,0,0,0,0
2292,1765227878704,5,-9,0,0,0,0,0,0
2293,1765227878776,4,-9,0,0,0,0,0,0
2294,1765227879012,3,-8,0,0,0,0,0,0
2295,1765227879148,5,-8,0,0,0,0,0,0
2296,1765227879399,4,-8,1,0,0,0,0,0
2297,1765227879487,5,-8,0,0,0,0,0,0
2298,1765227879883,5,-7,0,0,0,0,0,0
2299,1765227880090,4,-8,-1,0,0,0,0,0
2300,1765227880247,5,-9,-1,0,0,0,0,0
2301,1765227880307,4,-8,-1,0,0,0,0,0
2302,1765227880442,5,-8,0,0,0,0,0,0
2303,1765227880621,4,-8,0,0,0,0,0,0
2304,1765227880799,3,-9,0,0,0,0,0,0
2305,1765227880997,4,-8,-1,0,0,0,0,0
2306,1765227881132,5,-8,1,0,0,0,0,0
2307,1765227881322,4,-8,2,0,0,0,0,0
2308,1765227881469,4,-9,-1,0,0,0,0,0
2309,1765227881698,7,-9,0,0,0,0,0,0
2310,1765227881905,4,-9,-1,0,0,0,0,0
2311,1765227882081,5,-9,2,0,0,0,0,0
2312,1765227882222,4,-8,-1,0,0,0,0,0
2313,1765227882438,4,-10,-1,0,0,0,0,0
2314,1765227882513,6,-10,-1,0,0,0,0,0
2315,1765227882780,4,-8,-1,0,0,0,0,0
2316,1765227882922,5,-9,-1,0,0,0,0,0
2317,1765227883096,5,-8,-1,0,0,0,0,0
2318,1765227883214,4,-7,-1,0,0,0,0,0
2319,1765227883659,6,-9,0,0,0,0,0,0
2320,1765227883865,3,-7,0,0,0,0,0,0
2321,1765227883957,3,-8,0,0,0,0,0,0
2322,1765227884044,5,-8,0,0,0,0,0,0
2323,1765227884157,7,-9,0,0,0,0,0,0
2324,1765227884342,5,-8,-1,0,0,0,0,0
2325,1765227884547,5,-10,1,0,0,0,0,0
2326,1765227884666,4,-9,1,0,0,0,0,0
2327,1765227884768,5,-7,-1,0,0,0,0,0
2328,1765227884872,7,-10,1,0,0,0,0,0
2329,1765227885063,4,-8,0,0,0,0,0,0
2330,1765227885496,4,-9,0,0,0,0,0,0
2331,1765227885597,4,-8,0,0,0,0,0,0
2332,1765227885789,5,-9,0,0,0,0,0,0
2333,1765227885930,4,-9,-1,0,0,0,0,0
2334,1765227886165,5,-9,0,0,0,0,0,0
2335,1765227886247,5,-9,0,0,0,0,0,0
2336,1765227886488,6,-8,0,0,0,0,0,0
2337,1765227887145,5,-8,1,0,0,0,0,0
2338,1765227887170,4,-10,-1,0,0,0,0,0
2339,1765227887207,5,-8,0,0,0,0,0,0
2340,1765227887235,4,-9,-1,0,0,0,0,0
2341,1765227887363,4,-9,0,0,0,0,0,0
2342,1765227887707,4,-8,0,0,0,0,0,0
2343,1765227888065,9,-11,-1,0,0,0,0,0
2344,1765227888181,6,-8,0,0,0,0,0,0
2345,1765227888356,-1,-8,1,0,0,0,0,0
2346,1765227888498,4,-9,0,0,0,0,0,0
2347,1765227888808,6,-8,0,0,0,0,0,0
2348,1765227888946,6,-9,0,0,0,0,0,0
2349,1765227889149,7,-8,0,0,0,0,0,0
2350,1765227889259,3,-9,-3,0,0,0,0,0
2351,1765227889528,4,-8,0,0,0,0,0,0
2352,1765227889603,5,-9,-1,0,0,0,0,0
2353,1765227889657,6,-9,1,0,0,0,0,0
2354,1765227889781,6,-11,-1,0,0,0,0,0
2355,1765227889966,4,-7,1,0,0,0,0,0
2356,1765227890142,5,-9,0,0,0,0,0,0
2357,1765227890339,3,-8,-1,0,0,0,0,0
2358,1765227890539,5,-6,-1,0,0,0,0,0
2359,1765227890707,6,-10,0,0,0,0,0,0
2360,1765227890889,3,-10,0,0,0,0,0,0
2361,1765227891082,4,-9,1,0,0,0,0,0
2362,1765227891231,5,-10,-2,0,0,0,0,0
2363,1765227891406,5,-8,-2,0,0,0,0,0
2364,1765227891756,4,-9,0,0,0,0,0,0
2365,1765227891823,6,-8,0,0,0,0,0,0
2366,1765227892140,7,-8,0,0,0,0,0,0
2367,1765227892283,4,-9,-2,0,0,0,0,0
2368,1765227892523,4,-8,0,0,0,0,0,0
2369,1765227892590,4,-8,-1,0,0,0,0,0
2370,1765227892807,3,-9,1,0,0,0,0,0
2371,1765227893214,4,-9,0,0,0,0,0,0
2372,1765227893290,6,-8,0,0,0,0,0,0
2373,1765227893497,5,-9,1,0,0,0,0,0
2374,1765227893735,4,-8,1,0,0,0,0,0
2375,1765227893964,4,-10,-1,0,0,0,0,0
2376,1765227894105,7,-8,0,0,0,0,0,0
2377,1765227894273,4,-9,-1,0,0,0,0,0
2378,1765227894397,6,-7,0,0,0,0,0,0
2379,1765227894797,2,-9,0,0,0,0,0,0
2380,1765227894897,4,-9,0,0,0,0,0,0
2381,1765227895089,5,-9,-1,0,0,0,0,0
2382,1765227895530,5,-8,0,0,0,0,0,0
2383,1765227895641,7,-8,0,0,0,0,0,0
2384,1765227895826,5,-9,0,0,0,0,0,0
2385,1765227895964,4,-7,0,0,0,0,0,0
2386,1765227896189,6,-9,-1,0,0,0,0,0
2387,1765227896323,4,-8,1,0,0,0,0,0
2388,1765227896532,4,-10,1,0,0,0,0,0
2389,1765227896665,3,-9,0,0,0,0,0,0
2390,1765227896846,3,-10,-1,0,0,0,0,0
2391,1765227897071,4,-9,-2,0,0,0,0,0
2392,1765227897272,5,-9,0,0,0,0,0,0
2393,1765227897413,4,-9,-1,0,0,0,0,0
2394,1765227897613,3,-8,-1,0,0,0,0,0
2395,1765227897713,5,-7,0,0,0,0,0,0
2396,1765227897789,5,-10,-1,0,0,0,0,0
2397,1765227897889,5,-9,-1,0,0,0,0,0
2398,1765227898513,4,-8,-1,0,0,0,0,0
2399,1765227898552,6,-9,0,0,0,0,0,0
2400,1765227898589,5,-8,-1,0,0,0,0,0
2401,1765227898612,4,-6,1,0,0,0,0,0
2402,1765227898822,6,-10,2,0,0,0,0,0
2403,1765227898982,3,-9,-1,0,0,0,0,0
2404,1765227899147,5,-10,-1,0,0,0,0,0
2405,1765227899249,5,-8,0,0,0,0,0,0
2406,1765227899489,5,-10,0,0,0,0,0,0
2407,1765227899631,5,-7,2,0,0,0,0,0
2408,1765227899848,5,-9,255,0,0,0,0,0
2409,1765227899958,5,-9,-1,0,0,0,0,0
2410,1765227900173,5,-9,0,0,0,0,0,0
2411,1765227900315,3,-8,-1,0,0,0,0,0
2412,1765227900539,3,-10,-1,0,0,0,0,0
2413,1765227900689,6,-9,0,0,0,0,0,0
2414,1765227900856,4,-9,-1,0,0,0,0,0
2415,1765227900966,6,-9,1,0,0,0,0,0
2416,1765227901107,2,-5,0,0,0,0,0,0
2417,1765227901325,3,-8,-1,0,0,0,0,0
2418,1765227901432,7,-10,-1,0,0,0,0,0
2419,1765227901567,4,-9,0,0,0,0,0,0
2420,1765227901781,5,-8,0,0,0,0,0,0
2421,1765227902257,4,-8,1,0,0,0,0,0
2422,1765227902423,7,-9,0,0,0,0,0,0
2423,1765227902598,3,-8,0,0,0,0,0,0
2424,1765227902740,5,-8,0,0,0,0,0,0
2425,1765227902889,5,-7,1,0,0,0,0,0
2426,1765227903040,6,-8,-1,0,0,0,0,0
2427,1765227903256,6,-8,1,0,0,0,0,0
2428,1765227903475,3,-10,1,0,0,0,0,0
2429,1765227903614,6,-9,-1,0,0,0,0,0
2430,1765227903758,4,-8,0,0,0,0,0,0
2431,1765227904014,7,-9,-1,0,0,0,0,0
2432,1765227904248,5,-8,1,0,0,0,0,0
2433,1765227904423,3,-8,-2,0,0,0,0,0
2434,1765227904548,4,-9,-1,0,0,0,0,0
2435,1765227904647,5,-9,0,0,0,0,0,0
2436,1765227904739,5,-8,0,0,0,0,0,0
2437,1765227904975,3,-9,0,0,0,0,0,0
2438,1765227905071,7,-9,-1,0,0,0,0,0
2439,1765227905397,8,-8,0,0,0,0,0,0
2440,1765227905455,4,-7,0,0,0,0,0,0
2441,1765227905706,4,-8,0,0,0,0,0,0
2442,1765227905947,5,-8,-1,0,0,0,0,0
2443,1765227906189,3,-9,-2,0,0,0,0,0
2444,1765227906265,4,-8,-1,0,0,0,0,0
2445,1765227906521,4,-10,0,0,0,0,0,0
2446,1765227906657,4,-9,0,0,0,0,0,0
2447,1765227906876,6,-9,-1,0,0,0,0,0
2448,1765227906982,5,-9,-1,0,0,0,0,0
2449,1765227907098,4,-8,0,0,0,0,0,0
2450,1765227907205,5,-9,-1,0,0,0,0,0
2451,1765227907388,4,-10,1,0,0,0,0,0
2452,1765227907531,6,-9,-1,0,0,0,0,0
2453,1765227907854,5,-7,0,0,0,0,0,0
2454,1765227907958,6,-12,-1,0,0,0,0,0
2455,1765227908156,8,-8,0,0,0,0,0,0
2456,1765227908313,3,-7,0,0,0,0,0,0
2457,1765227908480,6,-10,0,0,0,0,0,0
2458,1765227908648,4,-6,0,0,0,0,0,0
2459,1765227908830,3,-8,0,0,0,0,0,0
2460,1765227908888,4,-9,0,0,0,0,0,0
2461,1765227909060,5,-8,0,0,0,0,0,0
2462,1765227909682,4,-8,0,0,0,0,0,0
2463,1765227909719,6,-9,0,0,0,0,0,0
2464,1765227909746,4,-8,-1,0,0,0,0,0
2465,1765227909775,4,-10,1,0,0,0,0,0
2466,1765227909844,6,-9,1,0,0,0,0,0
2467,1765227909935,4,-9,0,0,0,0,0,0
2468,1765227910011,4,-8,1,0,0,0,0,0
2469,1765227910129,4,-8,0,0,0,0,0,0
2470,1765227910297,4,-9,-2,0,0,0,0,0
2471,1765227910414,4,-8,-1,0,0,0,0,0
2472,1765227910623,4,-9,2,0,0,0,0,0
2473,1765227910656,3,-8,-1,0,0,0,0,0
2474,1765227910795,5,-9,-1,0,0,0,0,0
2475,1765227910979,5,-8,-1,0,0,0,0,0
2476,1765227911078,4,-9,0,0,0,0,0,0
2477,1765227911204,4,-8,-1,0,0,0,0,0
2478,1765227911262,5,-9,0,0,0,0,0,0
2479,1765227911546,5,-9,0,0,0,0,0,0
2480,1765227911696,5,-9,0,0,0,0,0,0
2481,1765227911997,6,-8,-1,0,0,0,0,0
2482,1765227912120,5,-8,1,0,0,0,0,0
2483,1765227912298,7,-10,0,0,0,0,0,0
2484,1765227912688,3,-8,0,0,0,0,0,0
2485,1765227912772,4,-9,-1,0,0,0,0,0
2486,1765227913012,4,-8,0,0,0,0,0,0
2487,1765227913137,5,-9,-1,0,0,0,0,0
2488,1765227913414,5,-9,0,0,0,0,0,0
2489,1765227913504,6,-10,0,0,0,0,0,0
2490,1765227913879,6,-8,-1,0,0,0,0,0
2491,1765227914037,6,-9,-1,0,0,0,0,0
2492,1765227914212,4,-9,-1,0,0,0,0,0
2493,1765227914337,4,-8,0,0,0,0,0,0
2494,1765227914579,4,-8,0,0,0,0,0,0
2495,1765227914654,3,-7,-1,0,0,0,0,0
2496,1765227915096,3,-9,-1,0,0,0,0,0
2497,1765227915320,6,-10,-1,0,0,0,0,0
2498,1765227915422,5,-8,0,0,0,0,0,0
2499,1765227915637,4,-8,-1,0,0,0,0,0
2500,1765227915770,3,-9,0,0,0,0,0,0
2501,1765227916012,4,-9,0,0,0,0,0,0
2502,1765227916095,5,-7,0,0,0,0,0,0
2503,1765227916172,5,-9,0,0,0,0,0,0
2504,1765227916252,7,-10,0,0,0,0,0,0
2505,1765227916470,3,-7,-1,0,0,0,0,0
2506,1765227916728,4,-8,0,0,0,0,0,0
2507,1765227916904,7,-9,0,0,0,0,0,0
2508,1765227916987,3,-9,-1,0,0,0,0,0
2509,1765227917203,5,-9,2,0,0,0,0,0
2510,1765227917320,5,-10,0,0,0,0,0,0
2511,1765227917519,3,-8,-1,0,0,0,0,0
2512,1765227917668,5,-9,0,0,0,0,0,0
2513,1765227917912,3,-8,1,0,0,0,0,0
2514,1765227917978,7,-10,1,0,0,0,0,0
2515,1765227918046,6,-9,-1,0,0,0,0,0
2516,1765227918177,5,-8,1,0,0,0,0,0
2517,1765227918378,6,-10,1,0,0,0,0,0
2518,1765227918796,5,-9,1,0,0,0,0,0
2519,1765227918930,5,-8,1,0,0,0,0,0
2520,1765227919094,4,-9,0,0,0,0,0,0
2521,1765227919279,4,-9,0,0,0,0,0,0
2522,1765227919446,5,-8,0,0,0,0,0,0
2523,1765227919537,4,-8,0,0,0,0,0,0
2524,1765227919775,5,-9,-1,0,0,0,0,0
2525,1765227919845,7,-8,0,0,0,0,0,0
2526,1765227919977,5,-7,0,0,0,0,0,0
2527,1765227920642,4,-8,1,0,0,0,0,0
2528,1765227920688,5,-8,1,0,0,0,0,0
2529,1765227920712,5,-10,1,0,0,0,0,0
2530,1765227920728,5,-9,1,0,0,0,0,0
2531,1765227920923,5,-9,-1,0,0,0,0,0
2532,1765227921079,5,-9,-1,0,0,0,0,0
2533,1765227921306,5,-9,-1,0,0,0,0,0
2534,1765227921413,4,-9,1,0,0,0,0,0
2535,1765227921640,6,-9,0,0,0,0,0,0
2536,1765227921779,6,-9,-1,0,0,0,0,0
2537,1765227922062,4,-8,-1,0,0,0,0,0
2538,1765227922153,3,-7,0,0,0,0,0,0
2539,1765227922529,5,-9,-1,0,0,0,0,0
2540,1765227932604,3,-8,-1,0,0,0,0,0
2541,1765227932779,4,-8,-1,0,0,0,0,0
2542,1765227932897,4,-8,1,0,0,0,0,0
2543,1765227933121,5,-9,0,0,0,0,0,0
2544,1765227933204,5,-9,-1,0,0,0,0,0
2545,1765227933446,7,-8,0,0,0,0,0,0
2546,1765227933522,4,-8,0,0,0,0,0,0
2547,1765227933740,6,-8,0,0,0,0,0,0
2548,1765227933854,5,-9,0,0,0,0,0,0
2549,1765227934004,5,-8,-1,0,0,0,0,0
2550,1765227934179,5,-9,0,0,0,0,0,0
2551,1765227934395,4,-8,0,0,0,0,0,0
2552,1765227934471,5,-9,0,0,0,0,0,0
2553,1765227934688,3,-10,0,0,0,0,0,0
2554,1765227934913,3,-10,0,0,0,0,0,0
2555,1765227935146,4,-7,0,0,0,0,0,0
2556,1765227935287,4,-7,-1,0,0,0,0,0
2557,1765227935446,7,-10,0,0,0,0,0,0
2558,1765227935588,5,-7,-3,0,0,0,0,0
2559,1765227935987,5,-8,-1,0,0,0,0,0
2560,1765227936122,7,-9,-2,0,0,0,0,0
2561,1765227936287,5,-7,0,0,0,0,0,0
2562,1765227936722,5,-10,0,0,0,0,0,0
2563,1765227936820,4,-8,-1,0,0,0,0,0
2564,1765227937020,6,-8,0,0,0,0,0,0
2565,1765227937162,5,-8,1,0,0,0,0,0
2566,1765227937347,5,-9,1,0,0,0,0,0
2567,1765227937486,5,-8,-1,0,0,0,0,0
2568,1765227937862,3,-9,1,0,0,0,0,0
2569,1765227938003,5,-8,0,0,0,0,0,0
2570,1765227938229,4,-9,0,0,0,0,0,0
2571,1765227938437,4,-7,-1,0,0,0,0,0
2572,1765227938605,5,-9,0,0,0,0,0,0
2573,1765227938779,3,-9,0,0,0,0,0,0
2574,1765227938896,4,-9,1,0,0,0,0,0
2575,1765227938965,5,-9,1,0,0,0,0,0
2576,1765227939037,4,-9,0,0,0,0,0,0
2577,1765227939303,6,-9,-256,0,0,0,0,0
2578,1765227939395,5,-8,-1,0,0,0,0,0
2579,1765227939729,5,-8,0,0,0,0,0,0
2580,1765227940003,3,-9,-1,0,0,0,0,0
2581,1765227940087,5,-9,-2,0,0,0,0,0
2582,1765227940220,4,-9,1,0,0,0,0,0
2583,1765227940428,4,-10,-1,0,0,0,0,0
2584,1765227940513,5,-8,0,0,0,0,0,0
2585,1765227940778,4,-9,0,0,0,0,0,0
2586,1765227940870,5,-8,0,0,0,0,0,0
2587,1765227941608,5,-9,0,0,0,0,0,0
2588,1765227941629,4,-9,-1,0,0,0,0,0
2589,1765227941652,5,-9,0,0,0,0,0,0
2590,1765227941672,5,-9,0,0,0,0,0,0
2591,1765227941703,6,-9,1,0,0,0,0,0
2592,1765227941945,3,-8,-1,0,0,0,0,0
2593,1765227942074,3,-8,-1,0,0,0,0,0
2594,1765227942160,5,-9,1,0,0,0,0,0
2595,1765227942366,4,-8,-1,0,0,0,0,0
2596,1765227942449,4,-9,0,0,0,0,0,0
2597,1765227942767,4,-9,-2,0,0,0,0,0
2598,1765227942874,4,-10,-1,0,0,0,0,0
2599,1765227943073,6,-8,-1,0,0,0,0,0
2600,1765227943156,3,-8,0,0,0,0,0,0
2601,1765227943264,6,-8,1,0,0,0,0,0
2602,1765227943408,4,-9,-1,0,0,0,0,0
2603,1765227943642,5,-8,0,0,0,0,0,0
2604,1765227943825,4,-9,0,0,0,0,0,0
2605,1765227943875,3,-9,1,0,0,0,0,0
2606,1765227944042,4,-9,-1,0,0,0,0,0
2607,1765227944165,4,-9,0,0,0,0,0,0
2608,1765227944375,4,-8,1,0,0,0,0,0
2609,1765227944432,6,-9,1,0,0,0,0,0
2610,1765227944558,4,-8,0,0,0,0,0,0
2611,1765227944774,5,-9,-1,0,0,0,0,0
2612,1765227944849,4,-9,1,0,0,0,0,0
2613,1765227945119,6,-8,0,0,0,0,0,0
2614,1765227945259,1,-9,1,0,0,0,0,0
2615,1765227945516,8,-10,2,0,0,0,0,0
2616,1765227945616,9,-10,-8,0,0,0,0,0
2617,1765227945741,5,-9,-2,0,0,0,0,0
2618,1765227945857,2,-8,0,0,0,0,0,0
2619,1765227946023,6,-9,0,0,0,0,0,0
2620,1765227946149,5,-10,-1,0,0,0,0,0
2621,1765227946490,6,-8,0,0,0,0,0,0
2622,1765227946566,4,-10,-1,0,0,0,0,0
2623,1765227946774,7,-9,0,0,0,0,0,0
2624,1765227946949,5,-9,1,0,0,0,0,0
2625,1765227947115,4,-7,0,0,0,0,0,0
2626,1765227947324,4,-9,1,0,0,0,0,0
2627,1765227947582,5,-8,0,0,0,0,0,0
2628,1765227947732,3,-11,0,0,0,0,0,0
2629,1765227947856,5,-9,1,0,0,0,0,0
2630,1765227948016,5,-9,0,0,0,0,0,0
2631,1765227948107,6,-8,0,0,0,0,0,0
2632,1765227948199,6,-9,1,0,0,0,0,0
2633,1765227948424,6,-9,-1,0,0,0,0,0
2634,1765227948507,4,-8,0,0,0,0,0,0
2635,1765227948725,4,-8,-1,0,0,0,0,0
2636,1765227948906,5,-8,0,0,0,0,0,0
2637,1765227949157,6,-9,0,0,0,0,0,0
2638,1765227949265,4,-9,0,0,0,0,0,0
2639,1765227949381,5,-8,0,0,0,0,0,0
2640,1765227949540,3,-8,0,0,0,0,0,0
2641,1765227949665,4,-9,0,0,0,0,0,0
2642,1765227949840,5,-9,0,0,0,0,0,0
2643,1765227950074,5,-7,0,0,0,0,0,0
2644,1765227950191,5,-8,1,0,0,0,0,0
2645,1765227950450,3,-7,0,0,0,0,0,0
2646,1765227950545,4,-9,0,0,0,0,0,0
2647,1765227950757,4,-9,-1,0,0,0,0,0
2648,1765227950840,5,-8,-1,0,0,0,0,0
2649,1765227951079,4,-8,0,0,0,0,0,0
2650,1765227951202,4,-8,-1,0,0,0,0,0
2651,1765227951323,5,-10,0,0,0,0,0,0
2652,1765227951499,4,-9,-1,0,0,0,0,0
2653,1765227951874,3,-10,-1,0,0,0,0,0
2654,1765227952569,4,-8,-1,0,0,0,0,0
2655,1765227952601,6,-9,-1,0,0,0,0,0
2656,1765227952623,5,-9,0,0,0,0,0,0
2657,1765227952657,4,-9,0,0,0,0,0,0
2658,1765227952678,4,-9,0,0,0,0,0,0
2659,1765227952909,6,-9,-1,0,0,0,0,0
2660,1765227953052,3,-9,0,0,0,0,0,0
2661,1765227953118,3,-7,0,0,0,0,0,0
2662,1765227953276,6,-9,0,0,0,0,0,0
2663,1765227953451,5,-8,1,0,0,0,0,0
2664,1765227953571,5,-9,0,0,0,0,0,0
2665,1765227953752,5,-9,0,0,0,0,0,0
2666,1765227953961,3,-9,1,0,0,0,0,0
2667,1765227954276,5,-9,-1,0,0,0,0,0
2668,1765227954325,5,-9,1,0,0,0,0,0
2669,1765227954409,5,-9,1,0,0,0,0,0
2670,1765227954635,6,-9,1,0,0,0,0,0
2671,1765227954734,2,-8,0,0,0,0,0,0
2672,1765227954926,6,-8,0,0,0,0,0,0
2673,1765227955075,4,-9,-1,0,0,0,0,0
2674,1765227955377,5,-7,-1,0,0,0,0,0
2675,1765227955502,5,-10,0,0,0,0,0,0
2676,1765227955744,3,-7,-1,0,0,0,0,0
2677,1765227955893,5,-9,0,0,0,0,0,0
2678,1765227956035,4,-10,-1,0,0,0,0,0
2679,1765227956244,5,-8,-1,0,0,0,0,0
2680,1765227956485,5,-9,1,0,0,0,0,0
2681,1765227956684,3,-9,0,0,0,0,0,0
2682,1765227956776,3,-10,-1,0,0,0,0,0
2683,1765227957060,3,-9,1,0,0,0,0,0
2684,1765227957151,6,-9,2,0,0,0,0,0
2685,1765227957376,7,-9,0,0,0,0,0,0
2686,1765227957817,5,-8,0,0,0,0,0,0
2687,1765227957893,4,-8,-1,0,0,0,0,0
2688,1765227958119,2,-9,-1,0,0,0,0,0
2689,1765227958218,5,-10,1,0,0,0,0,0
2690,1765227958250,4,-8,-1,0,0,0,0,0
2691,1765227958476,3,-8,0,0,0,0,0,0
2692,1765227958611,7,-9,0,0,0,0,0,0
2693,1765227959001,7,-9,-2,0,0,0,0,0
2694,1765227959235,3,-9,-1,0,0,0,0,0
2695,1765227959352,5,-8,0,0,0,0,0,0
2696,1765227959593,6,-7,-1,0,0,0,0,0
2697,1765227959752,5,-10,0,0,0,0,0,0
2698,1765227959968,5,-8,-1,0,0,0,0,0
2699,1765227960192,6,-7,0,0,0,0,0,0
2700,1765227960352,4,-9,-1,0,0,0,0,0
2701,1765227960559,4,-9,-1,0,0,0,0,0
2702,1765227960643,6,-8,-1,0,0,0,0,0
2703,1765227960926,5,-9,0,0,0,0,0,0
2704,1765227961009,4,-9,1,0,0,0,0,0
2705,1765227961310,2,-8,1,0,0,0,0,0
2706,1765227961452,3,2040,-7780,0,0,0,0,0
2707,1765227961676,7,-8,2,0,0,0,0,0
2708,1765227961759,5,-8,0,0,0,0,0,0
2709,1765227962035,4,-8,-2,0,0,0,0,0
2710,1765227962043,6,-9,1,0,0,0,0,0
2711,1765227962117,4,-8,-1,0,0,0,0,0
2712,1765227962426,3,-9,2,0,0,0,0,0
2713,1765227962625,5,-9,0,0,0,0,0,0
2714,1765227962817,3,-8,0,0,0,0,0,0
2715,1765227962909,2,-9,-2,0,0,0,0,0
2716,1765227963756,7,-9,-1,0,0,0,0,0
2717,1765227963792,5,-10,1,0,0,0,0,0
2718,1765227963821,5,-10,0,0,0,0,0,0
2719,1765227963887,6,-8,2,0,0,0,0,0
2720,1765227963903,3,-9,1,0,0,0,0,0
2721,1765227964047,5,-10,-1,0,0,0,0,0
2722,1765227964220,3,-8,-1,0,0,0,0,0
2723,1765227964454,4,-8,0,0,0,0,0,0
2724,1765227964557,3,-10,1,0,0,0,0,0
2725,1765227964898,6,-8,0,0,0,0,0,0
2726,1765227965013,6,-7,-1,0,0,0,0,0
2727,1765227965188,3,-8,-1,0,0,0,0,0
2728,1765227965223,6,-9,0,0,0,0,0,0
2729,1765227965330,4,-8,-1,0,0,0,0,0
2730,1765227965572,6,-8,0,0,0,0,0,0
2731,1765227965704,5,-9,1,0,0,0,0,0
2732,1765227965937,4,-9,-2,0,0,0,0,0
2733,1765227966197,4,-7,0,0,0,0,0,0
2734,1765227966305,5,-9,-1,0,0,0,0,0
2735,1765227966680,5,-9,0,0,0,0,0,0
2736,1765227966871,4,-8,1,0,0,0,0,0
2737,1765227967013,5,-9,1,0,0,0,0,0
2738,1765227967355,3,-8,-1,0,0,0,0,0
2739,1765227967430,5,-8,-1,0,0,0,0,0
2740,1765227967646,5,-9,0,0,0,0,0,0
2741,1765227967771,4,-11,1,0,0,0,0,0
2742,1765227967787,4,-10,0,0,0,0,0,0
2743,1765227967964,6,-8,-1,0,0,0,0,0
2744,1765227968122,5,-7,2,0,0,0,0,0
2745,1765227968364,6,-10,1,0,0,0,0,0
2746,1765227968582,3,-8,0,0,0,0,0,0
2747,1765227968750,5,-8,-2,0,0,0,0,0
2748,1765227968922,5,-7,-1,0,0,0,0,0
2749,1765227969133,4,-9,0,0,0,0,0,0
2750,1765227969259,5,-8,0,0,0,0,0,0
2751,1765227969476,5,-9,-1,0,0,0,0,0
2752,1765227969586,3,-9,0,0,0,0,0,0
2753,1765227969723,4,-8,-1,0,0,0,0,0
2754,1765227969858,6,-9,0,0,0,0,0,0
2755,1765227970066,6,-9,-1,0,0,0,0,0
2756,1765227970148,6,-9,0,0,0,0,0,0
2757,1765227970548,4,-8,0,0,0,0,0,0
2758,1765227970676,6,-9,0,0,0,0,0,0
2759,1765227970840,3,-9,-1,0,0,0,0,0
2760,1765227971012,6,-10,1,0,0,0,0,0
2761,1765227971146,4,-9,0,0,0,0,0,0
2762,1765227971229,4,-8,-1,0,0,0,0,0
2763,1765227971505,7,-9,0,0,0,0,0,0
2764,1765227971604,5,-8,-1,0,0,0,0,0
2765,1765227971788,5,-8,0,0,0,0,0,0
2766,1765227971945,6,-10,1,0,0,0,0,0
2767,1765227972122,4,-10,-1,0,0,0,0,0
2768,1765227972238,3,-8,0,0,0,0,0,0
2769,1765227972271,6,-8,0,0,0,0,0,0
2770,1765227972337,5,-8,1,0,0,0,0,0
2771,1765227972579,4,-8,-1,0,0,0,0,0
2772,1765227972721,3,-8,0,0,0,0,0,0
2773,1765227973038,3,-9,-2,0,0,0,0,0
2774,1765227973214,6,-9,0,0,0,0,0,0
2775,1765227973329,12,-11,1,0,0,0,0,0
2776,1765227973540,3,-8,4,0,0,0,0,0
2777,1765227973639,6,-8,-4,0,0,0,0,0
2778,1765227973716,5,-11,6,0,0,0,0,0
2779,1765227973979,2,-8,-1,0,0,0,0,0
2780,1765227974029,7,-8,-4,0,0,0,0,0
2781,1765227974735,4,-9,-3,0,0,0,0,0
2782,1765227974741,5,-10,1,0,0,0,0,0
2783,1765227974778,6,-10,1,0,0,0,0,0
2784,1765227974793,6,-7,3,0,0,0,0,0
2785,1765227974872,3,-10,-7,0,0,0,0,0
2786,1765227975080,5,-9,-2,0,0,0,0,0
2787,1765227975265,4,-8,4,0,0,0,0,0
2788,1765227975423,8,-8,2,0,0,0,0,0
2789,1765227975564,4,-9,-1,0,0,0,0,0
2790,1765227975714,4,-8,2,0,0,0,0,0
2791,1765227975856,7,-9,-1,0,0,0,0,0
2792,1765227976032,3,-7,-3,0,0,0,0,0
2793,1765227976106,10,-12,5,0,0,0,0,0
2794,1765227976240,1,-7,3,0,0,0,0,0
2795,1765227976439,4,-8,-6,0,0,0,0,0
2796,1765227976556,7,-9,-1,0,0,0,0,0
2797,1765227976831,3,-8,3,0,0,0,0,0
2798,1765227976973,5,-9,0,0,0,0,0,0
2799,1765227977107,5,-9,-2,0,0,0,0,0
2800,1765227977272,5,-7,4,0,0,0,0,0
2801,1765227977331,3,-9,2,0,0,0,0,0
2802,1765227977415,0,-9,-6,0,0,0,0,0
2803,1765227977625,6,-9,-1,0,0,0,0,0
2804,1765227977732,4,-9,4,0,0,0,0,0
2805,1765227977938,6,-10,-2,0,0,0,0,0
2806,1765227978014,8,-7,-3,0,0,0,0,0
2807,1765227978149,2,-10,2,0,0,0,0,0
2808,1765227978290,4,-7,3,0,0,0,0,0
2809,1765227978440,6,-11,0,0,0,0,0,0
2810,1765227978585,4,-9,2,0,0,0,0,0
2811,1765227978797,6,-10,-3,0,0,0,0,0
2812,1765227978872,1,-8,7,0,0,0,0,0
2813,1765227979114,6,-7,-4,0,0,0,0,0
2814,1765227979315,5,-8,-3,0,0,0,0,0
2815,1765227979439,4,-8,2,0,0,0,0,0
2816,1765227979597,4,-9,2,0,0,0,0,0
2817,1765227979714,4,-9,-1,0,0,0,0,0
2818,1765227979906,3,-7,1,0,0,0,0,0
2819,1765227980039,4,-10,0,0,0,0,0,0
2820,1765227980180,4,-8,0,0,0,0,0,0
2821,1765227980355,5,-8,0,0,0,0,0,0
2822,1765227980405,3,-7,0,0,0,0,0,0
2823,1765227980539,4,-9,-256,0,0,0,0,0
2824,1765227980755,4,-8,0,0,0,0,0,0
2825,1765227980822,4,-8,1,0,0,0,0,0
2826,1765227981031,4,-9,0,0,0,0,0,0
2827,1765227981198,2,-10,0,0,0,0,0,0
2828,1765227981281,4,-9,1,0,0,0,0,0
2829,1765227981481,7,-8,-1,0,0,0,0,0
2830,1765227981656,6,-8,-1,0,0,0,0,0
2831,1765227981838,2,-8,0,0,0,0,0,0
2832,1765227981997,3,-8,0,0,0,0,0,0
2833,1765227982138,1,-8,0,0,0,0,0,0
2834,1765227982297,3,-8,-1,0,0,0,0,0
2835,1765227982422,5,-9,0,0,0,0,0,0
2836,1765227982571,3,-8,1,0,0,0,0,0
2837,1765227982705,4,-9,0,0,0,0,0,0
2838,1765227983130,4,-7,-1,0,0,0,0,0
2839,1765227983222,5,-10,1,0,0,0,0,0
2840,1765227983414,4,-7,-1,0,0,0,0,0
2841,1765227983482,6,-9,0,0,0,0,0,0
2842,1765227983506,4,-8,0,0,0,0,0,0
2843,1765227983659,7,-8,-1,0,0,0,0,0
2844,1765227983823,2,-9,1,0,0,0,0,0
2845,1765227983931,4,-9,0,0,0,0,0,0
2846,1765227984157,4,-9,0,0,0,0,0,0
2847,1765227984289,3,-8,0,0,0,0,0,0
2848,1765227984490,6,-8,0,0,0,0,0,0
2849,1765227984629,3,-10,1,0,0,0,0,0
2850,1765227984946,3,-8,-1,0,0,0,0,0
2851,1765227985647,5,-8,1,0,0,0,0,0
2852,1765227985672,5,-8,0,0,0,0,0,0
2853,1765227985684,5,-8,1,0,0,0,0,0
2854,1765227985693,4,-8,1,0,0,0,0,0
2855,1765227985710,5,-8,0,0,0,0,0,0
2856,1765227985768,3,-7,0,0,0,0,0,0
2857,1765227985819,4,-9,-1,0,0,0,0,0
2858,1765227986137,4,-9,0,0,0,0,0,0
2859,1765227986279,7,-9,1,0,0,0,0,0
2860,1765227986432,4,-8,-1,0,0,0,0,0
2861,1765227986623,4,-9,0,0,0,0,0,0
2862,1765227986790,6,-9,0,0,0,0,0,0
2863,1765227986915,4,-9,-1,0,0,0,0,0
2864,1765227987131,4,-8,1,0,0,0,0,0
2865,1765227987264,4,-8,0,0,0,0,0,0
2866,1765227987521,6,-8,0,0,0,0,0,0
2867,1765227988048,6,-9,4,0,0,0,0,0
2868,1765227988221,5,-10,2,0,0,0,0,0
2869,1765227988381,3,-8,-3,0,0,0,0,0
2870,1765227988523,5,-9,-1,0,0,0,0,0
2871,1765227988614,6,-8,-1,0,0,0,0,0
2872,1765227988823,4,-7,-1,0,0,0,0,0
2873,1765227988914,4,-9,0,0,0,0,0,0
2874,1765227989189,4,-9,-1,0,0,0,0,0
2875,1765227989305,3,-8,0,0,0,0,0,0
2876,1765227989414,6,-7,-1,0,0,0,0,0
2877,1765227989606,3,-8,1,0,0,0,0,0
2878,1765227989930,3,-7,1,0,0,0,0,0
2879,1765227990006,5,-9,0,0,0,0,0,0
2880,1765227990239,4,-8,0,0,0,0,0,0
2881,1765227990621,4,-10,0,0,0,0,0,0
2882,1765227990729,4,-7,0,0,0,0,0,0
2883,1765227990971,5,-9,1,0,0,0,0,0
2884,1765227991020,4,-8,-1,0,0,0,0,0
2885,1765227991146,3,-7,0,0,0,0,0,0
2886,1765227991364,4,-9,0,0,0,0,0,0
2887,1765227991548,3,-9,-1,0,0,0,0,0
2888,1765227991690,4,-9,1,0,0,0,0,0
2889,1765227991822,3,-9,1,0,0,0,0,0
2890,1765227992062,4,-9,0,0,0,0,0,0
2891,1765227992130,4,-8,0,0,0,0,0,0
2892,1765227992355,4,-9,0,0,0,0,0,0
2893,1765227992455,5,-9,0,0,0,0,0,0
2894,1765227992788,4,-8,0,0,0,0,0,0
2895,1765227993137,4,-7,0,0,0,0,0,0
2896,1765227993212,6,-10,0,0,0,0,0,0
2897,1765227993438,3,-8,-2,0,0,0,0,0
2898,1765227993542,4,-10,0,0,0,0,0,0
2899,1765227993837,4,-8,-2,0,0,0,0,0
2900,1765227994170,3,-9,1,0,0,0,0,0
2901,1765227994531,6,-9,0,0,0,0,0,0
2902,1765227994645,3,-9,0,0,0,0,0,0
2903,1765227994829,4,-8,1,0,0,0,0,0
2904,1765227994981,4,-8,1,0,0,0,0,0
2905,1765227995180,4,-7,0,0,0,0,0,0
2906,1765227995279,6,-10,0,0,0,0,0,0
2907,1765227995505,4,-8,-1,0,0,0,0,0
2908,1765227995663,6,-9,0,0,0,0,0,0
2909,1765227995770,4,-8,-1,0,0,0,0,0
2910,1765227995954,4,-8,1,0,0,0,0,0
2911,1765227996121,3,-9,-2,0,0,0,0,0
2912,1765227996254,4,-9,-1,0,0,0,0,0
2913,1765227996380,7,-8,1,0,0,0,0,0
2914,1765227996611,4,-8,0,0,0,0,0,0
2915,1765227996696,5,-10,0,0,0,0,0,0
2916,1765227997346,6,-9,0,0,0,0,0,0
2917,1765227997384,4,-9,0,0,0,0,0,0
2918,1765227997425,6,-8,-1,0,0,0,0,0
2919,1765227997441,5,-9,0,0,0,0,0,0
2920,1765227997727,5,-9,1,0,0,0,0,0
2921,1765227997836,4,-7,0,0,0,0,0,0
2922,1765227998020,5,-9,0,0,0,0,0,0
2923,1765227998337,6,-9,1,0,0,0,0,0
2924,1765227998447,4,-8,0,0,0,0,0,0
2925,1765227998672,6,-9,-1,0,0,0,0,0
2926,1765227998740,2,-7,0,0,0,0,0,0
2927,1765227998830,3,-8,1,0,0,0,0,0
2928,1765227998963,5,-9,1,0,0,0,0,0
2929,1765227999121,3,-8,1,0,0,0,0,0
2930,1765227999296,2,-8,-1,0,0,0,0,0
2931,1765227999504,6,-9,-1,0,0,0,0,0
2932,1765227999595,3,-9,1,0,0,0,0,0
2933,1765227999804,3,-8,1,0,0,0,0,0
2934,1765227999921,3,-9,0,0,0,0,0,0
2935,1765228000128,5,-7,0,0,0,0,0,0
2936,1765228000237,4,-8,0,0,0,0,0,0
2937,1765228000470,5,-8,0,0,0,0,0,0
2938,1765228000687,4,-8,0,0,0,0,0,0
2939,1765228000728,3,-9,0,0,0,0,0,0
2940,1765228000896,5,-8,-1,0,0,0,0,0
2941,1765228001078,4,-9,0,0,0,0,0,0
2942,1765228001186,5,-9,1,0,0,0,0,0
2943,1765228001563,6,-9,1,0,0,0,0,0
2944,1765228001653,4,-9,-1,0,0,0,0,0
2945,1765228001935,4,-10,2,0,0,0,0,0
2946,1765228002294,3,-9,0,0,0,0,0,0
2947,1765228002520,6,-8,1,0,0,0,0,0
2948,1765228002603,4,-8,0,0,0,0,0,0
2949,1765228002669,3,-8,0,0,0,0,0,0
2950,1765228002761,3,-8,0,0,0,0,0,0
2951,1765228002956,4,-10,0,0,0,0,0,0
2952,1765228003252,5,-7,0,0,0,0,0,0
2953,1765228003303,3,-8,1,0,0,0,0,0
2954,1765228003396,5,-10,0,0,0,0,0,0
2955,1765228003629,4,-8,1,0,0,0,0,0
2956,1765228003703,4,-8,0,0,0,0,0,0
2957,1765228004053,4,-8,0,0,0,0,0,0
2958,1765228004303,6,-10,1,0,0,0,0,0
2959,1765228004428,5,-7,0,0,0,0,0,0
2960,1765228004653,3,-7,-1,0,0,0,0,0
2961,1765228004778,6,-7,-1,0,0,0,0,0
2962,1765228004994,6,-9,0,0,0,0,0,0
2963,1765228005069,3,-8,-1,0,0,0,0,0
2964,1765228005252,5,-8,-1,0,0,0,0,0
2965,1765228005529,5,-10,1,0,0,0,0,0
2966,1765228005771,2,-10,-1,0,0,0,0,0
2967,1765228005885,4,-9,0,0,0,0,0,0
2968,1765228006128,4,-8,1,0,0,0,0,0
2969,1765228006186,5,-9,0,0,0,0,0,0
2970,1765228006419,5,-8,0,0,0,0,0,0
2971,1765228006553,3,-8,-1,0,0,0,0,0
2972,1765228006787,5,-10,0,0,0,0,0,0
2973,1765228006911,3,-8,0,0,0,0,0,0
2974,1765228007104,5,-7,1,0,0,0,0,0
2975,1765228007128,6,-9,-1,0,0,0,0,0
2976,1765228007268,5,-7,0,0,0,0,0,0
2977,1765228007444,5,-9,0,0,0,0,0,0
2978,1765228007562,5,-10,0,0,0,0,0,0
2979,1765228008395,4,-8,0,0,0,0,0,0
2980,1765228008415,4,-7,0,0,0,0,0,0
2981,1765228008454,4,-8,-1,0,0,0,0,0
2982,1765228008479,5,-10,-1,0,0,0,0,0
2983,1765228008628,5,-8,0,0,0,0,0,0
2984,1765228008688,3,-8,1,0,0,0,0,0
2985,1765228008935,4,-8,1,0,0,0,0,0
2986,1765228009058,4,-8,0,0,0,0,0,0
2987,1765228009283,4,-8,1,0,0,0,0,0
2988,1765228009435,0,-12,-1,0,0,0,0,0
2989,1765228009601,7,-8,0,0,0,0,0,0
2990,1765228009775,4,-9,-2,0,0,0,0,0
2991,1765228009858,4,-6,0,0,0,0,0,0
2992,1765228010068,5,-8,0,0,0,0,0,0
2993,1765228010691,4,-9,-1,0,0,0,0,0
2994,1765228010843,5,-9,0,0,0,0,0,0
2995,1765228010950,4,-9,-1,0,0,0,0,0
2996,1765228011151,3,-6,0,0,0,0,0,0
2997,1765228011235,4,-9,0,0,0,0,0,0
2998,1765228011433,5,-9,1,0,0,0,0,0
2999,1765228011641,4,-9,0,0,0,0,0,0
3000,1765228011858,3,-7,1,0,0,0,0,0
3001,1765228012000,3,-9,-2,0,0,0,0,0
3002,1765228012249,6,-8,1,0,0,0,0,0
3003,1765228012383,5,-8,0,0,0,0,0,0
3004,1765228012525,5,-7,0,0,0,0,0,0
3005,1765228012683,4,-10,2,0,0,0,0,0
3006,1765228012741,5,-8,0,0,0,0,0,0
3007,1765228012833,5,-8,-1,0,0,0,0,0
3008,1765228013141,5,-8,0,0,0,0,0,0
3009,1765228013233,5,-8,-1,0,0,0,0,0
3010,1765228013517,4,-8,-1,0,0,0,0,0
3011,1765228013619,5,-8,0,0,0,0,0,0
3012,1765228013819,4,-8,0,0,0,0,0,0
3013,1765228013898,3,-9,0,0,0,0,0,0
3014,1765228014107,3,-10,1,0,0,0,0,0
3015,1765228014350,2,-8,0,0,0,0,0,0
3016,1765228014550,6,-10,0,0,0,0,0,0
3017,1765228014724,4,-9,0,0,0,0,0,0
3018,1765228014899,4,-8,0,0,0,0,0,0
3019,1765228015008,7,-8,1,0,0,0,0,0
3020,1765228015167,3,-8,-1,0,0,0,0,0
3021,1765228015391,5,-10,1,0,0,0,0,0
3022,1765228015573,4,-9,0,0,0,0,0,0
3023,1765228015774,5,-9,0,0,0,0,0,0
3024,1765228015865,4,-9,0,0,0,0,0,0
3025,1765228015957,3,-8,-1,0,0,0,0,0
3026,1765228016167,5,-9,1,0,0,0,0,0
3027,1765228016242,3,-9,0,0,0,0,0,0
3028,1765228016450,3,-9,0,0,0,0,0,0
3029,1765228016466,3,-8,2,0,0,0,0,0
3030,1765228016624,4,-7,0,0,0,0,0,0
3031,1765228016757,6,-8,2,0,0,0,0,0
3032,1765228016983,3,-8,0,0,0,0,0,0
3033,1765228017083,5,-8,0,0,0,0,0,0
3034,1765228017223,5,-8,1,0,0,0,0,0
3035,1765228017365,4,-8,0,0,0,0,0,0
3036,1765228017515,6,-9,0,0,0,0,0,0
3037,1765228017657,5,-9,0,0,0,0,0,0
3038,1765228017740,6,-9,0,0,0,0,0,0
3039,1765228017833,4,-8,1,0,0,0,0,0
3040,1765228018023,3,-9,-1,0,0,0,0,0
3041,1765228018216,7,-8,1,0,0,0,0,0
3042,1765228018308,5,-9,-1,0,0,0,0,0
3043,1765228018508,4,-8,-1,0,0,0,0,0
3044,1765228018593,6,-8,1,0,0,0,0,0
3045,1765228019382,5,-8,0,0,0,0,0,0
3046,1765228019401,8,-8,-1,0,0,0,0,0
3047,1765228019425,4,-8,-1,0,0,0,0,0
3048,1765228019445,5,-9,-1,0,0,0,0,0
3049,1765228019484,4,-8,1,0,0,0,0,0
3050,1765228019509,4,-8,-1,0,0,0,0,0
3051,1765228019661,4,-8,0,0,0,0,0,0
3052,1765228019755,4,-8,-1,0,0,0,0,0
3053,1765228019979,3,-9,0,0,0,0,0,0
3054,1765228020045,4,-8,0,0,0,0,0,0
3055,1765228020214,4,-9,0,0,0,0,0,0
3056,1765228020414,4,-9,0,0,0,0,0,0
3057,1765228020571,4,-9,-1,0,0,0,0,0
3058,1765228020847,5,-10,0,0,0,0,0,0
3059,1765228021081,4,-8,0,0,0,0,0,0
3060,1765228021147,5,-8,0,0,0,0,0,0
3061,1765228021371,5,-9,-1,0,0,0,0,0
3062,1765228021522,3,-8,0,0,0,0,0,0
3063,1765228021681,4,-8,-1,0,0,0,0,0
3064,1765228021815,5,-8,-1,0,0,0,0,0
3065,1765228022188,4,-9,1,0,0,0,0,0
3066,1765228022255,5,-8,-1,0,0,0,0,0
3067,1765228022471,3,-8,0,0,0,0,0,0
3068,1765228022579,4,-7,-1,0,0,0,0,0
3069,1765228022764,4,-8,0,0,0,0,0,0
3070,1765228022897,4,-8,-1,0,0,0,0,0
3071,1765228023214,4,-8,1,0,0,0,0,0
3072,1765228023296,4,-8,0,0,0,0,0,0
3073,1765228023567,5,-7,1,0,0,0,0,0
3074,1765228023673,4,-9,0,0,0,0,0,0
3075,1765228023855,4,-8,0,0,0,0,0,0
3076,1765228023997,3,-9,0,0,0,0,0,0
3077,1765228024197,5,-7,1,0,0,0,0,0
3078,1765228024422,4,-8,0,0,0,0,0,0
3079,1765228024605,3,-9,-256,0,0,0,0,0
3080,1765228024655,4,-9,-1,0,0,0,0,0
3081,1765228024764,6,-9,0,0,0,0,0,0
3082,1765228024947,4,-8,-1,0,0,0,0,0
3083,1765228025096,3,-8,-1,0,0,0,0,0
3084,1765228025247,4,-9,0,0,0,0,0,0
3085,1765228025387,6,-8,0,0,0,0,0,0
3086,1765228025697,3,-8,0,0,0,0,0,0
3087,1765228025767,5,-9,0,0,0,0,0,0
3088,1765228026021,3,-9,0,0,0,0,0,0
3089,1765228026088,4,-7,0,0,0,0,0,0
3090,1765228026330,4,-8,-1,0,0,0,0,0
3091,1765228026429,4,-9,1,0,0,0,0,0
3092,1765228026604,2,-9,1,0,0,0,0,0
3093,1765228026831,3,-9,-1,0,0,0,0,0
3094,1765228027071,6,-8,-1,0,0,0,0,0
3095,1765228027155,5,-10,0,0,0,0,0,0
3096,1765228027429,4,-8,0,0,0,0,0,0
3097,1765228027529,2,-9,0,0,0,0,0,0
3098,1765228027729,3,-8,1,0,0,0,0,0
3099,1765228028154,5,-8,1,0,0,0,0,0
3100,1765228028231,5,-8,0,0,0,0,0,0
3101,1765228028446,6,-9,-1,0,0,0,0,0
3102,1765228028505,4,-8,-1,0,0,0,0,0
3103,1765228028564,4,-7,-1,0,0,0,0,0
3104,1765228028787,3,-10,0,0,0,0,0,0
3105,1765228028896,4,-8,1,0,0,0,0,0
3106,1765228029288,6,-8,0,0,0,0,0,0
3107,1765228029529,4,-7,0,0,0,0,0,0
3108,1765228029587,4,-9,0,0,0,0,0,0
3109,1765228030247,3,-9,-1,0,0,0,0,0
3110,1765228030260,6,-6,0,0,0,0,0,0
3111,1765228030308,4,-9,1,0,0,0,0,0
3112,1765228030600,3,-9,0,0,0,0,0,0
3113,1765228030685,6,-7,0,0,0,0,0,0
3114,1765228030918,4,-8,-1,0,0,0,0,0
3115,1765228031034,5,-8,0,0,0,0,0,0
3116,1765228031285,5,-8,-1,0,0,0,0,0
3117,1765228031367,6,-10,0,0,0,0,0,0
3118,1765228031794,5,-8,0,0,0,0,0,0
3119,1765228032002,4,-8,1,0,0,0,0,0
3120,1765228032083,4,-7,1,0,0,0,0,0
3121,1765228032360,4,-8,1,0,0,0,0,0
3122,1765228032435,5,-8,0,0,0,0,0,0
3123,1765228032744,4,-9,1,0,0,0,0,0
3124,1765228032936,5,-9,-1,0,0,0,0,0
3125,1765228033109,5,-9,0,0,0,0,0,0
3126,1765228033176,5,-8,0,0,0,0,0,0
3127,1765228033411,4,-8,-1,0,0,0,0,0
3128,1765228033554,5,-8,0,0,0,0,0,0
3129,1765228033768,5,-10,1,0,0,0,0,0
3130,1765228034034,6,-7,0,0,0,0,0,0
3131,1765228034146,2,-9,0,0,0,0,0,0
3132,1765228034276,3,-9,0,0,0,0,0,0
3133,1765228034502,3,-8,-1,0,0,0,0,0
3134,1765228034600,4,-8,0,0,0,0,0,0
3135,1765228034817,4,-8,1,0,0,0,0,0
3136,1765228034953,5,-8,0,0,0,0,0,0
3137,1765228035226,6,-10,1,0,0,0,0,0
3138,1765228035443,4,-8,-1,0,0,0,0,0
3139,1765228035585,4,-8,1,0,0,0,0,0
3140,1765228035692,3,-8,1,0,0,0,0,0
3141,1765228035934,6,-9,0,0,0,0,0,0
3142,1765228036109,3,-8,0,0,0,0,0,0
3143,1765228036325,5,-10,1,0,0,0,0,0
3144,1765228036568,5,-9,-1,0,0,0,0,0
3145,1765228036642,5,-8,1,0,0,0,0,0
3146,1765228036833,5,-8,1,0,0,0,0,0
3147,1765228036993,4,-8,0,0,0,0,0,0
3148,1765228037208,3,-9,0,0,0,0,0,0
3149,1765228037317,5,-9,0,0,0,0,0,0
3150,1765228037659,5,-9,-1,0,0,0,0,0
3151,1765228037738,5,-7,0,0,0,0,0,0
3152,1765228037948,7,-9,0,0,0,0,0,0
3153,1765228038079,4,-9,1,0,0,0,0,0
3154,1765228038217,5,-9,-1,0,0,0,0,0
3155,1765228038400,3,-9,0,0,0,0,0,0
3156,1765228038612,4,-8,0,0,0,0,0,0
3157,1765228038809,5,-8,-1,0,0,0,0,0
3158,1765228039043,3,-8,-1,0,0,0,0,0
3159,1765228039151,5,-10,-1,0,0,0,0,0
3160,1765228039475,6,-8,0,0,0,0,0,0
3161,1765228039717,4,-9,1,0,0,0,0,0
3162,1765228039817,4,-9,1,0,0,0,0,0
3163,1765228040141,7,-8,-1,0,0,0,0,0
3164,1765228040234,4,-8,-1,0,0,0,0,0
3165,1765228040441,4,-9,-256,0,0,0,0,0
3166,1765228041158,4,-8,0,0,0,0,0,0
3167,1765228041163,6,-7,2,0,0,0,0,0
3168,1765228041196,5,-8,0,0,0,0,0,0
3169,1765228041225,3,-8,0,0,0,0,0,0
3170,1765228041252,4,-8,1,0,0,0,0,0
3171,1765228041287,5,-8,0,0,0,0,0,0
3172,1765228041481,4,-8,0,0,0,0,0,0
3173,1765228041581,4,-9,0,0,0,0,0,0
3174,1765228041857,5,-7,0,0,0,0,0,0
3175,1765228041950,4,-7,0,0,0,0,0,0
3176,1765228042117,5,-9,0,0,0,0,0,0
3177,1765228042282,5,-8,0,0,0,0,0,0
3178,1765228042434,4,-8,2,0,0,0,0,0
3179,1765228042661,5,-9,0,0,0,0,0,0
3180,1765228042808,4,-10,0,0,0,0,0,0
3181,1765228042959,5,-8,0,0,0,0,0,0
3182,1765228043324,3,-8,1,0,0,0,0,0
3183,1765228043440,5,-9,-1,0,0,0,0,0
3184,1765228043646,5,-7,1,0,0,0,0,0
3185,1765228043723,2,-10,0,0,0,0,0,0
3186,1765228043824,5,-7,-1,0,0,0,0,0
3187,1765228044032,6,-8,0,0,0,0,0,0
3188,1765228044115,4,-9,0,0,0,0,0,0
3189,1765228044382,5,-9,0,0,0,0,0,0
3190,1765228044432,5,-9,0,0,0,0,0,0
3191,1765228044566,4,-8,0,0,0,0,0,0
3192,1765228044798,5,-8,1,0,0,0,0,0
3193,1765228044858,5,-9,1,0,0,0,0,0
3194,1765228045166,4,-8,1,0,0,0,0,0
3195,1765228045241,5,-8,0,0,0,0,0,0
3196,1765228045442,4,-7,0,0,0,0,0,0
3197,1765228045573,6,-8,0,0,0,0,0,0
3198,1765228045841,4,-8,0,0,0,0,0,0
3199,1765228045974,4,-8,1,0,0,0,0,0
3200,1765228046132,3,-9,0,0,0,0,0,0
3201,1765228046274,5,-8,0,0,0,0,0,0
3202,1765228046349,4,-9,0,0,0,0,0,0
3203,1765228046424,2,-8,0,0,0,0,0,0
3204,1765228046641,3,-9,0,0,0,0,0,0
3205,1765228046707,4,-9,0,0,0,0,0,0
3206,1765228047049,5,-8,0,0,0,0,0,0
3207,1765228047149,5,-8,-1,0,0,0,0,0
3208,1765228047340,4,-9,0,0,0,0,0,0
3209,1765228047432,4,-9,-1,0,0,0,0,0
3210,1765228047656,4,-8,0,0,0,0,0,0
3211,1765228047816,4,-8,-1,0,0,0,0,0
3212,1765228047965,4,-9,-1,0,0,0,0,0
3213,1765228048149,4,-9,0,0,0,0,0,0
3214,1765228048232,5,-9,0,0,0,0,0,0
3215,1765228048382,3,-9,0,0,0,0,0,0
