index,date,ACCEL_X,ACCEL_Y,ACCEL_Z,1,2,3,4,5
0,1765223565728,-379,7068,-2094,0,0,0,0,0
1,1765223565961,-1221,8560,-3740,0,0,0,0,0
2,1765223566111,220,5443,-3064,0,0,0,0,0
3,1765223566260,-1608,9429,-4977,0,0,0,0,0
4,1765223566444,-434,7967,-832,0,0,0,0,0
5,1765223566728,-366,8834,-589,0,0,0,0,0
6,1765223566844,-678,7789,-1085,0,0,0,0,0
7,1765223567162,-1549,8922,-926,0,0,0,0,0
8,1765223567244,-2476,8698,-878,0,0,0,0,0
9,1765223567461,-2729,6476,-985,0,0,0,0,0
10,1765223567626,-3110,8312,-1434,0,0,0,0,0
11,1765223567860,-2380,7817,-970,0,0,0,0,0
12,1765223567943,-3386,7772,-1607,0,0,0,0,0
13,1765223568160,-3359,8259,-1391,0,0,0,0,0
14,1765223568260,-3041,7016,-1142,0,0,0,0,0
15,1765223568511,-2844,7819,-1468,0,0,0,0,0
16,1765223568628,-2818,8456,-872,0,0,0,0,0
17,1765223568860,-2791,8795,-1121,0,0,0,0,0
18,1765223569010,-2201,8597,-1796,0,0,0,0,0
19,1765223569277,-1816,6806,-1013,0,0,0,0,0
20,1765223569343,-1826,7417,-1363,0,0,0,0,0
21,1765223569644,-1942,8519,-1240,0,0,0,0,0
22,1765223569743,-1541,8994,-985,0,0,0,0,0
23,1765223570026,-1199,7826,-1064,0,0,0,0,0
24,1765223570361,-861,7474,-285,0,0,0,0,0
25,1765223570411,-1448,8178,-2058,0,0,0,0,0
26,1765223570661,-464,8010,-112,0,0,0,0,0
27,1765223570876,-84,7618,-2472,0,0,0,0,0
28,1765223571077,-653,7988,-304,0,0,0,0,0
29,1765223571227,-1688,8131,926,0,0,0,0,0
30,1765223571427,641,7881,-1274,0,0,0,0,0
31,1765223571461,-1355,9149,2700,0,0,0,0,0
32,1765223571745,-2086,7386,530,0,0,0,0,0
33,1765223571828,418,7979,1048,0,0,0,0,0
34,1765223572060,-1348,8372,1358,0,0,0,0,0
35,1765223572076,-871,8278,1594,0,0,0,0,0
36,1765223572210,-664,8162,1527,0,0,0,0,0
37,1765223572493,-974,8778,1604,0,0,0,0,0
38,1765223572576,-872,8103,1290,0,0,0,0,0
39,1765223572895,-1028,8045,1356,0,0,0,0,0
40,1765223572943,-698,7702,1192,0,0,0,0,0
41,1765223573260,-772,8454,1221,0,0,0,0,0
42,1765223573477,-996,8201,1288,0,0,0,0,0
43,1765223573660,-796,7148,964,0,0,0,0,0
44,1765223573862,-1103,9009,1358,0,0,0,0,0
45,1765223574043,-598,7845,478,0,0,0,0,0
46,1765223574311,-552,7808,1118,0,0,0,0,0
47,1765223574378,-519,7930,690,0,0,0,0,0
48,1765223574694,-397,8596,776,0,0,0,0,0
49,1765223574761,-686,7072,1230,0,0,0,0,0
50,1765223575078,-270,7712,2007,0,0,0,0,0
51,1765223575461,478,8654,684,0,0,0,0,0
52,1765223575593,636,8860,157,0,0,0,0,0
53,1765223575793,116,9424,428,0,0,0,0,0
54,1765223575893,1108,8986,-67,0,0,0,0,0
55,1765223576028,1846,8741,748,0,0,0,0,0
56,1765223576193,1084,7897,288,0,0,0,0,0
57,1765223576643,2556,7890,-120,0,0,0,0,0
58,1765223576877,1682,7244,-701,0,0,0,0,0
59,1765223576961,3410,9400,35,0,0,0,0,0
60,1765223577276,2968,8057,-51,0,0,0,0,0
61,1765223577428,4268,8244,155,0,0,0,0,0
62,1765223577609,3003,9474,-250,0,0,0,0,0
63,1765223577760,2142,6865,-1397,0,0,0,0,0
64,1765223577993,2220,6516,-1108,0,0,0,0,0
65,1765223578310,2633,8090,-880,0,0,0,0,0
66,1765223578426,2290,7503,-748,0,0,0,0,0
67,1765223578592,2512,9370,-864,0,0,0,0,0
68,1765223578727,1528,5763,-518,0,0,0,0,0
69,1765223578994,1834,6799,-851,0,0,0,0,0
70,1765223579127,3421,7118,-1430,0,0,0,0,0
71,1765223579275,4656,8050,-422,0,0,0,0,0
72,1765223579427,3228,8474,-1436,0,0,0,0,0
73,1765223579644,4264,9225,-1586,0,0,0,0,0
74,1765223579894,3480,8097,-1646,0,0,0,0,0
75,1765223580143,4456,9554,-1819,0,0,0,0,0
76,1765223580226,4427,8059,-1936,0,0,0,0,0
77,1765223580277,4826,7238,-2575,0,0,0,0,0
78,1765223580510,4684,8151,-2282,0,0,0,0,0
79,1765223580660,4146,7444,-2132,0,0,0,0,0
80,1765223580860,3273,6198,-1962,0,0,0,0,0
81,1765223580945,4963,8339,-94,0,0,0,0,0
82,1765223581026,4703,9068,-628,0,0,0,0,0
83,1765223581260,3195,7011,-622,0,0,0,0,0
84,1765223581711,-563,7107,-566,0,0,0,0,0
85,1765223581875,-1966,9684,-541,0,0,0,0,0
86,1765223582010,-2329,8791,-1032,0,0,0,0,0
87,1765223582194,-3711,8695,-400,0,0,0,0,0
88,1765223582427,-5037,8132,-280,0,0,0,0,0
89,1765223582627,-5765,6334,-225,0,0,0,0,0
90,1765223582726,-4730,8080,-669,0,0,0,0,0
91,1765223582810,-4337,8029,1514,0,0,0,0,0
92,1765223582993,-2006,9016,828,0,0,0,0,0
93,1765223583227,-1254,7325,-1646,0,0,0,0,0
94,1765223583494,1848,8391,-6400,0,0,0,0,0
95,1765223583577,2708,8020,-5067,0,0,0,0,0
96,1765223583810,6529,8477,-1872,0,0,0,0,0
97,1765223583944,6528,9066,-1390,0,0,0,0,0
98,1765223584177,3640,7370,-1828,0,0,0,0,0
99,1765223584277,3989,8936,-1382,0,0,0,0,0
100,1765223584510,3660,8996,-1960,0,0,0,0,0
101,1765223584625,3683,7562,-2247,0,0,0,0,0
102,1765223584960,4689,8600,-1867,0,0,0,0,0
103,1765223585061,3900,9499,-2114,0,0,0,0,0
104,1765223585260,2860,7274,-1604,0,0,0,0,0
105,1765223585294,2300,7695,-1811,0,0,0,0,0
106,1765223585393,2569,9102,-1166,0,0,0,0,0
107,1765223585676,3119,7868,426,0,0,0,0,0
108,1765223585792,3644,8026,-968,0,0,0,0,0
109,1765223586061,4431,8682,38,0,0,0,0,0
110,1765223586144,5468,10715,-524,0,0,0,0,0
111,1765223586361,4090,9319,-312,0,0,0,0,0
112,1765223586577,4432,6919,-754,0,0,0,0,0
113,1765223586810,4097,10366,-938,0,0,0,0,0
114,1765223586960,4642,8309,-482,0,0,0,0,0
115,1765223587110,6053,8583,-128,0,0,0,0,0
116,1765223587210,3969,8564,-1239,0,0,0,0,0
117,1765223587293,3768,8435,-1450,0,0,0,0,0
118,1765223587544,4263,7576,-412,0,0,0,0,0
119,1765223587710,3900,7258,-1749,0,0,0,0,0
120,1765223587910,4074,9186,-2055,0,0,0,0,0
121,1765223588012,3720,6196,-636,0,0,0,0,0
122,1765223588277,4792,7874,-865,0,0,0,0,0
123,1765223588460,2009,6465,-613,0,0,0,0,0
124,1765223588676,2542,10004,-746,0,0,0,0,0
125,1765223588828,690,8469,-813,0,0,0,0,0
126,1765223588993,931,7815,-560,0,0,0,0,0
127,1765223589211,-5413,9148,-1392,0,0,0,0,0
128,1765223589361,-6232,8330,-723,0,0,0,0,0
129,1765223589561,-5577,7055,-354,0,0,0,0,0
130,1765223589761,-6323,6879,-1059,0,0,0,0,0
131,1765223590060,-5422,9540,-359,0,0,0,0,0
132,1765223590126,-7576,7828,-404,0,0,0,0,0
133,1765223590344,-3953,6926,1407,0,0,0,0,0
134,1765223590510,-3296,9196,1390,0,0,0,0,0
135,1765223590726,-1974,7327,1822,0,0,0,0,0
136,1765223590826,-190,7935,1560,0,0,0,0,0
137,1765223590993,-175,8831,1922,0,0,0,0,0
138,1765223591193,-937,8982,98,0,0,0,0,0
139,1765223591360,249,7840,738,0,0,0,0,0
140,1765223591644,-2000,9547,640,0,0,0,0,0
141,1765223591793,-2191,9184,438,0,0,0,0,0
142,1765223591943,-1718,7630,70,0,0,0,0,0
143,1765223592161,-3778,8747,261,0,0,0,0,0
144,1765223592310,-3431,6941,263,0,0,0,0,0
145,1765223592493,-3810,7969,-150,0,0,0,0,0
146,1765223592660,-3138,8356,364,0,0,0,0,0
147,1765223592827,-3299,6772,-583,0,0,0,0,0
148,1765223593027,-3532,8294,-195,0,0,0,0,0
149,1765223593227,-4103,7420,-789,0,0,0,0,0
150,1765223593394,-3148,7090,28,0,0,0,0,0
151,1765223593527,-3994,8164,-205,0,0,0,0,0
152,1765223593710,-5128,6730,-569,0,0,0,0,0
153,1765223593810,-4576,9736,-845,0,0,0,0,0
154,1765223594160,-5739,7384,-1017,0,0,0,0,0
155,1765223594260,-5048,7723,-1463,0,0,0,0,0
156,1765223594476,-5156,7847,-1844,0,0,0,0,0
157,1765223594559,-5734,9558,-1953,0,0,0,0,0
158,1765223594693,-4385,9327,-632,0,0,0,0,0
159,1765223595010,-6408,6611,-1265,0,0,0,0,0
160,1765223595127,-6070,8385,-2145,0,0,0,0,0
161,1765223595327,-4517,8150,-756,0,0,0,0,0
162,1765223595442,-3860,8566,-279,0,0,0,0,0
163,1765223595611,-4184,6865,-128,0,0,0,0,0
164,1765223595776,-3416,8470,2443,0,0,0,0,0
165,1765223595927,-225,7737,632,0,0,0,0,0
166,1765223596144,-63,8218,9,0,0,0,0,0
167,1765223596261,-577,8971,674,0,0,0,0,0
168,1765223596444,2568,5627,1485,0,0,0,0,0
169,1765223596543,6764,9030,-1656,0,0,0,0,0
170,1765223596793,3534,7470,-2645,0,0,0,0,0
171,1765223596910,3080,8489,-1645,0,0,0,0,0
172,1765223597076,-1000,8661,-2017,0,0,0,0,0
173,1765223597142,1265,7872,-2204,0,0,0,0,0
174,1765223597326,1732,6157,-1562,0,0,0,0,0
175,1765223597460,2287,8134,-1439,0,0,0,0,0
176,1765223597660,2098,8956,-3356,0,0,0,0,0
177,1765223597777,288,8118,-3998,0,0,0,0,0
178,1765223597876,-698,7809,-3872,0,0,0,0,0
179,1765223598061,-1614,8548,-3020,0,0,0,0,0
180,1765223598160,-2268,9221,-2534,0,0,0,0,0
181,1765223598477,-5877,7546,-1956,0,0,0,0,0
182,1765223598694,-5055,7926,-1758,0,0,0,0,0
183,1765223598859,-5090,6783,-1917,0,0,0,0,0
184,1765223598978,-4861,8335,-1608,0,0,0,0,0
185,1765223599110,-5098,7263,-1616,0,0,0,0,0
186,1765223599277,-4521,8501,-1690,0,0,0,0,0
187,1765223599460,-3965,7785,-1336,0,0,0,0,0
188,1765223599743,-4764,7978,-2562,0,0,0,0,0
189,1765223599810,-4967,7598,-1458,0,0,0,0,0
190,1765223600027,-4732,7196,-1594,0,0,0,0,0
191,1765223600160,-4364,7266,-1020,0,0,0,0,0
192,1765223600243,-4279,8133,-588,0,0,0,0,0
193,1765223600528,-3571,9602,-341,0,0,0,0,0
194,1765223600726,-4266,7030,-1548,0,0,0,0,0
195,1765223600860,-4519,7482,-524,0,0,0,0,0
196,1765223600946,-4386,8110,-904,0,0,0,0,0
197,1765223601227,-4072,7744,-288,0,0,0,0,0
198,1765223601293,-3856,7673,-517,0,0,0,0,0
199,1765223601493,-3606,7814,-486,0,0,0,0,0
200,1765223601643,-3535,8086,280,0,0,0,0,0
201,1765223601827,-3668,8536,247,0,0,0,0,0
202,1765223602079,-2194,8644,58,0,0,0,0,0
203,1765223602343,-2342,7757,341,0,0,0,0,0
204,1765223602444,-1246,8197,-177,0,0,0,0,0
205,1765223602643,-1671,8529,577,0,0,0,0,0
206,1765223602727,-353,7972,-36,0,0,0,0,0
207,1765223602827,414,8119,656,0,0,0,0,0
208,1765223603075,308,8524,374,0,0,0,0,0
209,1765223603261,1234,8304,686,0,0,0,0,0
210,1765223603460,3872,9249,-465,0,0,0,0,0
211,1765223603776,2856,7864,-1041,0,0,0,0,0
212,1765223603862,2308,8266,-344,0,0,0,0,0
213,1765223604160,2544,7404,-1379,0,0,0,0,0
214,1765223604244,2931,7440,-584,0,0,0,0,0
215,1765223604477,2690,8778,-776,0,0,0,0,0
216,1765223604677,1945,8254,-345,0,0,0,0,0
217,1765223604876,1826,8072,-379,0,0,0,0,0
218,1765223605060,593,7973,-846,0,0,0,0,0
219,1765223605294,635,7992,-551,0,0,0,0,0
220,1765223605577,214,8086,-195,0,0,0,0,0
221,1765223605659,514,8636,-330,0,0,0,0,0
222,1765223605961,305,8569,29,0,0,0,0,0
223,1765223606043,-445,7849,-124,0,0,0,0,0
224,1765223606308,308,8177,207,0,0,0,0,0
225,1765223606478,21,8662,58,0,0,0,0,0
226,1765223606694,-447,8718,-12,0,0,0,0,0
227,1765223606793,147,8369,237,0,0,0,0,0
228,1765223607160,-646,7392,76,0,0,0,0,0
229,1765223607277,-502,8472,-673,0,0,0,0,0
230,1765223607460,-104,8380,-550,0,0,0,0,0
231,1765223607626,-179,7246,-664,0,0,0,0,0
232,1765223607893,1513,8800,410,0,0,0,0,0
233,1765223608093,1159,7930,408,0,0,0,0,0
234,1765223608210,583,8226,-172,0,0,0,0,0
235,1765223608477,1272,6670,39,0,0,0,0,0
236,1765223608726,1180,9626,127,0,0,0,0,0
237,1765223608909,1444,7275,-518,0,0,0,0,0
238,1765223609008,1249,8561,-92,0,0,0,0,0
239,1765223609093,668,9452,-30,0,0,0,0,0
240,1765223609368,1480,6856,-50,0,0,0,0,0
241,1765223609510,697,7270,-358,0,0,0,0,0
242,1765223609710,448,7984,-1242,0,0,0,0,0
243,1765223609810,436,9235,584,0,0,0,0,0
244,1765223610026,776,6492,454,0,0,0,0,0
245,1765223610460,1028,7583,155,0,0,0,0,0
246,1765223610643,144,8564,202,0,0,0,0,0
247,1765223610760,172,7331,-337,0,0,0,0,0
248,1765223610860,121,9631,-952,0,0,0,0,0
249,1765223610960,-416,8732,-1224,0,0,0,0,0
250,1765223611193,180,9145,78,0,0,0,0,0
251,1765223611377,-1605,6760,-859,0,0,0,0,0
252,1765223611561,-179,8946,-832,0,0,0,0,0
253,1765223611676,-1690,7929,-1426,0,0,0,0,0
254,1765223611860,1460,6811,-56,0,0,0,0,0
255,1765223612310,293,7656,-846,0,0,0,0,0
256,1765223612426,-597,7984,-798,0,0,0,0,0
257,1765223612593,-28,9381,-1484,0,0,0,0,0
258,1765223612742,10,7946,-298,0,0,0,0,0
259,1765223613027,177,7234,-617,0,0,0,0,0
260,1765223613110,20,8659,-933,0,0,0,0,0
261,1765223613326,-1250,8999,-1548,0,0,0,0,0
262,1765223613477,-636,7685,-730,0,0,0,0,0
263,1765223613776,52,7854,-1088,0,0,0,0,0
264,1765223613877,-1062,7152,-1477,0,0,0,0,0
265,1765223613926,-141,8703,-1021,0,0,0,0,0
266,1765223614110,21,7842,-1486,0,0,0,0,0
267,1765223614227,-295,6585,-929,0,0,0,0,0
268,1765223614460,592,7961,-960,0,0,0,0,0
269,1765223614610,403,7284,-1276,0,0,0,0,0
270,1765223614843,-646,8692,-893,0,0,0,0,0
271,1765223614943,106,8308,-1446,0,0,0,0,0
272,1765223615177,-93,7663,-1076,0,0,0,0,0
273,1765223615325,-565,8520,-1391,0,0,0,0,0
274,1765223615626,-3,8841,-960,0,0,0,0,0
275,1765223615760,-415,7214,-626,0,0,0,0,0
276,1765223615960,-542,8458,-1010,0,0,0,0,0
277,1765223616076,-331,7039,-456,0,0,0,0,0
278,1765223616343,-574,7814,-1009,0,0,0,0,0
279,1765223616460,-280,7746,-955,0,0,0,0,0
280,1765223616610,-546,8325,-1532,0,0,0,0,0
281,1765223616760,-360,8276,-892,0,0,0,0,0
282,1765223617226,-459,7319,-1557,0,0,0,0,0
283,1765223617443,-554,7798,-1295,0,0,0,0,0
284,1765223617527,-523,7950,-1724,0,0,0,0,0
285,1765223617744,-694,7925,-1465,0,0,0,0,0
286,1765223617893,-391,8236,-1071,0,0,0,0,0
287,1765223618159,-506,8206,-983,0,0,0,0,0
288,1765223618228,-778,7882,-1602,0,0,0,0,0
289,1765223618425,-698,7983,-1283,0,0,0,0,0
290,1765223618610,-648,8200,-1483,0,0,0,0,0
291,1765223618909,-490,7905,-1388,0,0,0,0,0
292,1765223619043,-584,7878,-1420,0,0,0,0,0
293,1765223619193,-830,7672,-1489,0,0,0,0,0
294,1765223619343,-528,8081,-1539,0,0,0,0,0
295,1765223619760,-549,7891,-1732,0,0,0,0,0
296,1765223619859,-592,8091,-1337,0,0,0,0,0
297,1765223620043,-635,8189,-687,0,0,0,0,0
298,1765223620193,-331,8155,-95,0,0,0,0,0
299,1765223620445,-545,8067,-478,0,0,0,0,0
300,1765223620660,-500,8142,-529,0,0,0,0,0
301,1765223620793,-545,8046,-651,0,0,0,0,0
302,1765223620876,-536,8063,-488,0,0,0,0,0
303,1765223620960,-534,8140,-624,0,0,0,0,0
304,1765223621175,-498,8111,-653,0,0,0,0,0
305,1765223621344,-551,8074,-660,0,0,0,0,0
306,1765223621594,-506,8102,-640,0,0,0,0,0
307,1765223621660,-544,8082,-641,0,0,0,0,0
308,1765223621893,-532,8089,-628,0,0,0,0,0
309,1765223622343,-524,8090,-628,0,0,0,0,0
310,1765223622410,-530,8087,-633,0,0,0,0,0
311,1765223622643,-519,8107,-615,0,0,0,0,0
312,1765223622760,-537,8164,-640,0,0,0,0,0
313,1765223622943,-544,8029,-621,0,0,0,0,0
314,1765223623111,-360,7950,-540,0,0,0,0,0
315,1765223623476,-557,8079,-603,0,0,0,0,0
316,1765223623643,-482,8098,-603,0,0,0,0,0
317,1765223623876,-550,8122,-632,0,0,0,0,0
318,1765223624112,-529,8033,-624,0,0,0,0,0
319,1765223624228,-558,8164,-626,0,0,0,0,0
320,1765223624459,-498,8126,-619,0,0,0,0,0
321,1765223624610,-511,8098,-618,0,0,0,0,0
322,1765223624760,-517,8104,-609,0,0,0,0,0
323,1765223624927,-544,8092,-626,0,0,0,0,0
324,1765223625093,-516,8149,-606,0,0,0,0,0
325,1765223625228,-566,8112,-628,0,0,0,0,0
326,1765223625360,-531,8102,-581,0,0,0,0,0
327,1765223625660,-483,8096,-609,0,0,0,0,0
328,1765223625810,-548,8104,-628,0,0,0,0,0
329,1765223625943,-514,8099,-618,0,0,0,0,0
330,1765223626110,-511,8095,-617,0,0,0,0,0
331,1765223626293,-526,8106,-627,0,0,0,0,0
332,1765223626444,-525,8107,-622,0,0,0,0,0
333,1765223626593,-260,8101,-629,0,0,0,0,0
334,1765223626810,-534,8082,-620,0,0,0,0,0
335,1765223626910,-530,8098,-599,0,0,0,0,0
336,1765223627077,-552,8110,-607,0,0,0,0,0
337,1765223627276,-509,8117,-613,0,0,0,0,0
338,1765223627527,-536,8117,-626,0,0,0,0,0
339,1765223627626,-541,8068,-633,0,0,0,0,0
340,1765223627626,-522,8103,-636,0,0,0,0,0
341,1765223627743,-526,8090,-625,0,0,0,0,0
342,1765223627943,-545,8078,-599,0,0,0,0,0
343,1765223628027,-512,8153,-606,0,0,0,0,0
344,1765223628360,-517,8090,-597,0,0,0,0,0
345,1765223628477,-500,8142,-622,0,0,0,0,0
346,1765223628676,-541,8084,-637,0,0,0,0,0
347,1765223628760,-541,8073,-626,0,0,0,0,0
348,1765223628893,-519,8125,-616,0,0,0,0,0
349,1765223629026,-534,8085,-608,0,0,0,0,0
350,1765223629262,-536,8085,-603,0,0,0,0,0
351,1765223629460,-483,8098,-590,0,0,0,0,0
352,1765223629527,-528,8093,-626,0,0,0,0,0
353,1765223629677,-492,8124,-594,0,0,0,0,0
354,1765223629842,-520,8102,-606,0,0,0,0,0
355,1765223629993,-553,8071,-634,0,0,0,0,0
356,1765224046621,55,8136,-128,0,0,0,0,0
357,1765224046755,46,8145,-150,0,0,0,0,0
358,1765224046919,52,8152,-128,0,0,0,0,0
359,1765224047087,44,8140,-139,0,0,0,0,0
360,1765224047204,53,8159,-132,0,0,0,0,0
361,1765224047404,68,8156,-134,0,0,0,0,0
362,1765224047521,49,8138,-136,0,0,0,0,0
363,1765224047789,29,8152,-122,0,0,0,0,0
364,1765224047820,52,8144,-128,0,0,0,0,0
365,1765224048187,56,8150,-114,0,0,0,0,0
366,1765224048354,50,8143,-102,0,0,0,0,0
367,1765224048488,51,8153,-104,0,0,0,0,0
368,1765224048937,50,8161,-107,0,0,0,0,0
369,1765224049121,56,8144,-102,0,0,0,0,0
370,1765224049304,49,8160,-102,0,0,0,0,0
371,1765224049371,55,8151,-123,0,0,0,0,0
372,1765224049588,52,8145,-124,0,0,0,0,0
373,1765224049738,47,8154,-136,0,0,0,0,0
374,1765224049904,46,8145,-126,0,0,0,0,0
375,1765224050071,57,8146,-114,0,0,0,0,0
376,1765224050220,48,8151,-128,0,0,0,0,0
377,1765224050354,42,8150,-116,0,0,0,0,0
378,1765224050487,43,8138,-130,0,0,0,0,0
379,1765224050787,54,8160,-127,0,0,0,0,0
380,1765224050870,58,8152,-118,0,0,0,0,0
381,1765224051221,58,8148,-125,0,0,0,0,0
382,1765224051304,55,8149,-126,0,0,0,0,0
383,1765224051554,52,8137,-116,0,0,0,0,0
384,1765224051704,48,8153,-109,0,0,0,0,0
385,1765224051836,49,8150,-122,0,0,0,0,0
386,1765224051971,58,8137,-120,0,0,0,0,0
387,1765224052154,47,8155,-131,0,0,0,0,0
388,1765224052470,52,8161,-113,0,0,0,0,0
389,1765224052688,50,8142,-124,0,0,0,0,0
390,1765224052787,52,8156,-130,0,0,0,0,0
391,1765224053036,57,8158,-110,0,0,0,0,0
392,1765224053170,54,8139,-130,0,0,0,0,0
393,1765224053388,65,8148,-122,0,0,0,0,0
394,1765224053487,37,8160,-142,0,0,0,0,0
395,1765224053604,53,8142,-120,0,0,0,0,0
396,1765224053721,48,8140,-102,0,0,0,0,0
397,1765224053903,46,8163,-122,0,0,0,0,0
398,1765224054121,58,8150,-125,0,0,0,0,0
399,1765224054371,48,8137,-117,0,0,0,0,0
400,1765224054470,65,8150,-135,0,0,0,0,0
401,1765224054671,45,8152,-128,0,0,0,0,0
402,1765224054753,58,8162,-125,0,0,0,0,0
403,1765224054853,50,8139,-130,0,0,0,0,0
404,1765224055021,52,8143,-117,0,0,0,0,0
405,1765224055188,52,8152,-120,0,0,0,0,0
406,1765224055436,60,8114,-110,0,0,0,0,0
407,1765224055604,56,8200,-157,0,0,0,0,0
408,1765224055737,26,8140,-137,0,0,0,0,0
409,1765224055987,52,8184,-136,0,0,0,0,0
410,1765224056204,78,8156,-120,0,0,0,0,0
411,1765224056371,30,8138,-106,0,0,0,0,0
412,1765224056504,43,8151,-106,0,0,0,0,0
413,1765224056554,55,8142,-113,0,0,0,0,0
414,1765224056787,48,8150,-126,0,0,0,0,0
415,1765224056854,42,8146,-119,0,0,0,0,0
416,1765224057120,48,8127,-116,0,0,0,0,0
417,1765224057286,54,8151,-112,0,0,0,0,0
418,1765224057453,36,8141,-90,0,0,0,0,0
419,1765224057572,37,8148,-98,0,0,0,0,0
420,1765224057770,60,8142,-100,0,0,0,0,0
421,1765224058053,52,8170,-104,0,0,0,0,0
422,1765224058171,38,8134,-124,0,0,0,0,0
423,1765224058471,41,8148,-137,0,0,0,0,0
424,1765224058521,44,8157,-128,0,0,0,0,0
425,1765224058753,48,8138,-124,0,0,0,0,0
426,1765224058887,60,8148,-113,0,0,0,0,0
427,1765224059154,51,8140,-133,0,0,0,0,0
428,1765224059287,51,8151,-123,0,0,0,0,0
429,1765224059420,44,8154,-132,0,0,0,0,0
430,1765224059670,35,8162,-141,0,0,0,0,0
431,1765224059837,56,8141,-114,0,0,0,0,0
432,1765224060052,58,8141,-116,0,0,0,0,0
433,1765224060154,61,8154,-118,0,0,0,0,0
434,1765224060237,42,8148,-120,0,0,0,0,0
435,1765224060521,49,8157,-121,0,0,0,0,0
436,1765224060752,48,8138,-132,0,0,0,0,0
437,1765224060971,47,8154,-137,0,0,0,0,0
438,1765224061104,54,8148,-112,0,0,0,0,0
439,1765224061254,50,8145,-125,0,0,0,0,0
440,1765224061403,40,8143,-118,0,0,0,0,0
441,1765224061604,45,8152,-120,0,0,0,0,0
442,1765224061820,60,8144,-112,0,0,0,0,0
443,1765224062020,52,8141,-118,0,0,0,0,0
444,1765224062155,44,8154,-121,0,0,0,0,0
445,1765224062369,54,8144,-114,0,0,0,0,0
446,1765224062504,38,8152,-134,0,0,0,0,0
447,1765224062720,50,8147,-111,0,0,0,0,0
448,1765224062870,45,8148,-116,0,0,0,0,0
449,1765224063053,50,8145,-128,0,0,0,0,0
450,1765224063170,42,8150,-125,0,0,0,0,0
451,1765224063255,56,8132,-142,0,0,0,0,0
452,1765224063438,55,8147,-118,0,0,0,0,0
453,1765224063619,44,8159,-125,0,0,0,0,0
454,1765224063804,50,8142,-95,0,0,0,0,0
455,1765224063987,111,8154,-98,0,0,0,0,0
456,1765224064053,36,8135,-116,0,0,0,0,0
457,1765224064338,14,8106,-115,0,0,0,0,0
458,1765224064487,64,8162,-130,0,0,0,0,0
459,1765224064637,46,8155,-125,0,0,0,0,0
460,1765224064787,25,8130,-152,0,0,0,0,0
461,1765224064971,50,8166,-100,0,0,0,0,0
462,1765224065137,42,8144,-115,0,0,0,0,0
463,1765224065388,44,8150,-143,0,0,0,0,0
464,1765224065520,53,8160,-108,0,0,0,0,0
465,1765224065703,47,8147,-95,0,0,0,0,0
466,1765224065903,55,8146,-97,0,0,0,0,0
467,1765224066104,47,8156,-113,0,0,0,0,0
468,1765224066254,40,8132,-122,0,0,0,0,0
469,1765224066304,44,8142,-93,0,0,0,0,0
470,1765224066403,41,8159,-110,0,0,0,0,0
471,1765224066636,51,8144,-116,0,0,0,0,0
472,1765224066719,39,8148,-124,0,0,0,0,0
473,1765224067138,76,8152,-103,0,0,0,0,0
474,1765224067370,49,8139,-114,0,0,0,0,0
475,1765224067437,33,8156,-100,0,0,0,0,0
476,1765224067603,60,8154,-121,0,0,0,0,0
477,1765224067837,54,8140,-120,0,0,0,0,0
478,1765224068004,48,8165,-119,0,0,0,0,0
479,1765224068121,59,8145,-117,0,0,0,0,0
480,1765224068205,73,8144,-99,0,0,0,0,0
481,1765224068287,44,8144,-137,0,0,0,0,0
482,1765224068520,42,8138,-108,0,0,0,0,0
483,1765224068770,63,8149,-138,0,0,0,0,0
484,1765224068971,54,8143,-134,0,0,0,0,0
485,1765224069054,52,8159,-118,0,0,0,0,0
486,1765224069271,44,8144,-126,0,0,0,0,0
487,1765224069421,54,8156,-113,0,0,0,0,0
488,1765224069685,38,8145,-122,0,0,0,0,0
489,1765224069771,82,8150,416,0,0,0,0,0
490,1765224069970,216,8400,2270,0,0,0,0,0
491,1765224070121,76,8173,520,0,0,0,0,0
492,1765224070421,396,8137,515,0,0,0,0,0
493,1765224070554,107,8338,802,0,0,0,0,0
494,1765224070821,87,7528,1027,0,0,0,0,0
495,1765224070871,-68,8672,982,0,0,0,0,0
496,1765224071153,-206,7302,1600,0,0,0,0,0
497,1765224071303,491,8035,2674,0,0,0,0,0
498,1765224071537,529,8586,2196,0,0,0,0,0
499,1765224071635,226,8084,2822,0,0,0,0,0
500,1765224071936,-100,8318,3567,0,0,0,0,0
501,1765224072154,528,7319,3769,0,0,0,0,0
502,1765224072303,-86,8645,3314,0,0,0,0,0
503,1765224072503,898,8455,3840,0,0,0,0,0
504,1765224072669,-780,9180,4304,0,0,0,0,0
505,1765224072886,-122,8238,5011,0,0,0,0,0
506,1765224073019,-1341,7649,13,0,0,0,0,0
507,1765224073270,-86,5956,-484,0,0,0,0,0
508,1765224073421,601,8039,-280,0,0,0,0,0
509,1765224073720,-750,7600,-2215,0,0,0,0,0
510,1765224073871,-599,9400,-2516,0,0,0,0,0
511,1765224074121,-1456,6975,-2044,0,0,0,0,0
512,1765224074204,-181,8786,-2015,0,0,0,0,0
513,1765224074504,-122,9219,-627,0,0,0,0,0
514,1765224074654,-98,9657,-525,0,0,0,0,0
515,1765224074871,578,7525,-22,0,0,0,0,0
516,1765224075003,-1006,7540,-1172,0,0,0,0,0
517,1765224075052,-62,7825,-488,0,0,0,0,0
518,1765224075272,742,9001,-309,0,0,0,0,0
519,1765224075588,-855,8864,-1006,0,0,0,0,0
520,1765224075754,-16,7526,-853,0,0,0,0,0
521,1765224075937,588,8603,122,0,0,0,0,0
522,1765224076037,-214,9169,-857,0,0,0,0,0
523,1765224076371,942,8724,-293,0,0,0,0,0
524,1765224076487,-4,8392,-466,0,0,0,0,0
525,1765224076720,756,6987,-546,0,0,0,0,0
526,1765224076804,-66,7607,-863,0,0,0,0,0
527,1765224077171,-200,7664,-1506,0,0,0,0,0
528,1765224077304,114,8328,-2238,0,0,0,0,0
529,1765224077469,180,7817,-1077,0,0,0,0,0
530,1765224077569,382,8286,-1350,0,0,0,0,0
531,1765224077653,407,8136,-1288,0,0,0,0,0
532,1765224077902,582,7185,-484,0,0,0,0,0
533,1765224078087,180,8600,-1104,0,0,0,0,0
534,1765224078319,-69,8760,-1177,0,0,0,0,0
535,1765224078453,192,7480,-1131,0,0,0,0,0
536,1765224078703,292,7676,-1040,0,0,0,0,0
537,1765224078971,389,8298,-749,0,0,0,0,0
538,1765224079087,-23,6912,-885,0,0,0,0,0
539,1765224079319,15,7953,-941,0,0,0,0,0
540,1765224079487,482,8192,-950,0,0,0,0,0
541,1765224079720,32,8252,-1061,0,0,0,0,0
542,1765224079821,409,7611,-607,0,0,0,0,0
543,1765224080004,-254,7184,-1037,0,0,0,0,0
544,1765224080204,204,7542,-544,0,0,0,0,0
545,1765224080503,260,7984,-601,0,0,0,0,0
546,1765224080671,31,8100,-1225,0,0,0,0,0
547,1765224080855,249,8333,-1040,0,0,0,0,0
548,1765224080969,145,7802,-586,0,0,0,0,0
549,1765224081204,-46,8382,-846,0,0,0,0,0
550,1765224081371,84,8520,-855,0,0,0,0,0
551,1765224081621,542,8260,-407,0,0,0,0,0
552,1765224081721,-105,8116,-925,0,0,0,0,0
553,1765224081970,-113,7729,-762,0,0,0,0,0
554,1765224082120,638,8338,-340,0,0,0,0,0
555,1765224082420,85,7805,-784,0,0,0,0,0
556,1765224082470,-104,7739,-425,0,0,0,0,0
557,1765224082571,145,8181,-622,0,0,0,0,0
558,1765224082805,2836,8173,23882,0,0,0,0,0
559,1765224082888,-33,8171,-690,0,0,0,0,0
560,1765224083104,126,7542,-592,0,0,0,0,0
561,1765224083287,147,8584,-656,0,0,0,0,0
562,1765224083535,16,8542,-510,0,0,0,0,0
563,1765224083603,227,7843,-738,0,0,0,0,0
564,1765224083770,24,8322,-724,0,0,0,0,0
565,1765224084036,9,7925,-674,0,0,0,0,0
566,1765224084254,-212,7995,-746,0,0,0,0,0
567,1765224084420,-259,8276,-712,0,0,0,0,0
568,1765224084520,93,7815,-714,0,0,0,0,0
569,1765224084721,136,7745,-646,0,0,0,0,0
570,1765224084936,-30,8164,-659,0,0,0,0,0
571,1765224085153,156,8065,-600,0,0,0,0,0
572,1765224085222,-53,8184,-579,0,0,0,0,0
573,1765224085454,-113,8054,-750,0,0,0,0,0
574,1765224085603,34,8160,-655,0,0,0,0,0
575,1765224085887,32,8028,-602,0,0,0,0,0
576,1765224085971,-80,8143,-601,0,0,0,0,0
577,1765224086371,13,8071,-576,0,0,0,0,0
578,1765224086454,14,8010,-571,0,0,0,0,0
579,1765224086704,-8,8284,-655,0,0,0,0,0
580,1765224086854,20,8138,-592,0,0,0,0,0
581,1765224087019,34,8148,-613,0,0,0,0,0
582,1765224087137,6,8128,-575,0,0,0,0,0
583,1765224087320,4,8090,-621,0,0,0,0,0
584,1765224087469,33,8133,-448,0,0,0,0,0
585,1765224087704,-10,8135,-434,0,0,0,0,0
586,1765224087886,21,8131,-379,0,0,0,0,0
587,1765224088036,-39,8208,-65,0,0,0,0,0
588,1765224088153,152,8121,-262,0,0,0,0,0
589,1765224088320,-70,8033,-572,0,0,0,0,0
590,1765224088539,63,8246,-300,0,0,0,0,0
591,1765224088703,42,8160,-300,0,0,0,0,0
592,1765224088821,6,8133,-316,0,0,0,0,0
593,1765224089002,78,8168,-84,0,0,0,0,0
594,1765224089102,-5,8146,-109,0,0,0,0,0
595,1765224089254,28,8143,-247,0,0,0,0,0
596,1765224089553,39,8130,-310,0,0,0,0,0
597,1765224089621,6,8137,-334,0,0,0,0,0
598,1765224089985,61,8151,-281,0,0,0,0,0
599,1765224090070,19,8156,-211,0,0,0,0,0
600,1765224090336,0,8143,-212,0,0,0,0,0
601,1765224090470,45,8161,-247,0,0,0,0,0
602,1765224090637,41,8133,-242,0,0,0,0,0
603,1765224090771,18,8131,-248,0,0,0,0,0
604,1765224090954,22,8154,-264,0,0,0,0,0
605,1765224091070,40,8154,-279,0,0,0,0,0
606,1765224091287,67,8113,-240,0,0,0,0,0
607,1765224091555,15,8200,-201,0,0,0,0,0
608,1765224091670,129,8116,-284,0,0,0,0,0
609,1765224091753,75,8138,-310,0,0,0,0,0
610,1765224091953,-51,8204,-327,0,0,0,0,0
611,1765224092137,54,8092,-244,0,0,0,0,0
612,1765224092220,85,8151,-209,0,0,0,0,0
613,1765224092436,2,8166,-252,0,0,0,0,0
614,1765224092603,25,8116,-248,0,0,0,0,0
615,1765224092736,24,8153,-286,0,0,0,0,0
616,1765224092869,40,8142,-262,0,0,0,0,0
617,1765224093002,28,8149,-254,0,0,0,0,0
618,1765224093237,22,8151,-230,0,0,0,0,0
619,1765224093537,50,8137,-319,0,0,0,0,0
620,1765224093654,9,8150,-270,0,0,0,0,0
621,1765224093853,42,8148,-204,0,0,0,0,0
622,1765224093986,32,8134,-202,0,0,0,0,0
623,1765224094070,18,8135,-258,0,0,0,0,0
624,1765224094304,22,8142,-306,0,0,0,0,0
625,1765224094420,31,8150,-264,0,0,0,0,0
626,1765224094587,30,8142,-220,0,0,0,0,0
627,1765224094721,86,8133,-117,0,0,0,0,0
628,1765224094853,10,8118,-238,0,0,0,0,0
629,1765224095154,31,8168,-320,0,0,0,0,0
630,1765224095287,35,8174,-196,0,0,0,0,0
631,1765224095420,26,8139,-185,0,0,0,0,0
632,1765224095587,40,8132,-257,0,0,0,0,0
633,1765224096020,37,8138,-240,0,0,0,0,0
634,1765224096170,24,8145,-242,0,0,0,0,0
635,1765224096321,46,8146,-246,0,0,0,0,0
636,1765224096520,4,8136,-261,0,0,0,0,0
637,1765224096787,68,8161,-241,0,0,0,0,0
638,1765224097020,10,8149,-232,0,0,0,0,0
639,1765224097187,33,8118,-249,0,0,0,0,0
640,1765224097436,54,8154,-199,0,0,0,0,0
641,1765224097603,17,8140,-235,0,0,0,0,0
642,1765224097886,37,8158,-258,0,0,0,0,0
643,1765224097985,22,8144,-221,0,0,0,0,0
644,1765224098187,31,8134,-235,0,0,0,0,0
645,1765224098420,25,8141,-250,0,0,0,0,0
646,1765224098653,35,8146,-227,0,0,0,0,0
647,1765224098870,28,8150,-238,0,0,0,0,0
648,1765224099054,30,8152,-243,0,0,0,0,0
649,1765224099338,32,8144,-236,0,0,0,0,0
650,1765224099404,31,8149,-243,0,0,0,0,0
651,1765224099686,31,8130,-246,0,0,0,0,0
652,1765224099804,32,8144,-243,0,0,0,0,0
653,1765224100104,41,8152,-240,0,0,0,0,0
654,1765224100253,34,8138,-255,0,0,0,0,0
655,1765224100502,43,8149,-240,0,0,0,0,0
656,1765224100636,35,8130,-244,0,0,0,0,0
657,1765224100886,36,8168,-255,0,0,0,0,0
658,1765224101069,30,8132,-234,0,0,0,0,0
659,1765224101254,26,8140,-251,0,0,0,0,0
660,1765224101453,26,8138,-249,0,0,0,0,0
661,1765224101471,29,8140,-252,0,0,0,0,0
662,1765224101654,34,8144,-246,0,0,0,0,0
663,1765224101953,31,8146,-242,0,0,0,0,0
664,1765224102102,32,8140,-241,0,0,0,0,0
665,1765224102287,28,8144,-240,0,0,0,0,0
666,1765224102472,30,8147,-250,0,0,0,0,0
667,1765224102869,27,8157,-262,0,0,0,0,0
668,1765224103103,31,8130,-245,0,0,0,0,0
669,1765224103171,27,8150,-240,0,0,0,0,0
670,1765224103487,32,8139,-255,0,0,0,0,0
671,1765224103720,34,8149,-256,0,0,0,0,0
672,1765224103887,24,8141,-241,0,0,0,0,0
673,1765224103970,28,8136,-254,0,0,0,0,0
674,1765224104103,35,8149,-251,0,0,0,0,0
675,1765224104270,34,8139,-241,0,0,0,0,0
676,1765224104718,35,8136,-248,0,0,0,0,0
677,1765224104852,32,8142,-251,0,0,0,0,0
678,1765224105019,31,8148,-243,0,0,0,0,0
679,1765224105454,27,8146,-252,0,0,0,0,0
680,1765224105620,46,8133,-246,0,0,0,0,0
681,1765224105854,34,8133,-240,0,0,0,0,0
682,1765224105938,34,8146,-242,0,0,0,0,0
683,1765224106187,30,8136,-266,0,0,0,0,0
684,1765224106370,30,8144,-239,0,0,0,0,0
685,1765224106604,30,8146,-237,0,0,0,0,0
686,1765224106736,33,8142,-245,0,0,0,0,0
687,1765224106970,28,8140,-265,0,0,0,0,0
688,1765224107251,32,8145,-244,0,0,0,0,0
689,1765224107371,22,8148,-257,0,0,0,0,0
690,1765224107587,25,8129,-254,0,0,0,0,0
691,1765224107637,11,8144,-236,0,0,0,0,0
692,1765224107770,42,8132,-245,0,0,0,0,0
693,1765224108054,19,8146,-250,0,0,0,0,0
694,1765224108119,29,8140,-252,0,0,0,0,0
695,1765224108387,22,8138,-252,0,0,0,0,0
696,1765224108503,31,8136,-237,0,0,0,0,0
697,1765224108803,28,8148,-250,0,0,0,0,0
698,1765224108953,31,8126,-255,0,0,0,0,0
699,1765224109186,23,8161,-244,0,0,0,0,0
700,1765224109270,32,8138,-242,0,0,0,0,0
701,1765224109537,36,8144,-243,0,0,0,0,0
702,1765224109687,34,8150,-245,0,0,0,0,0
703,1765224109936,28,8130,-257,0,0,0,0,0
704,1765224110070,26,8146,-242,0,0,0,0,0
705,1765224110337,28,8142,-244,0,0,0,0,0
706,1765224110603,26,8147,-243,0,0,0,0,0
707,1765224110704,26,8066,-264,0,0,0,0,0
708,1765224110803,25,8076,-338,0,0,0,0,0
709,1765224110953,40,8106,-282,0,0,0,0,0
710,1765224111102,27,8173,-143,0,0,0,0,0
711,1765224111520,36,8168,-278,0,0,0,0,0
712,1765224111671,38,8130,-246,0,0,0,0,0
713,1765224111819,19,8144,-233,0,0,0,0,0
714,1765224112270,40,8163,-272,0,0,0,0,0
715,1765224112453,34,8142,-272,0,0,0,0,0
716,1765224112570,34,8108,-201,0,0,0,0,0
717,1765224112670,9,8166,-256,0,0,0,0,0
718,1765224149885,2,8194,-220,0,0,0,0,0
719,1765224150019,30,8170,-3,0,0,0,0,0
720,1765224150185,68,8101,-243,0,0,0,0,0
721,1765224150353,-25,8186,-299,0,0,0,0,0
722,1765224150560,42,8126,-289,0,0,0,0,0
723,1765224150705,36,8140,-265,0,0,0,0,0
724,1765224150787,22,8144,-262,0,0,0,0,0
725,1765224151037,26,8136,-249,0,0,0,0,0
726,1765224151104,37,8134,-260,0,0,0,0,0
727,1765224151270,30,8146,-260,0,0,0,0,0
728,1765224151451,24,8146,-250,0,0,0,0,0
729,1765224151652,30,8141,-247,0,0,0,0,0
730,1765224151753,28,8132,-260,0,0,0,0,0
731,1765224151953,42,8140,-216,0,0,0,0,0
732,1765224152205,28,8149,-247,0,0,0,0,0
733,1765224152453,23,8137,-266,0,0,0,0,0
734,1765224152585,25,8142,-225,0,0,0,0,0
735,1765224152751,43,8140,-246,0,0,0,0,0
736,1765224152885,25,8163,-259,0,0,0,0,0
737,1765224153287,31,8152,-228,0,0,0,0,0
738,1765224153420,18,8134,-242,0,0,0,0,0
739,1765224153571,27,8144,-254,0,0,0,0,0
740,1765224154035,46,8137,-230,0,0,0,0,0
741,1765224154136,32,8137,-244,0,0,0,0,0
742,1765224154336,24,8142,-234,0,0,0,0,0
743,1765224154453,32,8158,-260,0,0,0,0,0
744,1765224154736,44,8126,-230,0,0,0,0,0
745,1765224154803,38,8140,-236,0,0,0,0,0
746,1765224155186,27,8160,-241,0,0,0,0,0
747,1765224155368,37,8132,-248,0,0,0,0,0
748,1765224155603,20,8134,-246,0,0,0,0,0
749,1765224155803,20,8172,-236,0,0,0,0,0
750,1765224155919,22,8140,-249,0,0,0,0,0
751,1765224156137,23,8134,-232,0,0,0,0,0
752,1765224156304,34,8141,-260,0,0,0,0,0
753,1765224156487,22,8148,-260,0,0,0,0,0
754,1765224156652,34,8141,-232,0,0,0,0,0
755,1765224156836,36,8132,-238,0,0,0,0,0
756,1765224157003,30,8144,-251,0,0,0,0,0
757,1765224157069,19,8144,-254,0,0,0,0,0
758,1765224157385,39,8140,-248,0,0,0,0,0
759,1765224157536,38,8140,-240,0,0,0,0,0
760,1765224157735,38,8127,-247,0,0,0,0,0
761,1765224157819,9,8150,-251,0,0,0,0,0
762,1765224158202,40,8148,-234,0,0,0,0,0
763,1765224158335,15,8139,-233,0,0,0,0,0
764,1765224158520,32,8158,-254,0,0,0,0,0
765,1765224158669,53,8138,-268,0,0,0,0,0
766,1765224158836,50,8152,-179,0,0,0,0,0
767,1765224159035,26,8145,-232,0,0,0,0,0
768,1765224159286,13,8139,-276,0,0,0,0,0
769,1765224159419,8,8137,-237,0,0,0,0,0
770,1765224159536,45,8133,-212,0,0,0,0,0
771,1765224159702,26,8154,-222,0,0,0,0,0
772,1765224159920,16,8138,-251,0,0,0,0,0
773,1765224160018,53,8155,-246,0,0,0,0,0
774,1765224160153,17,8154,-213,0,0,0,0,0
775,1765224160335,15,8135,-231,0,0,0,0,0
776,1765224160452,33,8133,-252,0,0,0,0,0
777,1765224160586,35,8134,-234,0,0,0,0,0
778,1765224160901,30,8143,-230,0,0,0,0,0
779,1765224160953,42,8160,-260,0,0,0,0,0
780,1765224161254,28,8136,-252,0,0,0,0,0
781,1765224161369,32,8156,-242,0,0,0,0,0
782,1765224161536,42,8138,-243,0,0,0,0,0
783,1765224161703,33,8136,-248,0,0,0,0,0
784,1765224161786,32,8134,-250,0,0,0,0,0
785,1765224161951,39,8137,-243,0,0,0,0,0
786,1765224162103,29,8140,-250,0,0,0,0,0
787,1765224162237,28,8132,-240,0,0,0,0,0
788,1765224162503,13,8146,-248,0,0,0,0,0
789,1765224162705,26,8139,-255,0,0,0,0,0
790,1765224162904,32,8138,-236,0,0,0,0,0
791,1765224162985,27,8144,-260,0,0,0,0,0
792,1765224163069,36,8142,-248,0,0,0,0,0
793,1765224163270,32,8139,-250,0,0,0,0,0
794,1765224163351,36,8142,-230,0,0,0,0,0
795,1765224163769,21,8150,-254,0,0,0,0,0
796,1765224163919,27,8148,-242,0,0,0,0,0
797,1765224164070,36,8135,-252,0,0,0,0,0
798,1765224164170,31,8146,-258,0,0,0,0,0
799,1765224164253,29,8145,-235,0,0,0,0,0
800,1765224164552,30,8132,-254,0,0,0,0,0
801,1765224164703,34,8146,-253,0,0,0,0,0
802,1765224164937,36,8144,-251,0,0,0,0,0
803,1765224165002,31,8136,-243,0,0,0,0,0
804,1765224165219,23,8136,-232,0,0,0,0,0
805,1765224165352,40,8151,-249,0,0,0,0,0
806,1765224165419,27,8134,-244,0,0,0,0,0
807,1765224165603,34,8145,-223,0,0,0,0,0
808,1765224165753,34,8138,-248,0,0,0,0,0
809,1765224165902,36,8143,-510,0,0,0,0,0
810,1765224166152,34,8133,-248,0,0,0,0,0
811,1765224166219,30,8144,-235,0,0,0,0,0
812,1765224166519,29,8142,-247,0,0,0,0,0
813,1765224166687,32,8151,-247,0,0,0,0,0
814,1765224166853,32,8134,-253,0,0,0,0,0
815,1765224166970,27,8140,-244,0,0,0,0,0
816,1765224167137,36,8146,-246,0,0,0,0,0
817,1765224167421,30,8138,-242,0,0,0,0,0
818,1765224167518,36,8137,-246,0,0,0,0,0
819,1765224167702,20,8155,-252,0,0,0,0,0
820,1765224167868,32,8139,-228,0,0,0,0,0
821,1765224168069,34,8142,-234,0,0,0,0,0
822,1765224168235,24,8137,-238,0,0,0,0,0
823,1765224168503,24,8154,-239,0,0,0,0,0
824,1765224168636,26,8134,-244,0,0,0,0,0
825,1765224168786,30,8142,-246,0,0,0,0,0
826,1765224168936,37,8138,-253,0,0,0,0,0
827,1765224169036,43,8236,-247,0,0,0,0,0
828,1765224169119,39,8079,-222,0,0,0,0,0
829,1765224169386,22,8167,-245,0,0,0,0,0
830,1765224169485,14,8179,-291,0,0,0,0,0
831,1765224169803,25,8148,-251,0,0,0,0,0
832,1765224170086,27,8142,-254,0,0,0,0,0
833,1765224170185,29,8134,-244,0,0,0,0,0
834,1765224170235,32,8138,-252,0,0,0,0,0
835,1765224170319,36,8137,-240,0,0,0,0,0
836,1765224170538,30,8140,-238,0,0,0,0,0
837,1765224170652,26,8140,-255,0,0,0,0,0
838,1765224170870,19,8138,-247,0,0,0,0,0
839,1765224171018,38,8140,-247,0,0,0,0,0
840,1765224171252,24,8144,-250,0,0,0,0,0
841,1765224171335,36,8143,-239,0,0,0,0,0
842,1765224171586,34,8132,-236,0,0,0,0,0
843,1765224171769,34,8134,-238,0,0,0,0,0
844,1765224172002,21,8137,-241,0,0,0,0,0
845,1765224172153,28,8134,-253,0,0,0,0,0
846,1765224172432,39,8151,-225,0,0,0,0,0
847,1765224172451,24,8128,-242,0,0,0,0,0
848,1765224172718,26,8142,-265,0,0,0,0,0
849,1765224172853,32,8150,-247,0,0,0,0,0
850,1765224172986,29,8134,-227,0,0,0,0,0
851,1765224173152,34,8142,-235,0,0,0,0,0
852,1765224173585,29,8137,-270,0,0,0,0,0
853,1765224173719,33,8141,-252,0,0,0,0,0
854,1765224173885,25,8142,-236,0,0,0,0,0
855,1765224174036,22,8145,-247,0,0,0,0,0
856,1765224174286,36,8140,-240,0,0,0,0,0
857,1765224174403,36,8144,-249,0,0,0,0,0
858,1765224174619,21,8136,-253,0,0,0,0,0
859,1765224174753,20,8126,-255,0,0,0,0,0
860,1765224174953,41,8141,-239,0,0,0,0,0
861,1765224175203,24,8141,-246,0,0,0,0,0
862,1765224175386,30,8138,-251,0,0,0,0,0
863,1765224175519,24,8136,-260,0,0,0,0,0
864,1765224175719,33,8138,-252,0,0,0,0,0
865,1765224175803,30,8145,-253,0,0,0,0,0
866,1765224175869,28,8136,-248,0,0,0,0,0
867,1765224175986,22,8145,-252,0,0,0,0,0
868,1765224176203,24,8138,-254,0,0,0,0,0
869,1765224176369,22,8139,-253,0,0,0,0,0
870,1765224176569,27,8141,-250,0,0,0,0,0
871,1765224176653,32,8139,-244,0,0,0,0,0
872,1765224176953,23,8133,-253,0,0,0,0,0
873,1765224177087,38,8154,-247,0,0,0,0,0
874,1765224177319,38,8137,-248,0,0,0,0,0
875,1765224177386,3,8140,-248,0,0,0,0,0
876,1765224177619,29,8137,-249,0,0,0,0,0
877,1765224177770,34,8143,-266,0,0,0,0,0
878,1765224178002,26,8135,-255,0,0,0,0,0
879,1765224178103,26,8126,-252,0,0,0,0,0
880,1765224178486,34,8150,-250,0,0,0,0,0
881,1765224178786,40,8126,-242,0,0,0,0,0
882,1765224178853,35,8145,-253,0,0,0,0,0
883,1765224178920,38,8128,-232,0,0,0,0,0
884,1765224179036,28,8106,-241,0,0,0,0,0
885,1765224179219,43,8150,-294,0,0,0,0,0
886,1765224179419,25,8145,-257,0,0,0,0,0
887,1765224179553,27,8144,-256,0,0,0,0,0
888,1765224179669,42,8137,-236,0,0,0,0,0
889,1765224179903,19,8112,-244,0,0,0,0,0
890,1765224179969,21,8148,-249,0,0,0,0,0
891,1765224180403,21,8133,-243,0,0,0,0,0
892,1765224180636,18,8137,-250,0,0,0,0,0
893,1765224180702,42,8132,-244,0,0,0,0,0
894,1765224180919,34,8150,-254,0,0,0,0,0
895,1765224181086,18,8139,-254,0,0,0,0,0
896,1765224181319,25,8138,-242,0,0,0,0,0
897,1765224181402,40,8144,-252,0,0,0,0,0
898,1765224181487,36,8159,-242,0,0,0,0,0
899,1765224181585,42,8120,-265,0,0,0,0,0
900,1765224181770,16,8148,-276,0,0,0,0,0
901,1765224182219,33,8161,-242,0,0,0,0,0
902,1765224182352,43,8116,-217,0,0,0,0,0
903,1765224182519,17,8140,-247,0,0,0,0,0
904,1765224182934,27,8136,-259,0,0,0,0,0
905,1765224183053,24,8140,-248,0,0,0,0,0
906,1765224183236,35,8146,-256,0,0,0,0,0
907,1765224183366,30,8132,-252,0,0,0,0,0
908,1765224183602,36,8155,-242,0,0,0,0,0
909,1765224183802,27,8141,-260,0,0,0,0,0
910,1765224184036,35,8142,-242,0,0,0,0,0
911,1765224184120,32,8142,-250,0,0,0,0,0
912,1765224184351,30,8149,-243,0,0,0,0,0
913,1765224184536,29,8140,-255,0,0,0,0,0
914,1765224184735,-24,8146,-252,0,0,0,0,0
915,1765224184820,34,8155,-284,0,0,0,0,0
916,1765224185052,79,8171,-254,0,0,0,0,0
917,1765224185203,20,8128,-246,0,0,0,0,0
918,1765224185502,38,8142,-248,0,0,0,0,0
919,1765224185586,57,8134,-248,0,0,0,0,0
920,1765224185803,18,8129,-244,0,0,0,0,0
921,1765224185952,39,8158,-203,0,0,0,0,0
922,1765224186136,51,8130,-268,0,0,0,0,0
923,1765224186286,28,8126,-336,0,0,0,0,0
924,1765224186485,-258,8087,-378,0,0,0,0,0
925,1765224186669,519,8278,1367,0,0,0,0,0
926,1765224186853,530,8385,2472,0,0,0,0,0
927,1765224187336,237,8155,313,0,0,0,0,0
928,1765224187420,-99,8402,600,0,0,0,0,0
929,1765224187653,-390,7981,216,0,0,0,0,0
930,1765224187803,-393,7982,243,0,0,0,0,0
931,1765224188035,-430,8313,-100,0,0,0,0,0
932,1765224188137,-460,8091,205,0,0,0,0,0
933,1765224188370,-836,8169,223,0,0,0,0,0
934,1765224188519,-494,8226,-54,0,0,0,0,0
935,1765224188820,-724,8208,475,0,0,0,0,0
936,1765224188969,-292,8120,212,0,0,0,0,0
937,1765224189136,-1135,7930,-166,0,0,0,0,0
938,1765224189269,-1068,8627,-478,0,0,0,0,0
939,1765224189536,-751,8086,72,0,0,0,0,0
940,1765224189669,-193,7692,297,0,0,0,0,0
941,1765224189870,10,7674,166,0,0,0,0,0
942,1765224189969,727,7678,522,0,0,0,0,0
943,1765224190403,702,6944,65,0,0,0,0,0
944,1765224190669,-2154,8238,102,0,0,0,0,0
945,1765224190736,-1418,9286,-682,0,0,0,0,0
946,1765224190819,-805,6938,-246,0,0,0,0,0
947,1765224191003,-1198,9303,-18,0,0,0,0,0
948,1765224191119,22,7859,-485,0,0,0,0,0
949,1765224191386,-492,8045,-116,0,0,0,0,0
950,1765224191536,-1188,8525,-211,0,0,0,0,0
951,1765224191686,-1018,8192,-140,0,0,0,0,0
952,1765224191820,-806,8162,-248,0,0,0,0,0
953,1765224192270,-1181,8170,-176,0,0,0,0,0
954,1765224192436,-1011,8920,-604,0,0,0,0,0
955,1765224192571,-589,7073,-114,0,0,0,0,0
956,1765224192736,-1411,8600,-223,0,0,0,0,0
957,1765224192985,-1660,7074,-449,0,0,0,0,0
958,1765224193136,-1131,7816,-621,0,0,0,0,0
959,1765224193286,-1187,8548,-57,0,0,0,0,0
960,1765224193336,-1183,7780,-86,0,0,0,0,0
961,1765224193403,-1348,7700,-507,0,0,0,0,0
962,1765224193653,-1305,8465,-350,0,0,0,0,0
963,1765224193902,-1042,6514,-192,0,0,0,0,0
964,1765224194086,-442,8156,253,0,0,0,0,0
965,1765224194153,-450,8669,-297,0,0,0,0,0
966,1765224194402,-535,8228,243,0,0,0,0,0
967,1765224194785,-205,8745,-494,0,0,0,0,0
968,1765224194869,102,7459,87,0,0,0,0,0
969,1765224195102,-178,7906,500,0,0,0,0,0
970,1765224195185,683,8751,209,0,0,0,0,0
971,1765224195219,-581,7061,-156,0,0,0,0,0
972,1765224195337,0,8035,446,0,0,0,0,0
973,1765224195602,-418,8422,260,0,0,0,0,0
974,1765224195802,-72,8404,310,0,0,0,0,0
975,1765224195953,-158,7533,-246,0,0,0,0,0
976,1765224196036,143,9485,77,0,0,0,0,0
977,1765224196251,-137,7871,-133,0,0,0,0,0
978,1765224196402,383,8814,-417,0,0,0,0,0
979,1765224196537,-814,8384,-862,0,0,0,0,0
980,1765224196719,-1472,8593,93,0,0,0,0,0
981,1765224196819,205,5922,-118,0,0,0,0,0
982,1765224197018,-1582,9296,-1274,0,0,0,0,0
983,1765224197119,-199,7866,-2088,0,0,0,0,0
984,1765224197317,-1706,9604,-2609,0,0,0,0,0
985,1765224197503,74,8029,-28,0,0,0,0,0
986,1765224197602,-3958,6958,-1176,0,0,0,0,0
987,1765224197703,-4498,9617,-1562,0,0,0,0,0
988,1765224197919,-4166,6224,-1234,0,0,0,0,0
989,1765224197984,-4075,8803,-1349,0,0,0,0,0
990,1765224198369,-3806,7206,-1235,0,0,0,0,0
991,1765224198435,-3518,7478,-666,0,0,0,0,0
992,1765224198684,-5782,7206,-1069,0,0,0,0,0
993,1765224198736,-5553,6972,-2832,0,0,0,0,0
994,1765224199169,-3520,6740,-1203,0,0,0,0,0
995,1765224199319,-4646,7933,-964,0,0,0,0,0
996,1765224199502,-4202,7702,-726,0,0,0,0,0
997,1765224199603,-3200,8844,1180,0,0,0,0,0
998,1765224199803,-4503,6941,416,0,0,0,0,0
999,1765224199934,-3707,8527,462,0,0,0,0,0
1000,1765224200302,-3518,8015,792,0,0,0,0,0
1001,1765224200385,-3339,8156,395,0,0,0,0,0
1002,1765224200586,-2593,8421,1054,0,0,0,0,0
1003,1765224200719,-3152,8393,1261,0,0,0,0,0
1004,1765224200968,-3152,8204,1273,0,0,0,0,0
1005,1765224201071,-2765,8574,740,0,0,0,0,0
1006,1765224201286,-2090,8408,1232,0,0,0,0,0
1007,1765224201403,-2915,6655,32,0,0,0,0,0
1008,1765224201502,-1823,8256,1472,0,0,0,0,0
1009,1765224201784,-2507,6398,756,0,0,0,0,0
1010,1765224201852,-1694,9989,1776,0,0,0,0,0
1011,1765224201919,-326,8739,1760,0,0,0,0,0
1012,1765224202001,458,8701,1159,0,0,0,0,0
1013,1765224202202,-363,7360,340,0,0,0,0,0
1014,1765224202320,566,8106,410,0,0,0,0,0
1015,1765224202717,1686,6630,162,0,0,0,0,0
1016,1765224202883,1576,8721,-218,0,0,0,0,0
1017,1765224203001,1407,8138,83,0,0,0,0,0
1018,1765224203268,2544,8373,-530,0,0,0,0,0
1019,1765224203417,1849,7154,-226,0,0,0,0,0
1020,1765224203835,3884,9716,-728,0,0,0,0,0
1021,1765224203917,2996,7818,-1250,0,0,0,0,0
1022,1765224204135,1657,8041,-603,0,0,0,0,0
1023,1765224204568,2759,7888,-550,0,0,0,0,0
1024,1765224204718,3123,9016,-1459,0,0,0,0,0
1025,1765224204868,2509,7409,-1444,0,0,0,0,0
1026,1765224205284,2483,8333,-1109,0,0,0,0,0
1027,1765224205485,2923,7412,-1130,0,0,0,0,0
1028,1765224205569,3245,8419,-682,0,0,0,0,0
1029,1765224205653,5133,9859,-1350,0,0,0,0,0
1030,1765224205735,5361,8510,-1466,0,0,0,0,0
1031,1765224206019,5175,8324,-2053,0,0,0,0,0
1032,1765224206219,5350,6984,-1804,0,0,0,0,0
1033,1765224206402,4414,6988,-2790,0,0,0,0,0
1034,1765224206502,4686,6916,-2192,0,0,0,0,0
1035,1765224206686,4797,6941,-2293,0,0,0,0,0
1036,1765224206869,5217,11382,-2073,0,0,0,0,0
1037,1765224207119,1480,7690,-1635,0,0,0,0,0
1038,1765224207169,1554,9154,-1409,0,0,0,0,0
1039,1765224207418,178,8101,-1309,0,0,0,0,0
1040,1765224207553,504,8824,-904,0,0,0,0,0
1041,1765224207853,-114,8164,-850,0,0,0,0,0
1042,1765224207952,-561,7355,-1418,0,0,0,0,0
1043,1765224208203,2834,8498,330,0,0,0,0,0
1044,1765224208285,3103,7376,-329,0,0,0,0,0
1045,1765224208552,4983,9147,136,0,0,0,0,0
1046,1765224208686,4514,8821,-1110,0,0,0,0,0
1047,1765224208935,2173,7666,54,0,0,0,0,0
1048,1765224209069,1315,7638,-434,0,0,0,0,0
1049,1765224209319,-424,8681,-669,0,0,0,0,0
1050,1765224209569,-4619,8249,-60,0,0,0,0,0
1051,1765224209703,-3961,8158,454,0,0,0,0,0
1052,1765224209935,-4066,8492,-320,0,0,0,0,0
1053,1765224210085,-4401,8898,73,0,0,0,0,0
1054,1765224210303,-4387,6089,198,0,0,0,0,0
1055,1765224210401,-3164,8738,672,0,0,0,0,0
1056,1765224210651,-397,9363,976,0,0,0,0,0
1057,1765224210787,1632,7046,-1646,0,0,0,0,0
1058,1765224211103,2950,9893,-3030,0,0,0,0,0
1059,1765224211202,3147,8812,-3331,0,0,0,0,0
1060,1765224211352,7533,7904,-1814,0,0,0,0,0
1061,1765224211519,5617,6719,-3562,0,0,0,0,0
1062,1765224211686,7646,9196,-2229,0,0,0,0,0
1063,1765224211851,7772,7734,-1748,0,0,0,0,0
1064,1765224212019,6483,7513,-3251,0,0,0,0,0
1065,1765224212235,4801,7761,-2857,0,0,0,0,0
1066,1765224212336,5792,6682,-4113,0,0,0,0,0
1067,1765224212735,5475,9403,-3019,0,0,0,0,0
1068,1765224212969,4878,9066,-1844,0,0,0,0,0
1069,1765224213117,3559,7304,-1956,0,0,0,0,0
1070,1765224213319,3828,8087,-1623,0,0,0,0,0
1071,1765224213419,3283,9902,-1620,0,0,0,0,0
1072,1765224213702,3716,5483,-1762,0,0,0,0,0
1073,1765224213836,1684,8470,-2390,0,0,0,0,0
1074,1765224214002,2716,8836,-862,0,0,0,0,0
1075,1765224214135,2878,8030,-1670,0,0,0,0,0
1076,1765224214602,1818,8612,-780,0,0,0,0,0
1077,1765224214818,1965,8019,-876,0,0,0,0,0
1078,1765224214883,2310,7656,-377,0,0,0,0,0
1079,1765224215152,1530,8266,-474,0,0,0,0,0
1080,1765224215319,2147,8304,-544,0,0,0,0,0
1081,1765224215569,1630,7511,-442,0,0,0,0,0
1082,1765224215719,915,8131,-390,0,0,0,0,0
1083,1765224215903,475,8481,-95,0,0,0,0,0
1084,1765224216194,-59,7578,-381,0,0,0,0,0
1085,1765224216370,-437,8205,-180,0,0,0,0,0
1086,1765224216486,-642,9233,-104,0,0,0,0,0
1087,1765224216719,-147,7531,12,0,0,0,0,0
1088,1765224216802,-1134,7720,-106,0,0,0,0,0
1089,1765224217069,-1499,8268,-268,0,0,0,0,0
1090,1765224217186,-1224,7766,197,0,0,0,0,0
1091,1765224217418,-2560,8016,-80,0,0,0,0,0
1092,1765224217502,-1926,7405,-37,0,0,0,0,0
1093,1765224217551,-1917,6917,-36,0,0,0,0,0
1094,1765224217719,-1475,9360,-156,0,0,0,0,0
1095,1765224217952,-2034,7226,-230,0,0,0,0,0
1096,1765224218151,-2012,8211,-220,0,0,0,0,0
1097,1765224218185,-2764,7662,-292,0,0,0,0,0
1098,1765224218302,-2578,7670,42,0,0,0,0,0
1099,1765224218535,-2092,8386,-436,0,0,0,0,0
1100,1765224218685,-2676,7990,-606,0,0,0,0,0
1101,1765224218952,-2062,8133,-508,0,0,0,0,0
1102,1765224219018,-1921,8424,-46,0,0,0,0,0
1103,1765224219252,-2395,8512,-420,0,0,0,0,0
1104,1765224219701,-1694,9302,178,0,0,0,0,0
1105,1765224219819,-1642,7578,-408,0,0,0,0,0
1106,1765224220001,-760,8775,20,0,0,0,0,0
1107,1765224220136,1005,8214,543,0,0,0,0,0
1108,1765224220419,378,8461,129,0,0,0,0,0
1109,1765224220486,1238,8113,336,0,0,0,0,0
1110,1765224220752,2602,8645,-800,0,0,0,0,0
1111,1765224220836,2454,8726,-359,0,0,0,0,0
1112,1765224221153,3259,8512,-356,0,0,0,0,0
1113,1765224221302,2897,8000,-412,0,0,0,0,0
1114,1765224221552,2753,9199,-700,0,0,0,0,0
1115,1765224221669,2288,7742,-454,0,0,0,0,0
1116,1765224221869,2570,8405,38,0,0,0,0,0
1117,1765224221919,-70,8860,-642,0,0,0,0,0
1118,1765224222052,19,7824,-108,0,0,0,0,0
1119,1765224222253,489,7782,-380,0,0,0,0,0
1120,1765224222386,63,8629,-554,0,0,0,0,0
1121,1765224222636,331,8734,419,0,0,0,0,0
1122,1765224222852,269,8494,-527,0,0,0,0,0
1123,1765224223019,1136,7954,33,0,0,0,0,0
1124,1765224223386,-721,8448,-274,0,0,0,0,0
1125,1765224223502,850,8257,352,0,0,0,0,0
1126,1765224223719,-426,8471,-83,0,0,0,0,0
1127,1765224223852,283,6693,-222,0,0,0,0,0
1128,1765224224085,-455,8665,-458,0,0,0,0,0
1129,1765224224169,80,8968,-115,0,0,0,0,0
1130,1765224224602,308,8793,-540,0,0,0,0,0
1131,1765224224835,958,8126,210,0,0,0,0,0
1132,1765224224952,1254,8214,-142,0,0,0,0,0
1133,1765224225203,2186,9659,-589,0,0,0,0,0
1134,1765224225335,1022,8349,290,0,0,0,0,0
1135,1765224225551,1358,7337,-415,0,0,0,0,0
1136,1765224225685,1657,9458,366,0,0,0,0,0
1137,1765224225935,3296,8119,-778,0,0,0,0,0
1138,1765224226119,2209,7474,-784,0,0,0,0,0
1139,1765224226352,3842,8934,-686,0,0,0,0,0
1140,1765224226450,4024,7836,-1400,0,0,0,0,0
1141,1765224226685,4671,8952,-852,0,0,0,0,0
1142,1765224226750,4794,7260,-2021,0,0,0,0,0
1143,1765224227136,5145,6276,-846,0,0,0,0,0
1144,1765224227302,6262,11060,-1286,0,0,0,0,0
1145,1765224227435,5013,6755,-1636,0,0,0,0,0
1146,1765224227569,2393,7541,-1184,0,0,0,0,0
1147,1765224227852,1534,9516,-1071,0,0,0,0,0
1148,1765224228053,1428,9070,-6,0,0,0,0,0
1149,1765224228201,-3246,9186,-610,0,0,0,0,0
1150,1765224228316,-3064,7507,-595,0,0,0,0,0
1151,1765224228551,-2276,6318,-283,0,0,0,0,0
1152,1765224228669,-4972,8778,-1302,0,0,0,0,0
1153,1765224228836,-4501,9807,-629,0,0,0,0,0
1154,1765224229002,-4723,4593,-978,0,0,0,0,0
1155,1765224229169,-4008,10107,1006,0,0,0,0,0
1156,1765224229302,-5400,6702,-834,0,0,0,0,0
1157,1765224229735,-2853,10334,-1894,0,0,0,0,0
1158,1765224229817,16,6674,-2184,0,0,0,0,0
1159,1765224230168,6198,8628,-1285,0,0,0,0,0
1160,1765224230253,4663,6076,-2066,0,0,0,0,0
1161,1765224230485,6748,9596,-1950,0,0,0,0,0
1162,1765224230585,6768,9086,-1904,0,0,0,0,0
1163,1765224230668,5850,8989,-1995,0,0,0,0,0
1164,1765224230885,5655,10450,-1753,0,0,0,0,0
1165,1765224230968,4575,7660,-2050,0,0,0,0,0
1166,1765224231319,4713,8073,-2222,0,0,0,0,0
1167,1765224231552,4326,6762,-1322,0,0,0,0,0
1168,1765224231702,4474,8096,-2194,0,0,0,0,0
1169,1765224231869,4660,9196,-2097,0,0,0,0,0
1170,1765224232017,4906,7038,538,0,0,0,0,0
1171,1765224232119,4130,7646,721,0,0,0,0,0
1172,1765224232386,5709,12616,-780,0,0,0,0,0
1173,1765224232435,6086,9086,-589,0,0,0,0,0
1174,1765224232484,4333,4872,332,0,0,0,0,0
1175,1765224232569,5284,8649,-707,0,0,0,0,0
1176,1765224232802,7515,8991,-207,0,0,0,0,0
1177,1765224232868,6331,7904,-2692,0,0,0,0,0
1178,1765224233285,2770,8386,-2156,0,0,0,0,0
1179,1765224233385,3202,7160,-1218,0,0,0,0,0
1180,1765224233569,2836,8913,-1373,0,0,0,0,0
1181,1765224233668,3546,8462,-2350,0,0,0,0,0
1182,1765224233702,1876,7033,-1688,0,0,0,0,0
1183,1765224233768,2714,9288,-1220,0,0,0,0,0
1184,1765224234052,1646,8180,-1546,0,0,0,0,0
1185,1765224234136,2137,8240,-1708,0,0,0,0,0
1186,1765224234452,1476,7407,-1238,0,0,0,0,0
1187,1765224234836,1626,7830,-678,0,0,0,0,0
1188,1765224235185,629,8196,-442,0,0,0,0,0
1189,1765224235268,-196,8115,-1057,0,0,0,0,0
1190,1765224235502,236,9083,-1486,0,0,0,0,0
1191,1765224235602,-1102,7837,-764,0,0,0,0,0
1192,1765224235685,-1789,8806,-2118,0,0,0,0,0
1193,1765224235952,-340,7199,-284,0,0,0,0,0
1194,1765224236052,-1119,8233,-1476,0,0,0,0,0
1195,1765224236367,-130,7890,-229,0,0,0,0,0
1196,1765224236434,-841,7898,-996,0,0,0,0,0
1197,1765224236736,-271,8348,56,0,0,0,0,0
1198,1765224236869,-2472,7749,-3973,0,0,0,0,0
1199,1765224237035,-6,7900,-1496,0,0,0,0,0
1200,1765224237152,421,9105,1361,0,0,0,0,0
1201,1765224237318,-1388,8723,-2712,0,0,0,0,0
1202,1765224237435,-106,6966,-231,0,0,0,0,0
1203,1765224237635,140,8228,248,0,0,0,0,0
1204,1765224237785,-1000,8026,3326,0,0,0,0,0
1205,1765224237918,-1685,8263,292,0,0,0,0,0
1206,1765224238087,-1240,8282,1299,0,0,0,0,0
1207,1765224238285,-485,8030,1140,0,0,0,0,0
1208,1765224238501,-1598,8444,657,0,0,0,0,0
1209,1765224238752,-1414,7918,-540,0,0,0,0,0
1210,1765224238836,-1206,7910,-310,0,0,0,0,0
1211,1765224239069,-1621,8425,-420,0,0,0,0,0
1212,1765224239485,-1018,7964,-270,0,0,0,0,0
1213,1765224239535,-1354,8248,-374,0,0,0,0,0
1214,1765224239768,-1135,7420,-504,0,0,0,0,0
1215,1765224239902,-1113,7516,168,0,0,0,0,0
1216,1765224240219,-1768,8889,-246,0,0,0,0,0
1217,1765224240352,-766,8517,-112,0,0,0,0,0
1218,1765224240602,-1253,8796,89,0,0,0,0,0
1219,1765224240668,-1559,8615,286,0,0,0,0,0
1220,1765224240934,-1336,6989,243,0,0,0,0,0
1221,1765224241119,-1470,8474,470,0,0,0,0,0
1222,1765224241335,-827,7961,640,0,0,0,0,0
1223,1765224241436,-388,7276,639,0,0,0,0,0
1224,1765224241636,-166,8656,666,0,0,0,0,0
1225,1765224241785,-546,7312,272,0,0,0,0,0
1226,1765224242084,-222,7268,671,0,0,0,0,0
1227,1765224242236,-941,8366,516,0,0,0,0,0
1228,1765224242467,-96,9135,681,0,0,0,0,0
1229,1765224242518,-43,8317,461,0,0,0,0,0
1230,1765224242802,102,8239,150,0,0,0,0,0
1231,1765224242919,792,8137,594,0,0,0,0,0
1232,1765224243152,883,7250,211,0,0,0,0,0
1233,1765224243235,134,8544,467,0,0,0,0,0
1234,1765224243536,487,8013,-178,0,0,0,0,0
1235,1765224243719,933,8295,-198,0,0,0,0,0
1236,1765224243919,1418,8063,-458,0,0,0,0,0
1237,1765224244069,1242,8709,-566,0,0,0,0,0
1238,1765224244302,1567,9944,-772,0,0,0,0,0
1239,1765224244486,1553,6374,-1038,0,0,0,0,0
1240,1765224244652,1487,7892,-619,0,0,0,0,0
1241,1765224244852,1132,9066,-840,0,0,0,0,0
1242,1765224245019,2338,8408,-505,0,0,0,0,0
1243,1765224245285,1406,8964,-1026,0,0,0,0,0
1244,1765224245402,1290,8591,-1085,0,0,0,0,0
1245,1765224245568,2474,8973,-206,0,0,0,0,0
1246,1765224245752,1690,8150,-140,0,0,0,0,0
1247,1765224245902,1664,8450,-897,0,0,0,0,0
1248,1765224246085,1112,7735,-918,0,0,0,0,0
1249,1765224246235,952,8193,-331,0,0,0,0,0
1250,1765224246452,-127,8123,-824,0,0,0,0,0
1251,1765224246551,-9,8308,-671,0,0,0,0,0
1252,1765224246835,-688,8293,-559,0,0,0,0,0
1253,1765224247052,-486,8058,-607,0,0,0,0,0
1254,1765224247218,-225,9054,-149,0,0,0,0,0
1255,1765224247419,-1083,7563,-426,0,0,0,0,0
1256,1765224247619,-477,7420,-611,0,0,0,0,0
1257,1765224247818,-986,8644,-700,0,0,0,0,0
1258,1765224247952,-398,8236,-507,0,0,0,0,0
1259,1765224248069,-258,8377,-542,0,0,0,0,0
1260,1765224248318,-955,7626,-735,0,0,0,0,0
1261,1765224248401,-370,7719,-536,0,0,0,0,0
1262,1765224248802,-1040,7451,-709,0,0,0,0,0
1263,1765224249013,-1408,8831,-888,0,0,0,0,0
1264,1765224249101,-1536,7679,-524,0,0,0,0,0
1265,1765224249252,-1065,8468,-860,0,0,0,0,0
1266,1765224249517,-164,7377,-26,0,0,0,0,0
1267,1765224249601,-204,8509,-308,0,0,0,0,0
1268,1765224249819,-17,7717,-424,0,0,0,0,0
1269,1765224249952,476,8278,-562,0,0,0,0,0
1270,1765224250102,1107,7812,-786,0,0,0,0,0
1271,1765224250335,1032,8107,-933,0,0,0,0,0
1272,1765224250535,784,8441,-1224,0,0,0,0,0
1273,1765224250686,1947,8412,-891,0,0,0,0,0
1274,1765224250871,1124,7544,-960,0,0,0,0,0
1275,1765224251035,1387,7776,-762,0,0,0,0,0
1276,1765224251152,-959,8810,-888,0,0,0,0,0
1277,1765224251385,-822,7948,-718,0,0,0,0,0
1278,1765224251519,-1480,7072,-1094,0,0,0,0,0
1279,1765224251685,-1354,7598,-708,0,0,0,0,0
1280,1765224251719,-2114,8502,-742,0,0,0,0,0
1281,1765224251835,-3546,7822,-1165,0,0,0,0,0
1282,1765224252135,-3071,7743,-1712,0,0,0,0,0
1283,1765224252235,-2753,8459,-856,0,0,0,0,0
1284,1765224252402,-3569,8440,-1476,0,0,0,0,0
1285,1765224252585,-2511,8577,-1276,0,0,0,0,0
1286,1765224252751,-2069,6432,-237,0,0,0,0,0
1287,1765224252902,-2521,11154,-1608,0,0,0,0,0
1288,1765224252935,-2892,7962,-1112,0,0,0,0,0
1289,1765224253051,-2711,8028,-1342,0,0,0,0,0
1290,1765224253285,-3725,7182,-1445,0,0,0,0,0
1291,1765224253369,-2960,9984,-1516,0,0,0,0,0
1292,1765224253586,-2796,8484,-780,0,0,0,0,0
1293,1765224253801,-1381,7171,-800,0,0,0,0,0
1294,1765224254052,-2964,8192,-784,0,0,0,0,0
1295,1765224254135,-2075,8595,-754,0,0,0,0,0
1296,1765224254185,-1644,7329,-802,0,0,0,0,0
1297,1765224254402,-1892,8334,-808,0,0,0,0,0
1298,1765224254485,-1160,8162,-805,0,0,0,0,0
1299,1765224254769,-1461,7626,-926,0,0,0,0,0
1300,1765224254902,-887,8076,-916,0,0,0,0,0
1301,1765224255018,-1044,8124,-676,0,0,0,0,0
1302,1765224255186,-1338,7996,-781,0,0,0,0,0
1303,1765224255635,-796,8242,-853,0,0,0,0,0
1304,1765224255702,-495,7734,-632,0,0,0,0,0
1305,1765224255934,-219,8086,-698,0,0,0,0,0
1306,1765224256085,27,8056,-651,0,0,0,0,0
1307,1765224256235,174,8102,-764,0,0,0,0,0
1308,1765224256402,-215,8030,-674,0,0,0,0,0
1309,1765224256619,-225,8166,-729,0,0,0,0,0
1310,1765224256769,-200,8214,-454,0,0,0,0,0
1311,1765224256900,-145,8142,-118,0,0,0,0,0
1312,1765224257152,-302,8111,205,0,0,0,0,0
1313,1765224257352,-345,8117,308,0,0,0,0,0
1314,1765224257533,-227,8114,84,0,0,0,0,0
1315,1765224257685,-256,8151,-13,0,0,0,0,0
1316,1765224257819,-351,8168,132,0,0,0,0,0
1317,1765224257950,-300,8100,114,0,0,0,0,0
1318,1765224258168,-254,8166,42,0,0,0,0,0
1319,1765224258268,-288,8148,92,0,0,0,0,0
1320,1765224258519,-295,8116,88,0,0,0,0,0
1321,1765224258652,-256,8120,-49,0,0,0,0,0
1322,1765224258784,-258,8151,-88,0,0,0,0,0
1323,1765224259034,-232,8118,-144,0,0,0,0,0
1324,1765224259168,-219,8086,282,0,0,0,0,0
1325,1765224259385,-380,8043,181,0,0,0,0,0
1326,1765224259485,-352,8143,286,0,0,0,0,0
1327,1765224259735,-341,8162,208,0,0,0,0,0
1328,1765224259955,-274,8098,-143,0,0,0,0,0
1329,1765224260051,-273,8120,-127,0,0,0,0,0
1330,1765224260168,-287,8126,-167,0,0,0,0,0
1331,1765224260534,-358,8072,-152,0,0,0,0,0
1332,1765224260752,-354,7962,-116,0,0,0,0,0
1333,1765224260918,-467,8298,-208,0,0,0,0,0
1334,1765224261034,-346,8105,-92,0,0,0,0,0
1335,1765224261202,-420,8042,-178,0,0,0,0,0
1336,1765224261317,-256,8302,106,0,0,0,0,0
1337,1765224261585,-343,8160,-30,0,0,0,0,0
1338,1765224261685,-246,8753,-30,0,0,0,0,0
1339,1765224261801,-236,7479,-75,0,0,0,0,0
1340,1765224262017,-408,8299,107,0,0,0,0,0
1341,1765224262085,-276,8306,22,0,0,0,0,0
1342,1765224262502,-313,8324,240,0,0,0,0,0
1343,1765224262619,-312,8147,188,0,0,0,0,0
1344,1765224262801,-114,8293,112,0,0,0,0,0
1345,1765224262951,-158,8362,148,0,0,0,0,0
1346,1765224263101,-108,7898,163,0,0,0,0,0
1347,1765224263268,-245,8082,144,0,0,0,0,0
1348,1765224263586,-104,8240,138,0,0,0,0,0
1349,1765224263684,-45,8026,84,0,0,0,0,0
1350,1765224263867,-156,8221,56,0,0,0,0,0
1351,1765224264035,-194,8217,166,0,0,0,0,0
1352,1765224264101,-167,8356,77,0,0,0,0,0
1353,1765224264385,-180,8450,170,0,0,0,0,0
1354,1765224264468,-24,7749,118,0,0,0,0,0
1355,1765224264652,-44,8201,195,0,0,0,0,0
1356,1765224264717,-57,7966,138,0,0,0,0,0
1357,1765224264869,-92,8066,72,0,0,0,0,0
1358,1765224264984,-124,8297,192,0,0,0,0,0
1359,1765224265201,-136,8135,130,0,0,0,0,0
1360,1765224265301,-6,8016,26,0,0,0,0,0
1361,1765224265351,-356,8375,107,0,0,0,0,0
1362,1765224265585,-186,8144,60,0,0,0,0,0
1363,1765224265668,-20,7878,35,0,0,0,0,0
1364,1765224265968,-156,8336,162,0,0,0,0,0
1365,1765224266167,-121,8163,112,0,0,0,0,0
1366,1765224266368,-110,8220,80,0,0,0,0,0
1367,1765224266568,-80,8165,289,0,0,0,0,0
1368,1765224266751,-61,8178,533,0,0,0,0,0
1369,1765224266851,-55,8183,646,0,0,0,0,0
1370,1765224267101,32,8159,618,0,0,0,0,0
1371,1765224267284,-3,8216,612,0,0,0,0,0
1372,1765224267402,25,8180,596,0,0,0,0,0
1373,1765224267584,-116,8149,63,0,0,0,0,0
1374,1765224267751,-124,8136,-50,0,0,0,0,0
1375,1765224268051,-64,8148,2,0,0,0,0,0
1376,1765224268117,-150,8145,2,0,0,0,0,0
1377,1765224268435,-105,8112,51,0,0,0,0,0
1378,1765224268518,-126,8136,61,0,0,0,0,0
1379,1765224268718,-100,8156,45,0,0,0,0,0
1380,1765224268835,-86,8149,92,0,0,0,0,0
1381,1765224268984,-111,8196,-265,0,0,0,0,0
1382,1765224269218,-117,8041,49,0,0,0,0,0
1383,1765224269285,-197,8130,-338,0,0,0,0,0
1384,1765224269651,-100,7968,1003,0,0,0,0,0
1385,1765224269918,200,8326,1166,0,0,0,0,0
1386,1765224270018,370,8129,967,0,0,0,0,0
1387,1765224270152,25,8233,646,0,0,0,0,0
1388,1765224270352,60,8123,908,0,0,0,0,0
1389,1765224270434,-49,8092,1018,0,0,0,0,0
1390,1765224270701,-142,8180,894,0,0,0,0,0
1391,1765224270877,-412,8450,1193,0,0,0,0,0
1392,1765224270884,-788,8244,695,0,0,0,0,0
1393,1765224271101,-422,7948,1002,0,0,0,0,0
1394,1765224271168,-140,7818,1432,0,0,0,0,0
1395,1765224271602,-167,8392,331,0,0,0,0,0
1396,1765224271701,-298,8076,11,0,0,0,0,0
1397,1765224271885,-180,8614,410,0,0,0,0,0
1398,1765224272018,-634,8513,286,0,0,0,0,0
1399,1765224272102,-342,8073,24,0,0,0,0,0
1400,1765224272302,-747,7983,125,0,0,0,0,0
1401,1765224272468,-508,7748,303,0,0,0,0,0
1402,1765224272684,64,8486,422,0,0,0,0,0
1403,1765224272785,-80,8288,390,0,0,0,0,0
1404,1765224273018,148,7944,310,0,0,0,0,0
1405,1765224273485,-145,7592,-1391,0,0,0,0,0
1406,1765224273585,-112,7838,-1288,0,0,0,0,0
1407,1765224273785,125,8516,-1098,0,0,0,0,0
1408,1765224273918,222,8795,-1264,0,0,0,0,0
1409,1765224274168,384,8682,-1132,0,0,0,0,0
1410,1765224274251,-602,7540,-1424,0,0,0,0,0
1411,1765224274618,4,7938,-1989,0,0,0,0,0
1412,1765224274752,-14,8222,-2009,0,0,0,0,0
1413,1765224274984,124,7988,-354,0,0,0,0,0
1414,1765224275151,35,8287,-166,0,0,0,0,0
1415,1765224275368,-10,8029,-326,0,0,0,0,0
1416,1765224275484,38,8188,-232,0,0,0,0,0
1417,1765224275700,47,8157,-56,0,0,0,0,0
1418,1765224275834,19,8142,-149,0,0,0,0,0
1419,1765224276084,53,8135,-170,0,0,0,0,0
1420,1765224276150,42,8148,-192,0,0,0,0,0
1421,1765224276351,32,8138,-168,0,0,0,0,0
1422,1765224276518,30,8143,-183,0,0,0,0,0
1423,1765224276818,42,8144,-170,0,0,0,0,0
1424,1765224276900,36,8144,-166,0,0,0,0,0
1425,1765224276966,33,8150,-168,0,0,0,0,0
1426,1765224277084,26,8135,-184,0,0,0,0,0
1427,1765224277251,20,8140,-166,0,0,0,0,0
1428,1765224277451,36,8146,-163,0,0,0,0,0
1429,1765224277602,32,8142,-168,0,0,0,0,0
1430,1765224277718,36,8135,-172,0,0,0,0,0
1431,1765224277935,34,8159,-146,0,0,0,0,0
1432,1765224278002,27,8151,-181,0,0,0,0,0
1433,1765224278452,30,8156,-192,0,0,0,0,0
1434,1765224278651,45,8144,-178,0,0,0,0,0
1435,1765224278751,32,8136,-151,0,0,0,0,0
1436,1765224278818,27,8141,-207,0,0,0,0,0
1437,1765224278868,14,8151,-168,0,0,0,0,0
1438,1765224279101,50,8144,-145,0,0,0,0,0
1439,1765224279284,37,8128,-177,0,0,0,0,0
1440,1765224279485,40,8146,-157,0,0,0,0,0
1441,1765224279568,35,8143,-189,0,0,0,0,0
1442,1765224279801,30,8137,-163,0,0,0,0,0
1443,1765224280035,21,8143,-164,0,0,0,0,0
1444,1765224280233,42,8140,-164,0,0,0,0,0
1445,1765224280302,39,8152,-160,0,0,0,0,0
1446,1765224280551,28,8140,-184,0,0,0,0,0
1447,1765224280701,16,8087,-153,0,0,0,0,0
1448,1765224280867,38,8196,-185,0,0,0,0,0
1449,1765224281018,15,8103,-177,0,0,0,0,0
1450,1765224281251,68,8169,-131,0,0,0,0,0
1451,1765224281368,55,8158,-154,0,0,0,0,0
1452,1765224281468,25,8129,-149,0,0,0,0,0
1453,1765224281835,46,8112,-186,0,0,0,0,0
1454,1765224281951,-6,8132,-257,0,0,0,0,0
1455,1765224282134,-15,8086,-90,0,0,0,0,0
1456,1765224282285,-12,8288,41,0,0,0,0,0
1457,1765224282468,69,8220,-334,0,0,0,0,0
1458,1765224282635,54,8186,-213,0,0,0,0,0
1459,1765224282833,13,8121,-152,0,0,0,0,0
1460,1765224282985,34,8130,-108,0,0,0,0,0
1461,1765224283150,48,8169,-160,0,0,0,0,0
1462,1765224283218,53,8154,-123,0,0,0,0,0
1463,1765224283268,17,8129,-180,0,0,0,0,0
1464,1765224283585,22,8152,-157,0,0,0,0,0
1465,1765224283784,41,8160,-157,0,0,0,0,0
1466,1765224283967,2,8146,-165,0,0,0,0,0
1467,1765224284085,16,8136,-160,0,0,0,0,0
1468,1765224284300,63,8143,-152,0,0,0,0,0
1469,1765224284668,32,8154,-178,0,0,0,0,0
1470,1765224284752,22,8158,-181,0,0,0,0,0
1471,1765224285033,28,8125,-114,0,0,0,0,0
1472,1765224285218,22,8122,-137,0,0,0,0,0
1473,1765224285418,38,8157,-172,0,0,0,0,0
1474,1765224285568,39,8148,-170,0,0,0,0,0
1475,1765224285801,31,8140,-146,0,0,0,0,0
1476,1765224285918,61,8138,-150,0,0,0,0,0
1477,1765224286118,20,8114,-162,0,0,0,0,0
1478,1765224286284,12,8124,-176,0,0,0,0,0
1479,1765224286502,26,8152,-161,0,0,0,0,0
1480,1765224286718,16,8119,-156,0,0,0,0,0
1481,1765224286866,32,8168,-157,0,0,0,0,0
1482,1765224286934,35,8162,-147,0,0,0,0,0
1483,1765224287018,28,8130,-160,0,0,0,0,0
1484,1765224287251,31,8157,-164,0,0,0,0,0
1485,1765224287368,30,8132,-164,0,0,0,0,0
1486,1765224287716,30,8157,-164,0,0,0,0,0
1487,1765224287953,42,8138,-150,0,0,0,0,0
1488,1765224288053,26,8146,-161,0,0,0,0,0
1489,1765224288284,62,8173,-136,0,0,0,0,0
1490,1765224288518,33,8132,-146,0,0,0,0,0
1491,1765224288701,24,8138,-159,0,0,0,0,0
1492,1765224288867,32,8141,-143,0,0,0,0,0
1493,1765224289100,20,8155,-159,0,0,0,0,0
1494,1765224289253,-30,8097,-180,0,0,0,0,0
1495,1765224289436,42,8147,-164,0,0,0,0,0
1496,1765224289453,40,8150,-137,0,0,0,0,0
1497,1765224289560,21,8140,-144,0,0,0,0,0
1498,1765224289803,24,8132,-173,0,0,0,0,0
1499,1765224290053,28,8155,-158,0,0,0,0,0
1500,1765224290251,18,8176,-157,0,0,0,0,0
1501,1765224290337,36,8133,-164,0,0,0,0,0
1502,1765224290553,32,8124,-142,0,0,0,0,0
1503,1765224290686,71,8151,-136,0,0,0,0,0
1504,1765224290881,74,8100,-164,0,0,0,0,0
1505,1765224291002,-24,8162,-98,0,0,0,0,0
1506,1765224291236,70,8175,-142,0,0,0,0,0
1507,1765224291386,54,8160,-170,0,0,0,0,0
1508,1765224291604,-28,8086,-148,0,0,0,0,0
1509,1765224291836,66,8111,-202,0,0,0,0,0
1510,1765224292070,80,8248,-168,0,0,0,0,0
1511,1765224292153,92,8169,-160,0,0,0,0,0
1512,1765224292374,10,8032,-56,0,0,0,0,0
1513,1765224292562,52,8223,-37,0,0,0,0,0
1514,1765224292881,-30,8070,-180,0,0,0,0,0
1515,1765224292888,81,8020,-88,0,0,0,0,0
1516,1765224293104,60,8312,-259,0,0,0,0,0
1517,1765224293252,-44,8151,-192,0,0,0,0,0
1518,1765224293553,26,8145,-235,0,0,0,0,0
1519,1765224293634,101,8138,-140,0,0,0,0,0
1520,1765224293867,70,8231,-158,0,0,0,0,0
1521,1765224294002,78,8202,-129,0,0,0,0,0
1522,1765224294203,41,8086,-168,0,0,0,0,0
1523,1765224294335,27,8095,-176,0,0,0,0,0
1524,1765224294551,30,8169,-147,0,0,0,0,0
1525,1765224294701,92,8067,-138,0,0,0,0,0
1526,1765224294919,52,8114,-169,0,0,0,0,0
1527,1765224295085,15,8119,-234,0,0,0,0,0
1528,1765224295335,92,8171,-191,0,0,0,0,0
1529,1765224295452,48,8120,-212,0,0,0,0,0
1530,1765224295685,72,8187,-178,0,0,0,0,0
1531,1765224295820,93,8164,-260,0,0,0,0,0
1532,1765224295918,74,8124,-253,0,0,0,0,0
1533,1765224296152,47,8130,-180,0,0,0,0,0
1534,1765224296285,61,8156,-138,0,0,0,0,0
1535,1765224296402,46,8130,-135,0,0,0,0,0
1536,1765224296568,68,8159,-141,0,0,0,0,0
1537,1765224296869,66,8132,-199,0,0,0,0,0
1538,1765224296984,82,8102,-127,0,0,0,0,0
1539,1765224297083,64,8149,-145,0,0,0,0,0
1540,1765224297285,36,8196,-158,0,0,0,0,0
1541,1765224297418,79,8074,-138,0,0,0,0,0
1542,1765224297737,87,8125,-162,0,0,0,0,0
1543,1765224297968,42,8141,-168,0,0,0,0,0
1544,1765224298052,35,8166,-162,0,0,0,0,0
1545,1765224298419,58,8144,-170,0,0,0,0,0
1546,1765224298634,65,8145,-166,0,0,0,0,0
1547,1765224298918,76,8134,-166,0,0,0,0,0
1548,1765224299035,68,8126,-165,0,0,0,0,0
1549,1765224299201,55,8139,-154,0,0,0,0,0
1550,1765224299401,65,8150,-158,0,0,0,0,0
1551,1765224299650,70,8144,-166,0,0,0,0,0
1552,1765224299768,68,8148,-147,0,0,0,0,0
1553,1765224299935,64,8140,-160,0,0,0,0,0
1554,1765224300050,54,8132,-163,0,0,0,0,0
1555,1765224300152,56,8148,-163,0,0,0,0,0
1556,1765224300417,67,8146,-160,0,0,0,0,0
1557,1765224300618,52,8132,-177,0,0,0,0,0
1558,1765224300701,62,8131,-168,0,0,0,0,0
1559,1765224300851,50,8132,-174,0,0,0,0,0
1560,1765224300999,60,8157,-183,0,0,0,0,0
1561,1765224301185,66,8148,-200,0,0,0,0,0
1562,1765224301268,48,8122,-185,0,0,0,0,0
1563,1765224301418,59,8144,-202,0,0,0,0,0
1564,1765224301585,76,8137,-188,0,0,0,0,0
1565,1765224301734,78,8166,-176,0,0,0,0,0
1566,1765224302002,76,8146,-194,0,0,0,0,0
1567,1765224302233,77,8161,-187,0,0,0,0,0
1568,1765224302367,51,8120,-163,0,0,0,0,0
1569,1765224302484,72,8150,-165,0,0,0,0,0
1570,1765224302618,46,8139,-166,0,0,0,0,0
1571,1765224302784,38,8145,-151,0,0,0,0,0
1572,1765224302918,63,8140,-179,0,0,0,0,0
1573,1765224303234,52,8157,-176,0,0,0,0,0
1574,1765224303368,54,8134,-184,0,0,0,0,0
1575,1765224303533,65,8130,-160,0,0,0,0,0
1576,1765224303687,66,8147,-170,0,0,0,0,0
1577,1765224303751,59,8154,-170,0,0,0,0,0
1578,1765224304017,69,8137,-166,0,0,0,0,0
1579,1765224304168,55,8131,-168,0,0,0,0,0
1580,1765224304418,56,8139,-174,0,0,0,0,0
1581,1765224304551,57,8127,-172,0,0,0,0,0
1582,1765224304718,54,8160,-184,0,0,0,0,0
1583,1765224304901,64,8134,-186,0,0,0,0,0
1584,1765224305118,72,8148,-188,0,0,0,0,0
1585,1765224305201,67,8135,-177,0,0,0,0,0
1586,1765224305401,63,8134,-176,0,0,0,0,0
1587,1765224305619,55,8147,-197,0,0,0,0,0
1588,1765224305918,68,8132,-168,0,0,0,0,0
1589,1765224305999,62,8133,-144,0,0,0,0,0
1590,1765224306101,64,8150,-167,0,0,0,0,0
1591,1765224306285,61,8137,-166,0,0,0,0,0
1592,1765224306401,62,8135,-173,0,0,0,0,0
1593,1765224306601,57,8147,-178,0,0,0,0,0
1594,1765224306852,77,8148,-176,0,0,0,0,0
1595,1765224307018,66,8135,-172,0,0,0,0,0
1596,1765224307151,62,8137,-171,0,0,0,0,0
1597,1765224307519,58,8154,-176,0,0,0,0,0
1598,1765224307785,66,8131,-178,0,0,0,0,0
1599,1765224307884,55,8137,-170,0,0,0,0,0
1600,1765224307968,54,8142,-180,0,0,0,0,0
1601,1765224308101,64,8138,-173,0,0,0,0,0
1602,1765224308268,58,8138,-170,0,0,0,0,0
1603,1765224308518,65,8136,-162,0,0,0,0,0
1604,1765224308684,60,8145,-176,0,0,0,0,0
1605,1765224308768,65,8140,-178,0,0,0,0,0
1606,1765224308984,60,8139,-180,0,0,0,0,0
1607,1765224309434,77,8150,-176,0,0,0,0,0
1608,1765224309534,66,8146,-166,0,0,0,0,0
1609,1765224309734,63,8134,-166,0,0,0,0,0
1610,1765224309884,130,8176,-143,0,0,0,0,0
1611,1765224310067,70,8167,-186,0,0,0,0,0
1612,1765224310235,22,8149,-163,0,0,0,0,0
1613,1765224310451,64,8142,-166,0,0,0,0,0
1614,1765224310601,61,8157,-198,0,0,0,0,0
1615,1765224310768,61,8128,-201,0,0,0,0,0
1616,1765224310985,58,8154,-177,0,0,0,0,0
1617,1765224311217,81,8068,-168,0,0,0,0,0
1618,1765224311368,43,8192,-201,0,0,0,0,0
1619,1765224311584,78,8256,-169,0,0,0,0,0
1620,1765224311750,98,8162,-166,0,0,0,0,0
1621,1765224311868,106,8166,-180,0,0,0,0,0
1622,1765224312068,28,8104,-146,0,0,0,0,0
1623,1765224312251,24,8100,-189,0,0,0,0,0
1624,1765224312435,83,8149,-204,0,0,0,0,0
1625,1765224312501,32,8132,-188,0,0,0,0,0
1626,1765224312799,74,8150,-210,0,0,0,0,0
1627,1765224312934,67,8140,-160,0,0,0,0,0
1628,1765224313168,53,8150,-177,0,0,0,0,0
1629,1765224313284,49,8142,-191,0,0,0,0,0
1630,1765224313501,70,8143,-177,0,0,0,0,0
1631,1765224313651,66,8144,-168,0,0,0,0,0
1632,1765224313885,54,8150,-164,0,0,0,0,0
1633,1765224313967,69,8134,-165,0,0,0,0,0
1634,1765224314367,68,8131,-165,0,0,0,0,0
1635,1765224314643,46,8145,-154,0,0,0,0,0
1636,1765224314767,73,8108,-166,0,0,0,0,0
1637,1765224314968,57,8160,-143,0,0,0,0,0
1638,1765224315051,72,8150,-160,0,0,0,0,0
1639,1765224315335,59,8127,-168,0,0,0,0,0
1640,1765224315467,57,8139,-156,0,0,0,0,0
1641,1765224315617,58,8130,-204,0,0,0,0,0
1642,1765224315751,64,8150,-214,0,0,0,0,0
1643,1765224316218,56,8140,-176,0,0,0,0,0
1644,1765224316401,67,8148,-174,0,0,0,0,0
1645,1765224316517,55,8136,-172,0,0,0,0,0
1646,1765224316717,64,8142,-170,0,0,0,0,0
1647,1765224316901,70,8140,-181,0,0,0,0,0
1648,1765224317134,64,8141,-178,0,0,0,0,0
1649,1765224317251,67,8139,-162,0,0,0,0,0
1650,1765224317335,57,8143,-160,0,0,0,0,0
1651,1765224317451,62,8135,-178,0,0,0,0,0
1652,1765224317618,76,8141,-174,0,0,0,0,0
1653,1765224318068,65,8141,-153,0,0,0,0,0
1654,1765224318218,58,8143,-164,0,0,0,0,0
1655,1765224318351,50,8129,-170,0,0,0,0,0
1656,1765224318768,86,8148,-112,0,0,0,0,0
1657,1765224318900,42,8175,-83,0,0,0,0,0
1658,1765224319051,48,8142,-162,0,0,0,0,0
1659,1765224319235,116,8138,-171,0,0,0,0,0
1660,1765224319517,-87,8229,-249,0,0,0,0,0
1661,1765224319751,112,8154,-192,0,0,0,0,0
1662,1765224319817,76,8136,-227,0,0,0,0,0
1663,1765224320051,14,8147,-168,0,0,0,0,0
1664,1765224320167,12,8091,-179,0,0,0,0,0
1665,1765224320384,85,8134,-141,0,0,0,0,0
1666,1765224320601,127,8219,-131,0,0,0,0,0
1667,1765224320801,-41,8366,-254,0,0,0,0,0
1668,1765224320949,-10,8195,-159,0,0,0,0,0
1669,1765224321085,135,8036,-70,0,0,0,0,0
1670,1765224321317,78,8141,-128,0,0,0,0,0
1671,1765224321534,66,8142,-198,0,0,0,0,0
1672,1765224321653,61,8118,-152,0,0,0,0,0
1673,1765224321834,66,8156,-156,0,0,0,0,0
1674,1765224322000,104,8163,-142,0,0,0,0,0
1675,1765224322318,58,8080,-141,0,0,0,0,0
1676,1765224322385,127,7844,-180,0,0,0,0,0
1677,1765224322501,86,8151,-139,0,0,0,0,0
1678,1765224322684,-18,8119,-160,0,0,0,0,0
1679,1765224322783,88,8155,-117,0,0,0,0,0
1680,1765224322967,72,8148,-178,0,0,0,0,0
1681,1765224323201,52,8144,-144,0,0,0,0,0
1682,1765224323368,60,8139,-158,0,0,0,0,0
1683,1765224323534,66,8154,-171,0,0,0,0,0
1684,1765224323667,66,8146,-192,0,0,0,0,0
1685,1765224323768,64,8150,-173,0,0,0,0,0
1686,1765224323967,60,8126,-166,0,0,0,0,0
1687,1765224324234,86,8174,-180,0,0,0,0,0
1688,1765224324419,72,8141,-161,0,0,0,0,0
1689,1765224324484,62,8136,-165,0,0,0,0,0
1690,1765224324717,66,8151,-164,0,0,0,0,0
1691,1765224324817,67,8142,-171,0,0,0,0,0
1692,1765224325018,70,8143,-157,0,0,0,0,0
1693,1765224325184,54,8147,-128,0,0,0,0,0
1694,1765224325417,59,8143,-152,0,0,0,0,0
1695,1765224325606,37,8135,-163,0,0,0,0,0
1696,1765224325633,100,8144,-167,0,0,0,0,0
1697,1765224325901,24,8144,-196,0,0,0,0,0
1698,1765224326134,62,8137,-173,0,0,0,0,0
1699,1765224326300,44,8118,-175,0,0,0,0,0
1700,1765224326451,49,8150,-173,0,0,0,0,0
1701,1765224326585,87,8171,-189,0,0,0,0,0
1702,1765224326999,57,8141,-173,0,0,0,0,0
1703,1765224327117,64,8148,-147,0,0,0,0,0
1704,1765224327284,76,8152,-163,0,0,0,0,0
1705,1765224327733,77,8140,-146,0,0,0,0,0
1706,1765224327884,78,8127,-160,0,0,0,0,0
1707,1765224328033,50,8170,-167,0,0,0,0,0
1708,1765224328065,28,8118,-176,0,0,0,0,0
1709,1765224328167,60,8176,-166,0,0,0,0,0
1710,1765224328418,83,8136,-175,0,0,0,0,0
1711,1765224328518,74,8125,-175,0,0,0,0,0
1712,1765224328751,62,8134,-174,0,0,0,0,0
1713,1765224328867,49,8152,-179,0,0,0,0,0
1714,1765224329134,72,8135,-166,0,0,0,0,0
1715,1765224329551,71,8142,-180,0,0,0,0,0
1716,1765224329634,64,8144,-169,0,0,0,0,0
1717,1765224329867,62,8144,-180,0,0,0,0,0
1718,1765224329999,29,8134,-168,0,0,0,0,0
1719,1765224330285,91,8128,-174,0,0,0,0,0
1720,1765224330334,53,8093,-185,0,0,0,0,0
1721,1765224330568,57,8188,-172,0,0,0,0,0
1722,1765224330701,50,8132,-176,0,0,0,0,0
1723,1765224330984,66,8148,-204,0,0,0,0,0
1724,1765224331069,77,8145,-190,0,0,0,0,0
1725,1765224331284,64,8149,-176,0,0,0,0,0
1726,1765224331434,78,8137,-142,0,0,0,0,0
1727,1765224331650,81,8130,-142,0,0,0,0,0
1728,1765224331784,60,8135,-148,0,0,0,0,0
1729,1765224331951,68,8146,-181,0,0,0,0,0
1730,1765224332151,56,8142,-177,0,0,0,0,0
1731,1765224332317,62,8142,-156,0,0,0,0,0
1732,1765224332534,83,8137,-186,0,0,0,0,0
1733,1765224332784,72,8163,-179,0,0,0,0,0
1734,1765224332900,55,8130,-183,0,0,0,0,0
1735,1765224333084,71,8140,-179,0,0,0,0,0
1736,1765224333285,72,8143,-179,0,0,0,0,0
1737,1765224333485,61,8140,-168,0,0,0,0,0
1738,1765224333617,63,8126,-157,0,0,0,0,0
1739,1765224333701,56,8152,-174,0,0,0,0,0
1740,1765224333767,72,8160,-166,0,0,0,0,0
1741,1765224334000,68,8132,-176,0,0,0,0,0
1742,1765224334267,56,8142,-161,0,0,0,0,0
1743,1765224334417,53,8137,-153,0,0,0,0,0
1744,1765224334501,56,8144,-160,0,0,0,0,0
1745,1765224334717,74,8140,-166,0,0,0,0,0
1746,1765224334851,59,8148,-188,0,0,0,0,0
1747,1765224335084,53,8155,-135,0,0,0,0,0
1748,1765224335184,60,8152,-166,0,0,0,0,0
1749,1765224335434,62,8135,-203,0,0,0,0,0
1750,1765224335551,64,8138,-209,0,0,0,0,0
1751,1765224335784,51,8142,-148,0,0,0,0,0
1752,1765224336001,69,8142,-174,0,0,0,0,0
1753,1765224336184,54,8136,-196,0,0,0,0,0
1754,1765224336217,78,8148,-168,0,0,0,0,0
1755,1765224336317,64,8158,-162,0,0,0,0,0
1756,1765224336565,45,8122,-178,0,0,0,0,0
1757,1765224336718,73,8147,-192,0,0,0,0,0
1758,1765224336901,32,8161,-162,0,0,0,0,0
1759,1765224337017,85,8142,-190,0,0,0,0,0
1760,1765224337267,52,8116,-174,0,0,0,0,0
1761,1765224337334,42,8160,-158,0,0,0,0,0
1762,1765224337684,54,8138,-183,0,0,0,0,0
1763,1765224337784,67,8146,-168,0,0,0,0,0
1764,1765224338000,72,8136,-158,0,0,0,0,0
1765,1765224338151,55,8152,-171,0,0,0,0,0
1766,1765224338384,59,8144,-192,0,0,0,0,0
1767,1765224338501,56,8146,-189,0,0,0,0,0
1768,1765224338734,54,8126,-164,0,0,0,0,0
1769,1765224338866,70,8162,-171,0,0,0,0,0
1770,1765224339084,68,8126,-172,0,0,0,0,0
1771,1765224339334,60,8140,-176,0,0,0,0,0
1772,1765224339567,68,8140,-153,0,0,0,0,0
1773,1765224339651,18,8118,-123,0,0,0,0,0
1774,1765224339867,70,8118,-169,0,0,0,0,0
1775,1765224340033,70,8182,-206,0,0,0,0,0
1776,1765224340100,91,8171,-185,0,0,0,0,0
1777,1765224340167,57,8111,-155,0,0,0,0,0
1778,1765224340217,37,8099,-138,0,0,0,0,0
1779,1765224340367,61,8174,-185,0,0,0,0,0
1780,1765224340435,75,8169,-181,0,0,0,0,0
1781,1765224340483,80,8122,-187,0,0,0,0,0
1782,1765224340552,48,8126,-170,0,0,0,0,0
1783,1765224340651,52,8159,-160,0,0,0,0,0
1784,1765224340717,82,8150,-155,0,0,0,0,0
1785,1765224340784,86,8129,-156,0,0,0,0,0
1786,1765224340851,74,8143,-158,0,0,0,0,0
1787,1765224340984,46,8156,-176,0,0,0,0,0
1788,1765224341034,48,8118,-200,0,0,0,0,0
1789,1765224341101,80,8134,-179,0,0,0,0,0
1790,1765224341167,67,8150,-152,0,0,0,0,0
1791,1765224341266,68,8151,-148,0,0,0,0,0
1792,1765224341334,64,8137,-167,0,0,0,0,0
1793,1765224341401,64,8138,-175,0,0,0,0,0
1794,1765224341467,89,8139,-186,0,0,0,0,0
1795,1765224341535,56,8114,-176,0,0,0,0,0
1796,1765224341584,34,8150,-179,0,0,0,0,0
1797,1765224341684,72,8161,-187,0,0,0,0,0
1798,1765224341784,61,8156,-148,0,0,0,0,0
1799,1765224341851,46,8116,-156,0,0,0,0,0
1800,1765224341918,71,8161,-176,0,0,0,0,0
1801,1765224341984,74,8156,-172,0,0,0,0,0
1802,1765224342067,40,8124,-167,0,0,0,0,0
1803,1765224342134,68,8140,-157,0,0,0,0,0
1804,1765224342201,79,8153,-176,0,0,0,0,0
1805,1765224342267,61,8148,-183,0,0,0,0,0
1806,1765224342401,47,8140,-183,0,0,0,0,0
1807,1765224342467,61,8128,-168,0,0,0,0,0
1808,1765224342518,68,8156,-161,0,0,0,0,0
1809,1765224342584,68,8148,-161,0,0,0,0,0
1810,1765224342684,71,8148,-174,0,0,0,0,0
1811,1765224342751,57,8127,-182,0,0,0,0,0
1812,1765224342816,68,8136,-177,0,0,0,0,0
1813,1765224342884,72,8146,-182,0,0,0,0,0
1814,1765224342999,60,8132,-174,0,0,0,0,0
1815,1765224343068,57,8149,-165,0,0,0,0,0
1816,1765224343133,61,8141,-166,0,0,0,0,0
1817,1765224343202,68,8142,-170,0,0,0,0,0
1818,1765224343301,64,8142,-178,0,0,0,0,0
1819,1765224343368,65,8145,-188,0,0,0,0,0
1820,1765224343434,60,8138,-182,0,0,0,0,0
1821,1765224343501,56,8140,-174,0,0,0,0,0
1822,1765224343634,67,8140,-169,0,0,0,0,0
1823,1765224343700,65,8144,-162,0,0,0,0,0
1824,1765224343752,68,8138,-168,0,0,0,0,0
1825,1765224343817,56,8146,-164,0,0,0,0,0
1826,1765224343917,72,8135,-185,0,0,0,0,0
1827,1765224343983,63,8143,-180,0,0,0,0,0
1828,1765224344034,55,8149,-182,0,0,0,0,0
1829,1765224344101,52,8132,-161,0,0,0,0,0
1830,1765224344234,75,8137,-164,0,0,0,0,0
1831,1765224344301,78,8148,-168,0,0,0,0,0
1832,1765224344367,60,8145,-179,0,0,0,0,0
1833,1765224344417,78,8135,-176,0,0,0,0,0
1834,1765224344534,54,8137,-178,0,0,0,0,0
1835,1765224344584,72,8156,-170,0,0,0,0,0
1836,1765224344667,49,8131,-162,0,0,0,0,0
1837,1765224344733,48,8140,-156,0,0,0,0,0
1838,1765224344799,63,8132,-181,0,0,0,0,0
1839,1765224344850,70,8142,-175,0,0,0,0,0
1840,1765224345000,72,8138,-178,0,0,0,0,0
1841,1765224345051,62,8148,-185,0,0,0,0,0
1842,1765224345117,48,8146,-177,0,0,0,0,0
1843,1765224345185,46,8115,-151,0,0,0,0,0
1844,1765224345284,71,8134,-136,0,0,0,0,0
1845,1765224345349,82,8176,-172,0,0,0,0,0
1846,1765224345401,65,8138,-183,0,0,0,0,0
1847,1765224345468,55,8113,-194,0,0,0,0,0
1848,1765224345601,56,8151,-201,0,0,0,0,0
1849,1765224345667,64,8141,-191,0,0,0,0,0
1850,1765224345734,68,8128,-171,0,0,0,0,0
1851,1765224345784,52,8142,-144,0,0,0,0,0
1852,1765224345884,62,8143,-164,0,0,0,0,0
1853,1765224345951,64,8156,-163,0,0,0,0,0
1854,1765224346016,69,8130,-178,0,0,0,0,0
1855,1765224346068,66,8130,-177,0,0,0,0,0
1856,1765224346217,77,8155,-176,0,0,0,0,0
1857,1765224346267,48,8144,-178,0,0,0,0,0
1858,1765224346333,54,8143,-166,0,0,0,0,0
1859,1765224346400,73,8160,-143,0,0,0,0,0
1860,1765224346549,101,8146,-189,0,0,0,0,0
1861,1765224346617,48,8127,-174,0,0,0,0,0
1862,1765224346684,38,8135,-137,0,0,0,0,0
1863,1765224346800,76,8142,-147,0,0,0,0,0
1864,1765224346868,84,8146,-173,0,0,0,0,0
1865,1765224346934,66,8135,-176,0,0,0,0,0
1866,1765224347000,40,8138,-196,0,0,0,0,0
1867,1765224347101,53,8131,-196,0,0,0,0,0
1868,1765224347167,80,8140,-168,0,0,0,0,0
1869,1765224347218,74,8166,-137,0,0,0,0,0
1870,1765224347284,55,8158,-159,0,0,0,0,0
1871,1765224347478,61,8103,-184,0,0,0,0,0
1872,1765224347484,82,8163,-164,0,0,0,0,0
1873,1765224347551,62,7936,-189,0,0,0,0,0
1874,1765224347617,53,8112,-162,0,0,0,0,0
1875,1765224347718,57,8109,-180,0,0,0,0,0
1876,1765224347785,83,8179,-162,0,0,0,0,0
1877,1765224347851,80,8156,-158,0,0,0,0,0
1878,1765224347900,75,8117,-174,0,0,0,0,0
1879,1765224348034,34,8126,-180,0,0,0,0,0
1880,1765224348101,62,8166,-182,0,0,0,0,0
1881,1765224348167,85,8151,-172,0,0,0,0,0
1882,1765224348231,76,8122,-168,0,0,0,0,0
1883,1765224348317,49,8144,-182,0,0,0,0,0
1884,1765224348384,59,8147,-172,0,0,0,0,0
1885,1765224348451,74,8140,-162,0,0,0,0,0
1886,1765224348517,76,8143,-162,0,0,0,0,0
1887,1765224348650,60,8135,-180,0,0,0,0,0
1888,1765224348701,76,8158,-190,0,0,0,0,0
1889,1765224348768,65,8123,-180,0,0,0,0,0
1890,1765224348834,56,8136,-165,0,0,0,0,0
1891,1765224348934,68,8154,-163,0,0,0,0,0
1892,1765224348983,86,8164,-157,0,0,0,0,0
1893,1765224349051,74,8130,-164,0,0,0,0,0
1894,1765224349117,56,8132,-162,0,0,0,0,0
1895,1765224349251,50,8146,-189,0,0,0,0,0
1896,1765224349301,66,8159,-189,0,0,0,0,0
1897,1765224349367,55,8126,-171,0,0,0,0,0
1898,1765224349434,67,8142,-160,0,0,0,0,0
1899,1765224349567,67,8113,-170,0,0,0,0,0
1900,1765224349667,58,8149,-183,0,0,0,0,0
1901,1765224349718,64,8152,-182,0,0,0,0,0
1902,1765224349784,72,8135,-186,0,0,0,0,0
1903,1765224349850,72,8122,-171,0,0,0,0,0
1904,1765224349983,58,8134,-165,0,0,0,0,0
1905,1765224350050,68,8139,-152,0,0,0,0,0
1906,1765224350101,58,8140,-160,0,0,0,0,0
1907,1765224350167,52,8133,-176,0,0,0,0,0
1908,1765224350267,63,8144,-183,0,0,0,0,0
1909,1765224350334,64,8148,-180,0,0,0,0,0
1910,1765224350385,67,8132,-186,0,0,0,0,0
1911,1765224350451,54,8145,-178,0,0,0,0,0
1912,1765224350567,65,8145,-148,0,0,0,0,0
1913,1765224350650,60,8132,-166,0,0,0,0,0
1914,1765224350701,70,8151,-180,0,0,0,0,0
1915,1765224350768,54,8134,-186,0,0,0,0,0
1916,1765224350834,62,8143,-183,0,0,0,0,0
1917,1765224350934,63,8146,-163,0,0,0,0,0
1918,1765224350985,58,8141,-168,0,0,0,0,0
1919,1765224351051,68,8130,-160,0,0,0,0,0
1920,1765224351134,63,8139,-170,0,0,0,0,0
1921,1765224351251,61,8139,-182,0,0,0,0,0
1922,1765224351317,54,8142,-183,0,0,0,0,0
1923,1765224351368,67,8130,-168,0,0,0,0,0
1924,1765224351434,69,8146,-180,0,0,0,0,0
1925,1765224351534,58,8146,-154,0,0,0,0,0
1926,1765224351600,52,8116,-174,0,0,0,0,0
1927,1765224351666,81,8140,-169,0,0,0,0,0
1928,1765224351734,62,8150,-189,0,0,0,0,0
1929,1765224351850,53,8120,-154,0,0,0,0,0
1930,1765224351917,63,8147,-167,0,0,0,0,0
1931,1765224351985,70,8157,-175,0,0,0,0,0
1932,1765224352034,60,8133,-191,0,0,0,0,0
1933,1765224352134,57,8138,-172,0,0,0,0,0
1934,1765224352200,61,8152,-167,0,0,0,0,0
1935,1765224352267,61,8138,-166,0,0,0,0,0
1936,1765224352318,64,8133,-180,0,0,0,0,0
1937,1765224352467,62,8146,-177,0,0,0,0,0
1938,1765224352517,53,8149,-178,0,0,0,0,0
1939,1765224352584,73,8130,-160,0,0,0,0,0
1940,1765224352651,54,8142,-160,0,0,0,0,0
1941,1765224352750,76,8148,-161,0,0,0,0,0
1942,1765224352883,72,8126,-165,0,0,0,0,0
1943,1765224352934,56,8130,-157,0,0,0,0,0
1944,1765224353000,61,8157,-142,0,0,0,0,0
1945,1765224353051,66,8139,-162,0,0,0,0,0
1946,1765224353202,74,8132,-178,0,0,0,0,0
1947,1765224353267,66,8134,-176,0,0,0,0,0
1948,1765224353333,66,8144,-168,0,0,0,0,0
1949,1765224353384,58,8150,-178,0,0,0,0,0
1950,1765224353500,64,8126,-187,0,0,0,0,0
1951,1765224353551,56,8136,-192,0,0,0,0,0
1952,1765224353617,56,8144,-186,0,0,0,0,0
1953,1765224353685,73,8145,-198,0,0,0,0,0
1954,1765224353817,62,8130,-184,0,0,0,0,0
1955,1765224353883,61,8151,-182,0,0,0,0,0
1956,1765224353935,49,8146,-200,0,0,0,0,0
1957,1765224354000,72,8126,-193,0,0,0,0,0
1958,1765224354117,72,8146,-197,0,0,0,0,0
1959,1765224354165,57,8138,-180,0,0,0,0,0
1960,1765224354234,60,8143,-166,0,0,0,0,0
1961,1765224354284,68,8144,-132,0,0,0,0,0
1962,1765224354434,63,8142,-138,0,0,0,0,0
1963,1765224354501,78,8112,-140,0,0,0,0,0
1964,1765224354567,80,8172,-157,0,0,0,0,0
1965,1765224354617,66,8123,-188,0,0,0,0,0
1966,1765224354717,68,8122,-174,0,0,0,0,0
1967,1765224354784,60,8200,-196,0,0,0,0,0
1968,1765224354833,61,8155,-214,0,0,0,0,0
1969,1765224354900,66,8102,-188,0,0,0,0,0
1970,1765224355050,38,8140,-165,0,0,0,0,0
1971,1765224355101,67,8150,-135,0,0,0,0,0
1972,1765224355167,77,8159,-128,0,0,0,0,0
1973,1765224355234,94,8161,-151,0,0,0,0,0
1974,1765224355334,42,8113,-170,0,0,0,0,0
1975,1765224355383,58,8128,-174,0,0,0,0,0
1976,1765224355450,71,8135,-191,0,0,0,0,0
1977,1765224355517,80,8152,-189,0,0,0,0,0
1978,1765224355650,73,8073,-193,0,0,0,0,0
1979,1765224355716,-10,8234,-190,0,0,0,0,0
1980,1765224355767,61,8178,-124,0,0,0,0,0
1981,1765224355833,114,8104,-140,0,0,0,0,0
1982,1765224355899,61,8130,-202,0,0,0,0,0
1983,1765224355965,50,8133,-182,0,0,0,0,0
1984,1765224356065,75,8156,-169,0,0,0,0,0
1985,1765224356134,76,8152,-154,0,0,0,0,0
1986,1765224356201,65,8131,-154,0,0,0,0,0
1987,1765224356266,48,8126,-158,0,0,0,0,0
1988,1765224356383,70,8152,-176,0,0,0,0,0
1989,1765224356449,77,8149,-187,0,0,0,0,0
1990,1765224356515,58,8130,-174,0,0,0,0,0
1991,1765224356582,58,8138,-186,0,0,0,0,0
1992,1765224356684,64,8143,-176,0,0,0,0,0
1993,1765224356748,73,8141,-174,0,0,0,0,0
1994,1765224356816,68,8142,-163,0,0,0,0,0
1995,1765224356868,57,8133,-174,0,0,0,0,0
1996,1765224357018,57,8139,-183,0,0,0,0,0
1997,1765224357068,66,8155,-200,0,0,0,0,0
1998,1765224357134,68,8154,-196,0,0,0,0,0
1999,1765224357199,51,8121,-202,0,0,0,0,0
2000,1765224357302,48,8141,-176,0,0,0,0,0
2001,1765224357366,75,8158,-171,0,0,0,0,0
2002,1765224357434,61,8122,-151,0,0,0,0,0
2003,1765224357485,53,8119,-136,0,0,0,0,0
2004,1765224357618,61,8141,-136,0,0,0,0,0
2005,1765224357685,94,8163,-166,0,0,0,0,0
2006,1765224357750,53,8114,-183,0,0,0,0,0
2007,1765224357817,41,8110,-200,0,0,0,0,0
2008,1765224357917,73,8170,-222,0,0,0,0,0
2009,1765224357983,82,8138,-186,0,0,0,0,0
2010,1765224358050,40,8037,-159,0,0,0,0,0
2011,1765224358099,39,8236,-154,0,0,0,0,0
2012,1765224358250,83,8176,-134,0,0,0,0,0
2013,1765224358399,93,8112,-174,0,0,0,0,0
2014,1765224358399,53,8106,-174,0,0,0,0,0
2015,1765224358432,30,8174,-181,0,0,0,0,0
2016,1765224358535,84,8137,-177,0,0,0,0,0
2017,1765224358600,80,8138,-168,0,0,0,0,0
2018,1765224358669,40,8146,-174,0,0,0,0,0
2019,1765224358733,56,8148,-164,0,0,0,0,0
2020,1765224358868,68,8142,-186,0,0,0,0,0
2021,1765224358918,59,8140,-187,0,0,0,0,0
2022,1765224358984,62,8155,-170,0,0,0,0,0
2023,1765224359066,63,8139,-181,0,0,0,0,0
2024,1765224359134,70,8140,-168,0,0,0,0,0
2025,1765224359201,56,8138,-170,0,0,0,0,0
2026,1765224359252,67,8142,-180,0,0,0,0,0
2027,1765224359335,78,8138,-190,0,0,0,0,0
2028,1765224359401,49,8118,-190,0,0,0,0,0
2029,1765224359453,55,8120,-172,0,0,0,0,0
2030,1765224359551,76,8190,-174,0,0,0,0,0
2031,1765224359668,27,8116,-155,0,0,0,0,0
2032,1765224359734,60,8093,-180,0,0,0,0,0
2033,1765224359785,86,8140,-191,0,0,0,0,0
2034,1765224359851,131,8208,-154,0,0,0,0,0
2035,1765224359951,55,8163,-191,0,0,0,0,0
2036,1765224359999,7,8081,-163,0,0,0,0,0
2037,1765224360067,58,8132,-160,0,0,0,0,0
2038,1765224360150,122,8214,-158,0,0,0,0,0
2039,1765224360267,64,8192,-192,0,0,0,0,0
2040,1765224360335,38,8063,-164,0,0,0,0,0
2041,1765224360401,42,8097,-184,0,0,0,0,0
2042,1765224360451,74,8195,-170,0,0,0,0,0
2043,1765224360551,76,8183,-200,0,0,0,0,0
2044,1765224360618,58,8098,-184,0,0,0,0,0
2045,1765224360667,48,8120,-162,0,0,0,0,0
2046,1765224360734,51,8172,-156,0,0,0,0,0
2047,1765224360884,78,8138,-140,0,0,0,0,0
2048,1765224360934,66,8105,-158,0,0,0,0,0
2049,1765224360999,68,8160,-189,0,0,0,0,0
2050,1765224361068,70,8155,-200,0,0,0,0,0
2051,1765224361151,60,8134,-189,0,0,0,0,0
2052,1765224361201,45,8098,-151,0,0,0,0,0
2053,1765224361268,57,8155,-174,0,0,0,0,0
2054,1765224361318,96,8182,-199,0,0,0,0,0
2055,1765224361468,47,8134,-194,0,0,0,0,0
2056,1765224361534,39,8112,-189,0,0,0,0,0
2057,1765224361584,53,8136,-185,0,0,0,0,0
2058,1765224361651,80,8177,-187,0,0,0,0,0
2059,1765224361751,72,8138,-172,0,0,0,0,0
2060,1765224361817,66,8142,-172,0,0,0,0,0
2061,1765224361867,54,8136,-172,0,0,0,0,0
2062,1765224361934,36,8129,-164,0,0,0,0,0
2063,1765224362067,77,8156,-160,0,0,0,0,0
2064,1765224362134,74,8131,-153,0,0,0,0,0
2065,1765224362201,48,8151,-202,0,0,0,0,0
2066,1765224362268,98,8200,-161,0,0,0,0,0
2067,1765224362334,122,8158,-142,0,0,0,0,0
2068,1765224362401,48,8120,-124,0,0,0,0,0
2069,1765224362501,16,8128,-165,0,0,0,0,0
2070,1765224362552,57,8167,-203,0,0,0,0,0
2071,1765224362618,118,8144,-240,0,0,0,0,0
2072,1765224362684,110,8102,-224,0,0,0,0,0
2073,1765224362817,30,8187,-196,0,0,0,0,0
2074,1765224362884,62,8163,-182,0,0,0,0,0
2075,1765224362934,80,8085,-144,0,0,0,0,0
2076,1765224363001,36,8107,-134,0,0,0,0,0
2077,1765224363117,17,8141,-154,0,0,0,0,0
2078,1765224363184,206,8241,-142,0,0,0,0,0
2079,1765224363234,85,8198,-190,0,0,0,0,0
2080,1765224363300,-31,8042,-258,0,0,0,0,0
2081,1765224363434,74,8084,-258,0,0,0,0,0
2082,1765224363498,102,8298,-204,0,0,0,0,0
2083,1765224363568,80,8186,-124,0,0,0,0,0
2084,1765224363635,33,8027,-101,0,0,0,0,0
2085,1765224363734,15,8123,-103,0,0,0,0,0
2086,1765224363801,98,8159,-170,0,0,0,0,0
2087,1765224363851,84,8179,-117,0,0,0,0,0
2088,1765224363917,60,8152,-156,0,0,0,0,0
2089,1765224364051,58,8068,-182,0,0,0,0,0
2090,1765224364116,70,8155,-195,0,0,0,0,0
2091,1765224364167,39,8179,-180,0,0,0,0,0
2092,1765224364236,64,8113,-171,0,0,0,0,0
2093,1765224364350,76,8112,-180,0,0,0,0,0
2094,1765224364418,53,8176,-154,0,0,0,0,0
2095,1765224364467,47,8148,-169,0,0,0,0,0
2096,1765224364534,112,8138,-132,0,0,0,0,0
2097,1765224364667,50,8113,-61,0,0,0,0,0
2098,1765224364735,-6,8144,-174,0,0,0,0,0
2099,1765224364800,73,8149,-277,0,0,0,0,0
2100,1765224364851,112,8116,-282,0,0,0,0,0
2101,1765224364951,44,8116,-281,0,0,0,0,0
2102,1765224365018,56,8162,-218,0,0,0,0,0
2103,1765224365085,68,8194,-176,0,0,0,0,0
2104,1765224365133,61,8144,-151,0,0,0,0,0
2105,1765224365284,57,8129,-175,0,0,0,0,0
2106,1765224365433,64,8143,-197,0,0,0,0,0
2107,1765224365484,64,8138,-181,0,0,0,0,0
2108,1765224365550,54,8137,-177,0,0,0,0,0
2109,1765224365617,66,8140,-182,0,0,0,0,0
2110,1765224365718,68,8139,-168,0,0,0,0,0
2111,1765224365784,53,8136,-166,0,0,0,0,0
2112,1765224365850,71,8130,-171,0,0,0,0,0
2113,1765224365901,74,8150,-177,0,0,0,0,0
2114,1765224366034,61,8154,-167,0,0,0,0,0
2115,1765224366101,59,8138,-160,0,0,0,0,0
2116,1765224366167,58,8133,-162,0,0,0,0,0
2117,1765224366218,67,8155,-168,0,0,0,0,0
2118,1765224366335,62,8128,-188,0,0,0,0,0
2119,1765224366401,58,8139,-178,0,0,0,0,0
2120,1765224366467,56,8141,-178,0,0,0,0,0
2121,1765224366517,52,8132,-170,0,0,0,0,0
2122,1765224366633,58,8134,-159,0,0,0,0,0
2123,1765224366717,60,8128,-171,0,0,0,0,0
2124,1765224366785,45,8128,-174,0,0,0,0,0
2125,1765224366850,62,8150,-183,0,0,0,0,0
2126,1765224366951,73,8149,-182,0,0,0,0,0
2127,1765224367000,67,8134,-170,0,0,0,0,0
2128,1765224367066,62,8143,-163,0,0,0,0,0
2129,1765224367134,59,8150,-172,0,0,0,0,0
2130,1765224367201,60,8141,-170,0,0,0,0,0
2131,1765224367335,54,8131,-174,0,0,0,0,0
2132,1765224367400,72,8144,-175,0,0,0,0,0
2133,1765224367452,65,8146,-164,0,0,0,0,0
2134,1765224367517,64,8135,-164,0,0,0,0,0
2135,1765224367617,58,8133,-171,0,0,0,0,0
2136,1765224367683,58,8139,-179,0,0,0,0,0
2137,1765224367734,64,8154,-191,0,0,0,0,0
2138,1765224367800,65,8130,-180,0,0,0,0,0
2139,1765224367933,60,8143,-176,0,0,0,0,0
2140,1765224368001,50,8149,-162,0,0,0,0,0
2141,1765224368067,49,8130,-162,0,0,0,0,0
2142,1765224368117,64,8137,-168,0,0,0,0,0
2143,1765224368217,58,8138,-195,0,0,0,0,0
2144,1765224368284,58,8152,-177,0,0,0,0,0
2145,1765224368351,63,8146,-183,0,0,0,0,0
2146,1765224368402,47,8122,-145,0,0,0,0,0
2147,1765224368468,59,8157,-158,0,0,0,0,0
2148,1765224368534,57,8152,-157,0,0,0,0,0
2149,1765224368667,64,8144,-188,0,0,0,0,0
2150,1765224368718,60,8138,-198,0,0,0,0,0
2151,1765224368785,57,8130,-148,0,0,0,0,0
2152,1765224368850,73,8158,-168,0,0,0,0,0
2153,1765224368951,64,8134,-175,0,0,0,0,0
2154,1765224369000,64,8135,-180,0,0,0,0,0
2155,1765224369067,65,8135,-184,0,0,0,0,0
2156,1765224369134,59,8154,-178,0,0,0,0,0
2157,1765224369341,58,8132,-171,0,0,0,0,0
2158,1765224369350,56,8126,-179,0,0,0,0,0
2159,1765224369383,61,8122,-165,0,0,0,0,0
2160,1765224369452,71,8199,-160,0,0,0,0,0
2161,1765224369550,68,8169,-171,0,0,0,0,0
2162,1765224369616,29,8080,-130,0,0,0,0,0
2163,1765224369666,42,8081,-169,0,0,0,0,0
2164,1765224369735,82,8217,-210,0,0,0,0,0
2165,1765224369869,104,8118,-212,0,0,0,0,0
2166,1765224369934,44,8101,-216,0,0,0,0,0
2167,1765224369999,41,8168,-168,0,0,0,0,0
2168,1765224370068,65,8152,-157,0,0,0,0,0
2169,1765224370168,82,8120,-151,0,0,0,0,0
2170,1765224370217,70,8135,-164,0,0,0,0,0
2171,1765224370284,49,8145,-184,0,0,0,0,0
2172,1765224370335,74,8151,-183,0,0,0,0,0
2173,1765224370484,58,8136,-173,0,0,0,0,0
2174,1765224370551,57,8140,-171,0,0,0,0,0
2175,1765224370601,58,8142,-172,0,0,0,0,0
2176,1765224370668,47,8126,-194,0,0,0,0,0
2177,1765224370768,64,8156,-186,0,0,0,0,0
2178,1765224370835,60,8134,-179,0,0,0,0,0
2179,1765224370900,82,8132,-157,0,0,0,0,0
2180,1765224370968,73,8164,-152,0,0,0,0,0
2181,1765224371084,68,8132,-166,0,0,0,0,0
2182,1765224371150,68,8139,-165,0,0,0,0,0
2183,1765224371217,41,8142,-219,0,0,0,0,0
2184,1765224371284,68,8161,-167,0,0,0,0,0
2185,1765224371401,80,8138,-151,0,0,0,0,0
2186,1765224371450,68,8174,-158,0,0,0,0,0
2187,1765224371534,57,8146,-168,0,0,0,0,0
2188,1765224371600,75,8136,-156,0,0,0,0,0
2189,1765224371667,64,8122,-150,0,0,0,0,0
2190,1765224371717,64,8143,-162,0,0,0,0,0
2191,1765224371851,62,8119,-182,0,0,0,0,0
2192,1765224371917,70,8139,-175,0,0,0,0,0
2193,1765224371983,57,8154,-206,0,0,0,0,0
2194,1765224372033,80,8154,-204,0,0,0,0,0
2195,1765224372151,48,8138,-198,0,0,0,0,0
2196,1765224372217,34,8124,-187,0,0,0,0,0
2197,1765224372267,59,8139,-174,0,0,0,0,0
2198,1765224372334,76,8143,-174,0,0,0,0,0
2199,1765224372467,60,8128,-175,0,0,0,0,0
2200,1765224372533,53,8140,-150,0,0,0,0,0
2201,1765224372601,76,8142,-145,0,0,0,0,0
2202,1765224372650,63,8138,-133,0,0,0,0,0
2203,1765224372751,54,8138,-133,0,0,0,0,0
2204,1765224373618,67,8137,-180,0,0,0,0,0
2205,1765224373818,61,8139,-181,0,0,0,0,0
2206,1765224373918,60,8128,-178,0,0,0,0,0
2207,1765224374118,80,8118,-185,0,0,0,0,0
2208,1765224374200,82,8155,-197,0,0,0,0,0
2209,1765224374434,57,8130,-171,0,0,0,0,0
2210,1765224374551,54,8140,-161,0,0,0,0,0
2211,1765224374717,70,8132,-173,0,0,0,0,0
2212,1765224374834,64,8122,-190,0,0,0,0,0
2213,1765224374901,86,8168,-139,0,0,0,0,0
2214,1765224374968,89,8195,-228,0,0,0,0,0
2215,1765224375167,71,8137,-211,0,0,0,0,0
2216,1765224375302,55,8100,-204,0,0,0,0,0
2217,1765224375701,34,8182,-127,0,0,0,0,0
2218,1765224375784,67,8029,-192,0,0,0,0,0
2219,1765224376017,90,8122,-188,0,0,0,0,0
2220,1765224376150,36,8136,-181,0,0,0,0,0
2221,1765224376383,68,8167,-176,0,0,0,0,0
2222,1765224376517,81,8161,-149,0,0,0,0,0
2223,1765224376700,65,8141,-191,0,0,0,0,0
2224,1765224376900,66,8130,-177,0,0,0,0,0
2225,1765224376983,65,8134,-188,0,0,0,0,0
2226,1765224377234,58,8147,-156,0,0,0,0,0
2227,1765224377318,48,8128,-182,0,0,0,0,0
2228,1765224377451,65,8131,-178,0,0,0,0,0
2229,1765224377634,67,8143,-166,0,0,0,0,0
2230,1765224377735,55,8141,-159,0,0,0,0,0
2231,1765224378184,65,8145,-187,0,0,0,0,0
2232,1765224378351,69,8120,-176,0,0,0,0,0
2233,1765224378484,64,8144,-170,0,0,0,0,0
2234,1765224378601,56,8136,-185,0,0,0,0,0
2235,1765224378785,73,8162,-163,0,0,0,0,0
2236,1765224378950,54,8128,-162,0,0,0,0,0
2237,1765224379302,74,8120,-177,0,0,0,0,0
2238,1765224379401,57,8151,-165,0,0,0,0,0
2239,1765224379601,54,8145,-177,0,0,0,0,0
2240,1765224380050,64,8142,-167,0,0,0,0,0
2241,1765224380117,57,8135,-173,0,0,0,0,0
2242,1765224380350,68,8142,-183,0,0,0,0,0
2243,1765224380484,67,8142,-176,0,0,0,0,0
2244,1765224380666,62,8139,-174,0,0,0,0,0
2245,1765224380801,61,8139,-175,0,0,0,0,0
2246,1765224381042,70,8142,-168,0,0,0,0,0
2247,1765224381151,60,8139,-168,0,0,0,0,0
2248,1765224381234,72,8139,-158,0,0,0,0,0
2249,1765224381535,66,8132,-174,0,0,0,0,0
2250,1765224381667,63,8147,-179,0,0,0,0,0
2251,1765224381866,63,8144,-175,0,0,0,0,0
2252,1765224381966,60,8137,-184,0,0,0,0,0
2253,1765224382185,62,8148,-170,0,0,0,0,0
2254,1765224382334,70,8144,-176,0,0,0,0,0
2255,1765224382518,56,8140,-168,0,0,0,0,0
2256,1765224382668,56,8133,-188,0,0,0,0,0
2257,1765224382818,68,8152,-184,0,0,0,0,0
2258,1765224383001,72,8145,-176,0,0,0,0,0
2259,1765224383101,66,8148,-171,0,0,0,0,0
2260,1765224383417,62,8136,-178,0,0,0,0,0
2261,1765224383534,72,8152,-168,0,0,0,0,0
2262,1765224383684,60,8142,-160,0,0,0,0,0
2263,1765224383816,58,8138,-175,0,0,0,0,0
2264,1765224384051,56,8141,-189,0,0,0,0,0
2265,1765224384185,78,8158,-159,0,0,0,0,0
2266,1765224384284,73,8137,-178,0,0,0,0,0
2267,1765224384516,37,8128,-191,0,0,0,0,0
2268,1765224384600,62,8137,-181,0,0,0,0,0
2269,1765224384801,34,8133,-154,0,0,0,0,0
2270,1765224385034,81,8143,-173,0,0,0,0,0
2271,1765224385268,76,8147,-165,0,0,0,0,0
2272,1765224385400,122,8226,-102,0,0,0,0,0
2273,1765224385534,49,8266,-134,0,0,0,0,0
2274,1765224385684,-19,8038,-144,0,0,0,0,0
2275,1765224385934,-76,7980,-263,0,0,0,0,0
2276,1765224386101,22,8117,-117,0,0,0,0,0
2277,1765224386217,56,8095,-166,0,0,0,0,0
2278,1765224386401,72,8129,-283,0,0,0,0,0
2279,1765224386834,55,8161,-140,0,0,0,0,0
2280,1765224386917,88,8144,-171,0,0,0,0,0
2281,1765224387135,57,8151,-171,0,0,0,0,0
2282,1765224387268,74,8120,-153,0,0,0,0,0
2283,1765224387432,67,8163,-178,0,0,0,0,0
2284,1765224387584,52,8146,-175,0,0,0,0,0
2285,1765224387783,50,8146,-162,0,0,0,0,0
2286,1765224387934,68,8136,-175,0,0,0,0,0
2287,1765224387999,77,8149,-198,0,0,0,0,0
2288,1765224388315,57,8156,-147,0,0,0,0,0
2289,1765224388683,65,8136,-190,0,0,0,0,0
2290,1765224388748,58,8134,-174,0,0,0,0,0
2291,1765224388982,76,8134,-122,0,0,0,0,0
2292,1765224389134,78,8145,-185,0,0,0,0,0
2293,1765224389317,56,8146,-166,0,0,0,0,0
2294,1765224389449,61,8134,-162,0,0,0,0,0
2295,1765224389665,74,8134,-170,0,0,0,0,0
2296,1765224389814,57,8142,-164,0,0,0,0,0
2297,1765224389932,62,8142,-180,0,0,0,0,0
2298,1765224390184,68,8140,-181,0,0,0,0,0
2299,1765224390567,16,8138,-172,0,0,0,0,0
2300,1765224390634,-12,8068,-288,0,0,0,0,0
2301,1765224390883,117,8202,-276,0,0,0,0,0
2302,1765224391033,49,8109,-188,0,0,0,0,0
2303,1765224391234,-10,8092,-194,0,0,0,0,0
2304,1765224391334,42,8154,-181,0,0,0,0,0
2305,1765224391733,25,8136,-169,0,0,0,0,0
2306,1765224391998,36,8153,-159,0,0,0,0,0
2307,1765224392066,28,8130,-156,0,0,0,0,0
2308,1765224392250,45,8150,-161,0,0,0,0,0
2309,1765224392451,29,8128,-163,0,0,0,0,0
2310,1765224392633,30,8148,-170,0,0,0,0,0
2311,1765224392767,28,8136,-174,0,0,0,0,0
2312,1765224392900,47,8152,-184,0,0,0,0,0
2313,1765224393134,31,8136,-192,0,0,0,0,0
2314,1765224393200,30,8145,-177,0,0,0,0,0
2315,1765224393634,14,8146,-168,0,0,0,0,0
2316,1765224393867,41,8145,-159,0,0,0,0,0
2317,1765224393917,40,8144,-151,0,0,0,0,0
2318,1765224394149,30,8145,-166,0,0,0,0,0
2319,1765224394350,30,8140,-171,0,0,0,0,0
2320,1765224394534,40,8139,-163,0,0,0,0,0
2321,1765224394634,36,8142,-168,0,0,0,0,0
2322,1765224394733,30,8148,-178,0,0,0,0,0
2323,1765224394867,36,8140,-164,0,0,0,0,0
2324,1765224395100,34,8144,-164,0,0,0,0,0
2325,1765224395334,26,8137,-165,0,0,0,0,0
2326,1765224395483,34,8140,-161,0,0,0,0,0
2327,1765224395683,39,8145,-162,0,0,0,0,0
2328,1765224395783,36,8134,-168,0,0,0,0,0
2329,1765224396184,58,8136,-177,0,0,0,0,0
2330,1765224396351,25,8138,-190,0,0,0,0,0
2331,1765224396483,33,8122,-161,0,0,0,0,0
2332,1765224396566,24,8144,-167,0,0,0,0,0
2333,1765224396634,26,8157,-168,0,0,0,0,0
2334,1765224396933,32,8125,-164,0,0,0,0,0
2335,1765224397134,21,8151,-158,0,0,0,0,0
2336,1765224397316,46,8140,-165,0,0,0,0,0
2337,1765224397450,48,8148,-166,0,0,0,0,0
2338,1765224397649,23,8148,-158,0,0,0,0,0
2339,1765224397834,39,8145,-160,0,0,0,0,0
2340,1765224398034,38,8124,-141,0,0,0,0,0
2341,1765224398150,28,8156,-174,0,0,0,0,0
2342,1765224398415,41,8149,-168,0,0,0,0,0
2343,1765224398600,9,8182,-145,0,0,0,0,0
2344,1765224398784,64,8103,-165,0,0,0,0,0
2345,1765224398950,23,8097,-157,0,0,0,0,0
2346,1765224399167,22,8119,-162,0,0,0,0,0
2347,1765224399266,45,8140,-169,0,0,0,0,0
2348,1765224399500,38,8166,-177,0,0,0,0,0
2349,1765224399650,29,8130,-162,0,0,0,0,0
2350,1765224399833,10,8144,-128,0,0,0,0,0
2351,1765224399932,-7,8112,-170,0,0,0,0,0
2352,1765224400250,80,8137,-165,0,0,0,0,0
2353,1765224400366,0,8145,-184,0,0,0,0,0
2354,1765224400515,50,8149,-161,0,0,0,0,0
2355,1765224400667,46,8126,-191,0,0,0,0,0
2356,1765224400816,26,8152,-172,0,0,0,0,0
2357,1765224400984,32,8133,-160,0,0,0,0,0
2358,1765224401134,30,8145,-162,0,0,0,0,0
2359,1765224401366,30,8132,-167,0,0,0,0,0
2360,1765224401433,41,8138,-162,0,0,0,0,0
2361,1765224401599,22,8135,-161,0,0,0,0,0
2362,1765224401800,40,8167,-196,0,0,0,0,0
2363,1765224402117,43,8118,-142,0,0,0,0,0
2364,1765224402233,68,8157,-172,0,0,0,0,0
2365,1765224402316,44,8123,-166,0,0,0,0,0
2366,1765224402533,6,8146,-153,0,0,0,0,0
2367,1765224402650,34,8148,-163,0,0,0,0,0
2368,1765224402983,29,8137,-170,0,0,0,0,0
2369,1765224403133,35,8150,-164,0,0,0,0,0
2370,1765224403283,34,8133,-164,0,0,0,0,0
2371,1765224403417,38,8132,-166,0,0,0,0,0
2372,1765224403533,28,8159,-179,0,0,0,0,0
2373,1765224403767,36,8129,-160,0,0,0,0,0
2374,1765224403983,25,8142,-176,0,0,0,0,0
2375,1765224404150,179,9006,984,0,0,0,0,0
2376,1765224404200,28,8037,12,0,0,0,0,0
2377,1765224404433,431,8220,1722,0,0,0,0,0
2378,1765224404583,311,8525,1214,0,0,0,0,0
2379,1765224404733,558,8079,1533,0,0,0,0,0
2380,1765224404900,-581,8458,670,0,0,0,0,0
2381,1765224405066,54,8036,1366,0,0,0,0,0
2382,1765224405201,-154,7642,907,0,0,0,0,0
2383,1765224405333,404,8681,1064,0,0,0,0,0
2384,1765224405633,-328,8415,1134,0,0,0,0,0
2385,1765224405768,106,7853,1270,0,0,0,0,0
2386,1765224405917,-42,8834,2110,0,0,0,0,0
2387,1765224406067,779,8649,1985,0,0,0,0,0
2388,1765224406317,428,8348,2698,0,0,0,0,0
2389,1765224406400,207,8271,2130,0,0,0,0,0
2390,1765224406533,-266,7769,719,0,0,0,0,0
2391,1765224406767,80,7837,1229,0,0,0,0,0
2392,1765224406833,744,10090,857,0,0,0,0,0
2393,1765224407267,-656,7955,1658,0,0,0,0,0
2394,1765224407500,1448,8610,1160,0,0,0,0,0
2395,1765224407567,-415,7506,926,0,0,0,0,0
2396,1765224407933,-742,8068,1958,0,0,0,0,0
2397,1765224408100,-233,8687,2828,0,0,0,0,0
2398,1765224408267,-213,7995,2681,0,0,0,0,0
2399,1765224408399,-79,7851,1332,0,0,0,0,0
2400,1765224408567,-346,8072,2166,0,0,0,0,0
2401,1765224408700,-774,8528,1278,0,0,0,0,0
2402,1765224409133,-262,8453,2710,0,0,0,0,0
2403,1765224409217,1538,9564,2111,0,0,0,0,0
2404,1765224409416,-352,7428,2687,0,0,0,0,0
2405,1765224409516,483,10996,1987,0,0,0,0,0
2406,1765224409567,867,6275,2077,0,0,0,0,0
2407,1765224409666,1426,8610,1046,0,0,0,0,0
2408,1765224409900,-1011,7406,574,0,0,0,0,0
2409,1765224410050,340,9171,1278,0,0,0,0,0
2410,1765224410167,875,7835,1002,0,0,0,0,0
2411,1765224410200,-616,8687,272,0,0,0,0,0
2412,1765224410299,-797,6980,670,0,0,0,0,0
2413,1765224410533,1805,10020,185,0,0,0,0,0
2414,1765224410717,726,10268,1967,0,0,0,0,0
2415,1765224410849,1658,8906,1677,0,0,0,0,0
2416,1765224411050,633,7382,1290,0,0,0,0,0
2417,1765224411166,2136,10854,1112,0,0,0,0,0
2418,1765224411350,354,8234,756,0,0,0,0,0
2419,1765224411500,1248,11210,-140,0,0,0,0,0
2420,1765224411766,1398,7555,367,0,0,0,0,0
2421,1765224411865,1285,9112,-2036,0,0,0,0,0
2422,1765224412050,80,10346,-4323,0,0,0,0,0
2423,1765224412183,1556,7375,-4080,0,0,0,0,0
2424,1765224412500,558,10010,-6568,0,0,0,0,0
2425,1765224412599,1640,2849,-4806,0,0,0,0,0
2426,1765224412816,582,5575,-3936,0,0,0,0,0
2427,1765224412934,1919,8576,-7795,0,0,0,0,0
2428,1765224413150,-199,4206,-4871,0,0,0,0,0
2429,1765224413266,913,8694,-5726,0,0,0,0,0
2430,1765224413350,-741,6794,-5573,0,0,0,0,0
2431,1765224413533,302,7850,-5291,0,0,0,0,0
2432,1765224413650,-416,8194,-4981,0,0,0,0,0
2433,1765224414033,-484,8728,-5683,0,0,0,0,0
2434,1765224414350,-116,7079,-5397,0,0,0,0,0
2435,1765224414433,-135,9035,-5385,0,0,0,0,0
2436,1765224414617,194,7974,-4264,0,0,0,0,0
2437,1765224414783,444,7594,25,0,0,0,0,0
2438,1765224414998,-142,8905,1156,0,0,0,0,0
2439,1765224415217,506,8244,27,0,0,0,0,0
2440,1765224415283,506,7953,-320,0,0,0,0,0
2441,1765224415516,498,8152,-123,0,0,0,0,0
2442,1765224415633,308,8181,-163,0,0,0,0,0
2443,1765224415966,448,8064,-25,0,0,0,0,0
2444,1765224416049,474,8179,-87,0,0,0,0,0
2445,1765224416266,432,8096,-46,0,0,0,0,0
2446,1765224416416,439,8116,-124,0,0,0,0,0
2447,1765224416616,458,8138,-145,0,0,0,0,0
2448,1765224416749,413,8134,-135,0,0,0,0,0
2449,1765224416966,439,8123,-94,0,0,0,0,0
2450,1765224417133,444,8139,-116,0,0,0,0,0
2451,1765224417332,446,8127,-117,0,0,0,0,0
2452,1765224417564,443,8122,-113,0,0,0,0,0
2453,1765224417733,448,8132,-118,0,0,0,0,0
2454,1765224417865,454,8130,-124,0,0,0,0,0
2455,1765224418065,445,8127,-119,0,0,0,0,0
2456,1765224418165,437,8133,-126,0,0,0,0,0
2457,1765224418248,452,8125,-111,0,0,0,0,0
2458,1765224418351,448,8134,-116,0,0,0,0,0
2459,1765224418584,445,8136,-107,0,0,0,0,0
2460,1765224418765,451,8120,-130,0,0,0,0,0
2461,1765224418951,446,8133,-120,0,0,0,0,0
2462,1765224419035,437,8126,-118,0,0,0,0,0
2463,1765224419334,444,8124,-112,0,0,0,0,0
2464,1765224419717,450,8131,-110,0,0,0,0,0
2465,1765224419833,454,8135,-116,0,0,0,0,0
2466,1765224420018,438,8124,-114,0,0,0,0,0
2467,1765224420200,450,8150,-115,0,0,0,0,0
2468,1765224420416,433,8125,-122,0,0,0,0,0
2469,1765224420517,442,8122,-112,0,0,0,0,0
2470,1765224420717,450,8136,-117,0,0,0,0,0
2471,1765224420867,452,8124,-115,0,0,0,0,0
2472,1765224421183,427,8132,-124,0,0,0,0,0
2473,1765224421283,432,8139,-103,0,0,0,0,0
2474,1765224421499,439,8115,-96,0,0,0,0,0
2475,1765224421599,466,8090,-112,0,0,0,0,0
2476,1765224421866,426,8180,-133,0,0,0,0,0
2477,1765224421933,426,8125,-97,0,0,0,0,0
2478,1765224422015,434,8118,-108,0,0,0,0,0
2479,1765224422150,440,8132,-119,0,0,0,0,0
2480,1765224422300,442,8138,-112,0,0,0,0,0
2481,1765224422765,461,8117,-119,0,0,0,0,0
2482,1765224422984,436,8128,-95,0,0,0,0,0
2483,1765224423065,440,8113,-108,0,0,0,0,0
2484,1765224423283,410,8088,-155,0,0,0,0,0
2485,1765224423450,447,8129,-138,0,0,0,0,0
2486,1765224423700,481,8095,-74,0,0,0,0,0
2487,1765224423784,431,8095,-106,0,0,0,0,0
2488,1765224423849,458,8110,-116,0,0,0,0,0
2489,1765224423967,430,8132,-114,0,0,0,0,0
2490,1765224424150,443,8122,-106,0,0,0,0,0
2491,1765224424450,452,8128,-125,0,0,0,0,0
2492,1765224424600,418,8131,-114,0,0,0,0,0
2493,1765224424798,440,8127,-120,0,0,0,0,0
2494,1765224424900,452,8132,-107,0,0,0,0,0
2495,1765224425300,451,8138,-92,0,0,0,0,0
2496,1765224425517,414,8100,-218,0,0,0,0,0
2497,1765224425600,440,8130,-155,0,0,0,0,0
2498,1765224425868,715,7950,1321,0,0,0,0,0
2499,1765224426098,1012,8441,1562,0,0,0,0,0
2500,1765224426319,1091,8090,688,0,0,0,0,0
2501,1765224426368,861,8197,332,0,0,0,0,0
2502,1765224426450,706,8230,1343,0,0,0,0,0
2503,1765224426700,1455,8085,189,0,0,0,0,0
2504,1765224426865,1334,8250,983,0,0,0,0,0
2505,1765224427116,822,8465,-922,0,0,0,0,0
2506,1765224427181,1071,7656,-1528,0,0,0,0,0
2507,1765224427401,585,8418,-754,0,0,0,0,0
2508,1765224427816,-223,7655,-542,0,0,0,0,0
2509,1765224427916,-232,8178,-596,0,0,0,0,0
2510,1765224428116,109,8353,-751,0,0,0,0,0
2511,1765224428267,138,8013,-488,0,0,0,0,0
2512,1765224428534,227,8052,-624,0,0,0,0,0
2513,1765224428633,124,8011,-532,0,0,0,0,0
2514,1765224428816,51,8177,-546,0,0,0,0,0
2515,1765224428949,105,8132,-266,0,0,0,0,0
2516,1765224429166,227,8107,74,0,0,0,0,0
2517,1765224429399,43,8169,-425,0,0,0,0,0
2518,1765224429650,280,8197,-33,0,0,0,0,0
2519,1765224429716,2,7978,-55,0,0,0,0,0
2520,1765224429950,118,8302,-56,0,0,0,0,0
2521,1765224430133,254,8180,104,0,0,0,0,0
2522,1765224430333,-103,8272,3,0,0,0,0,0
2523,1765224430434,206,7800,142,0,0,0,0,0
2524,1765224430664,66,7890,86,0,0,0,0,0
2525,1765224430800,204,7974,94,0,0,0,0,0
2526,1765224431100,-56,8025,260,0,0,0,0,0
2527,1765224431184,-230,8296,66,0,0,0,0,0
2528,1765224431383,-304,7902,86,0,0,0,0,0
2529,1765224431533,-216,8539,206,0,0,0,0,0
2530,1765224431716,-64,7743,214,0,0,0,0,0
2531,1765224431866,-14,7880,159,0,0,0,0,0
2532,1765224432050,-340,8105,-90,0,0,0,0,0
2533,1765224432232,-410,8137,260,0,0,0,0,0
2534,1765224432383,-53,8111,246,0,0,0,0,0
2535,1765224432616,-239,7999,309,0,0,0,0,0
2536,1765224432864,-343,7588,294,0,0,0,0,0
2537,1765224432984,-710,8118,119,0,0,0,0,0
2538,1765224433199,-432,8119,244,0,0,0,0,0
2539,1765224433350,-1333,8024,46,0,0,0,0,0
2540,1765224433583,-1477,8220,-236,0,0,0,0,0
2541,1765224433698,-1681,8355,-10,0,0,0,0,0
2542,1765224433916,-900,7568,105,0,0,0,0,0
2543,1765224434066,-846,7577,357,0,0,0,0,0
2544,1765224434333,-643,8109,628,0,0,0,0,0
2545,1765224434433,-342,7983,618,0,0,0,0,0
2546,1765224434567,-92,7881,868,0,0,0,0,0
2547,1765224434799,-506,8180,1112,0,0,0,0,0
2548,1765224434899,-580,8229,830,0,0,0,0,0
2549,1765224435133,-92,7968,1091,0,0,0,0,0
2550,1765224435266,-426,8027,1045,0,0,0,0,0
2551,1765224435467,-273,7852,1150,0,0,0,0,0
2552,1765224435733,-281,8510,996,0,0,0,0,0
2553,1765224435801,-641,8272,978,0,0,0,0,0
2554,1765224435933,-273,8028,1076,0,0,0,0,0
2555,1765224436216,-443,8185,994,0,0,0,0,0
2556,1765224436300,-448,8257,1046,0,0,0,0,0
2557,1765224436433,-441,8081,123,0,0,0,0,0
2558,1765224436666,-482,8150,139,0,0,0,0,0
2559,1765224436716,-425,8098,54,0,0,0,0,0
2560,1765224437000,-366,7918,82,0,0,0,0,0
2561,1765224437100,-374,8065,1615,0,0,0,0,0
2562,1765224437217,-470,8300,1671,0,0,0,0,0
2563,1765224437399,-323,8297,1746,0,0,0,0,0
2564,1765224437600,-226,8131,1801,0,0,0,0,0
2565,1765224437883,-366,8250,524,0,0,0,0,0
2566,1765224438083,-341,8003,364,0,0,0,0,0
2567,1765224438183,-421,8070,385,0,0,0,0,0
2568,1765224438299,-403,8154,422,0,0,0,0,0
2569,1765224438433,-403,8149,454,0,0,0,0,0
2570,1765224438617,-386,8099,413,0,0,0,0,0
2571,1765224438783,-389,8136,414,0,0,0,0,0
2572,1765224439033,-401,8139,386,0,0,0,0,0
2573,1765224439183,-405,8071,473,0,0,0,0,0
2574,1765224439333,-370,8158,420,0,0,0,0,0
2575,1765224439683,-453,8256,460,0,0,0,0,0
2576,1765224439799,-341,8088,410,0,0,0,0,0
2577,1765224439983,-359,8031,373,0,0,0,0,0
2578,1765224440216,-395,8113,458,0,0,0,0,0
2579,1765224440350,-408,8164,394,0,0,0,0,0
2580,1765224440533,-380,8084,434,0,0,0,0,0
2581,1765224440700,-409,8161,432,0,0,0,0,0
2582,1765224440783,-397,8132,426,0,0,0,0,0
2583,1765224440950,-384,8112,424,0,0,0,0,0
2584,1765224441066,-394,8128,418,0,0,0,0,0
2585,1765224441315,-396,8123,441,0,0,0,0,0
2586,1765224441383,-396,8128,424,0,0,0,0,0
2587,1765224441600,-394,8135,424,0,0,0,0,0
2588,1765224441732,-401,8132,420,0,0,0,0,0
2589,1765224441900,-383,8126,425,0,0,0,0,0
2590,1765224441982,-386,8120,412,0,0,0,0,0
2591,1765224442150,-372,8144,426,0,0,0,0,0
2592,1765224442316,-404,8125,392,0,0,0,0,0
2593,1765224442483,-400,8115,417,0,0,0,0,0
2594,1765224442616,-364,8014,399,0,0,0,0,0
2595,1765224442716,-420,8214,442,0,0,0,0,0
2596,1765224442916,-403,8187,428,0,0,0,0,0
2597,1765224443133,-338,8025,394,0,0,0,0,0
2598,1765224443383,-392,8136,444,0,0,0,0,0
2599,1765224443483,-392,8118,427,0,0,0,0,0
2600,1765224443666,-387,8126,410,0,0,0,0,0
2601,1765224443733,-394,8121,430,0,0,0,0,0
2602,1765224443849,-396,8143,416,0,0,0,0,0
2603,1765224444033,-391,8135,408,0,0,0,0,0
2604,1765224444166,-394,8125,416,0,0,0,0,0
2605,1765224444432,-396,8129,424,0,0,0,0,0
2606,1765224444583,-390,8119,412,0,0,0,0,0
2607,1765224444733,-390,8126,409,0,0,0,0,0
2608,1765224444933,-389,8126,431,0,0,0,0,0
2609,1765224444966,-396,8123,445,0,0,0,0,0
2610,1765224445198,-387,8122,411,0,0,0,0,0
2611,1765224445349,-394,8131,421,0,0,0,0,0
2612,1765224445483,-405,8133,426,0,0,0,0,0
2613,1765224445766,-380,8134,402,0,0,0,0,0
2614,1765224445850,-399,8125,422,0,0,0,0,0
2615,1765224446083,-398,8108,460,0,0,0,0,0
2616,1765224446216,-420,8105,448,0,0,0,0,0
2617,1765224446366,-402,8136,372,0,0,0,0,0
2618,1765224446659,-366,8110,462,0,0,0,0,0
2619,1765224446966,-398,8124,422,0,0,0,0,0
2620,1765224447150,-402,8130,417,0,0,0,0,0
2621,1765224447250,-400,8130,420,0,0,0,0,0
2622,1765224447450,-384,8214,114,0,0,0,0,0
2623,1765224447697,-387,8038,-16,0,0,0,0,0
2624,1765224447883,-453,8082,77,0,0,0,0,0
2625,1765224447982,-427,8103,56,0,0,0,0,0
2626,1765224448083,-380,8017,90,0,0,0,0,0
2627,1765224448233,-495,8134,-39,0,0,0,0,0
2628,1765224448466,-348,8002,252,0,0,0,0,0
2629,1765224448749,-354,8259,185,0,0,0,0,0
2630,1765224448833,-506,7944,-271,0,0,0,0,0
2631,1765224449066,-358,8068,-48,0,0,0,0,0
2632,1765224449217,-570,8190,-288,0,0,0,0,0
2633,1765224449467,482,8148,3216,0,0,0,0,0
2634,1765224449549,94,8930,224,0,0,0,0,0
2635,1765224449783,20,7755,275,0,0,0,0,0
2636,1765224450233,-1875,7515,2548,0,0,0,0,0
2637,1765224450383,-560,7240,2339,0,0,0,0,0
2638,1765224450533,1903,9254,5171,0,0,0,0,0
2639,1765224450716,-427,7880,463,0,0,0,0,0
2640,1765224450950,902,8302,1687,0,0,0,0,0
2641,1765224451149,-810,7417,-485,0,0,0,0,0
2642,1765224451349,337,7784,1240,0,0,0,0,0
2643,1765224451534,-212,7546,704,0,0,0,0,0
2644,1765224451750,743,8328,1260,0,0,0,0,0
2645,1765224452049,1505,8152,885,0,0,0,0,0
2646,1765224452149,1071,8200,886,0,0,0,0,0
2647,1765224452366,1134,8684,651,0,0,0,0,0
2648,1765224452500,536,8192,286,0,0,0,0,0
2649,1765224452749,-249,9344,-15,0,0,0,0,0
2650,1765224452867,348,8390,434,0,0,0,0,0
2651,1765224453049,191,6932,624,0,0,0,0,0
2652,1765224453116,561,8368,376,0,0,0,0,0
2653,1765224453166,326,8708,370,0,0,0,0,0
2654,1765224453483,174,8353,293,0,0,0,0,0
2655,1765224453681,116,8051,-70,0,0,0,0,0
2656,1765224453867,-332,8730,1089,0,0,0,0,0
2657,1765224454050,-187,8527,772,0,0,0,0,0
2658,1765224454199,-228,8275,900,0,0,0,0,0
2659,1765224454514,542,8338,572,0,0,0,0,0
2660,1765224454600,-536,10106,1502,0,0,0,0,0
2661,1765224454833,144,6688,1135,0,0,0,0,0
2662,1765224455083,260,8782,1182,0,0,0,0,0
2663,1765224455298,-1568,9363,1238,0,0,0,0,0
2664,1765224455515,336,6720,1462,0,0,0,0,0
2665,1765224455598,610,7997,2473,0,0,0,0,0
2666,1765224455682,-732,7598,3793,0,0,0,0,0
2667,1765224455899,-1,8866,4519,0,0,0,0,0
2668,1765224456015,-443,7566,2332,0,0,0,0,0
2669,1765224456248,358,6919,3266,0,0,0,0,0
2670,1765224456417,-310,9108,-1376,0,0,0,0,0
2671,1765224456731,-2622,4073,-293,0,0,0,0,0
2672,1765224456883,-2065,7724,-1131,0,0,0,0,0
2673,1765224457132,22,6959,-343,0,0,0,0,0
2674,1765224457265,-1036,8031,-1299,0,0,0,0,0
2675,1765224457466,-512,7274,-598,0,0,0,0,0
2676,1765224457685,-914,7188,-1625,0,0,0,0,0
2677,1765224457714,-529,9669,-1430,0,0,0,0,0
2678,1765224457881,-907,8266,-2590,0,0,0,0,0
2679,1765224458083,-1544,7826,-3307,0,0,0,0,0
2680,1765224458266,376,7562,-2075,0,0,0,0,0
2681,1765224458582,-2450,9252,-3428,0,0,0,0,0
2682,1765224458665,-804,8595,-3134,0,0,0,0,0
2683,1765224458751,-1826,9790,-3127,0,0,0,0,0
2684,1765224458932,-1866,8743,-3526,0,0,0,0,0
2685,1765224459032,-484,7301,-2367,0,0,0,0,0
2686,1765224459317,-1698,9390,-2444,0,0,0,0,0
2687,1765224459465,161,6974,-3242,0,0,0,0,0
2688,1765224459682,-794,9653,-3187,0,0,0,0,0
2689,1765224459765,-980,6826,-2737,0,0,0,0,0
2690,1765224460050,-940,10052,-3667,0,0,0,0,0
2691,1765224460315,-900,6652,-2986,0,0,0,0,0
2692,1765224460465,-1000,8594,-2222,0,0,0,0,0
2693,1765224460699,-578,7754,-899,0,0,0,0,0
2694,1765224460865,-340,8698,-545,0,0,0,0,0
2695,1765224461132,-82,8261,-653,0,0,0,0,0
2696,1765224461198,-538,8000,-628,0,0,0,0,0
2697,1765224461316,-57,9614,-931,0,0,0,0,0
2698,1765224461500,-564,6620,-850,0,0,0,0,0
2699,1765224461633,-538,7170,-954,0,0,0,0,0
2700,1765224462014,-43,8622,-606,0,0,0,0,0
2701,1765224462116,143,7358,-735,0,0,0,0,0
2702,1765224462316,-647,8555,-841,0,0,0,0,0
2703,1765224462465,-190,7402,-1064,0,0,0,0,0
2704,1765224462749,-644,8125,-718,0,0,0,0,0
2705,1765224462933,106,7753,-407,0,0,0,0,0
2706,1765224463049,-463,8951,-632,0,0,0,0,0
2707,1765224463149,-618,7306,-1168,0,0,0,0,0
2708,1765224463316,-1036,8192,-310,0,0,0,0,0
2709,1765224463566,22,8496,-1250,0,0,0,0,0
2710,1765224463850,-415,8116,-895,0,0,0,0,0
2711,1765224463983,-856,8448,-1150,0,0,0,0,0
2712,1765224464149,-748,7691,-986,0,0,0,0,0
2713,1765224464416,-111,7801,-456,0,0,0,0,0
2714,1765224464599,-568,7335,-890,0,0,0,0,0
2715,1765224464798,-476,7961,-842,0,0,0,0,0
2716,1765224464916,-390,8664,-543,0,0,0,0,0
2717,1765224464998,-714,7790,-977,0,0,0,0,0
2718,1765224465299,-963,8253,-1065,0,0,0,0,0
2719,1765224465366,-546,7635,-571,0,0,0,0,0
2720,1765224465614,-670,8006,-881,0,0,0,0,0
2721,1765224465631,-370,8452,-1547,0,0,0,0,0
2722,1765224465749,-452,8328,-1230,0,0,0,0,0
2723,1765224466015,-454,7658,-1123,0,0,0,0,0
2724,1765224466116,-305,7713,-1211,0,0,0,0,0
2725,1765224466366,-465,8286,-1120,0,0,0,0,0
2726,1765224466464,-771,7131,-1094,0,0,0,0,0
2727,1765224466782,-1270,7829,-1246,0,0,0,0,0
2728,1765224466999,-673,8020,-1068,0,0,0,0,0
2729,1765224467181,-394,7792,-971,0,0,0,0,0
2730,1765224467365,-614,8392,-1191,0,0,0,0,0
2731,1765224467582,-610,8185,-1098,0,0,0,0,0
2732,1765224467783,-608,8090,-1052,0,0,0,0,0
2733,1765224467916,-512,8186,-982,0,0,0,0,0
2734,1765224468316,-451,7915,-740,0,0,0,0,0
2735,1765224468617,-551,8178,-663,0,0,0,0,0
2736,1765224468684,-479,8449,-772,0,0,0,0,0
2737,1765224468749,-605,8461,-1010,0,0,0,0,0
2738,1765224468898,-485,7960,-1072,0,0,0,0,0
2739,1765224469051,-436,7926,-1278,0,0,0,0,0
2740,1765224469234,-740,8432,-1348,0,0,0,0,0
2741,1765224469432,-644,8051,-1944,0,0,0,0,0
2742,1765224469582,-605,8096,-2150,0,0,0,0,0
2743,1765224469766,-512,7988,-1740,0,0,0,0,0
2744,1765224469916,-465,8091,-421,0,0,0,0,0
2745,1765224470166,-476,8182,-480,0,0,0,0,0
2746,1765224470483,-542,8127,-770,0,0,0,0,0
2747,1765224470533,-528,8056,-838,0,0,0,0,0
2748,1765224470633,-484,8108,-591,0,0,0,0,0
2749,1765224470750,-514,8094,-580,0,0,0,0,0
2750,1765224470916,-502,8098,-622,0,0,0,0,0
2751,1765224471181,-528,8055,-704,0,0,0,0,0
2752,1765224471382,-511,8076,-621,0,0,0,0,0
2753,1765224471482,-518,8072,-622,0,0,0,0,0
2754,1765224471682,-500,8069,-676,0,0,0,0,0
2755,1765224472132,-509,8134,-664,0,0,0,0,0
2756,1765224472214,-526,8118,-646,0,0,0,0,0
2757,1765224472433,-519,8073,-627,0,0,0,0,0
2758,1765224472433,-531,8114,-668,0,0,0,0,0
2759,1765224472565,-508,8076,-711,0,0,0,0,0
2760,1765224472782,-489,8089,-657,0,0,0,0,0
2761,1765224472916,-527,8122,-654,0,0,0,0,0
2762,1765224473099,-535,8064,-677,0,0,0,0,0
2763,1765224473298,-471,8068,-668,0,0,0,0,0
2764,1765224473433,-500,8148,-641,0,0,0,0,0
2765,1765224473615,-508,8084,-623,0,0,0,0,0
2766,1765224473748,-562,8063,-732,0,0,0,0,0
2767,1765224474050,-501,8094,-640,0,0,0,0,0
2768,1765224474147,-509,8125,-611,0,0,0,0,0
2769,1765224474332,-506,8096,-698,0,0,0,0,0
2770,1765224474514,-502,8077,-668,0,0,0,0,0
2771,1765224474648,-515,8110,-624,0,0,0,0,0
2772,1765224474848,-517,8088,-626,0,0,0,0,0
2773,1765224474997,-568,8159,-677,0,0,0,0,0
2774,1765224475217,-498,8085,-632,0,0,0,0,0
2775,1765224475285,-484,8030,-646,0,0,0,0,0
2776,1765224475732,-523,8087,-661,0,0,0,0,0
2777,1765224475864,-573,8046,-612,0,0,0,0,0
2778,1765224476033,-503,8041,-596,0,0,0,0,0
2779,1765224476349,-518,8100,-628,0,0,0,0,0
2780,1765224476449,-516,8120,-631,0,0,0,0,0
2781,1765224476631,-475,8099,-681,0,0,0,0,0
2782,1765224476765,-539,8066,-700,0,0,0,0,0
2783,1765224476947,-524,8085,-639,0,0,0,0,0
2784,1765224476997,-494,8090,-678,0,0,0,0,0
2785,1765224477249,-495,8093,-669,0,0,0,0,0
2786,1765224477632,-530,8031,-628,0,0,0,0,0
2787,1765224477747,-432,8123,-644,0,0,0,0,0
2788,1765224477948,-494,8095,-652,0,0,0,0,0
2789,1765224478049,-548,8060,-664,0,0,0,0,0
2790,1765224478067,-536,8060,-656,0,0,0,0,0
2791,1765224478181,-485,8116,-641,0,0,0,0,0
2792,1765224478431,-506,8088,-631,0,0,0,0,0
2793,1765224478497,-535,8096,-672,0,0,0,0,0
2794,1765224478815,-511,8100,-634,0,0,0,0,0
2795,1765224478899,-502,8080,-656,0,0,0,0,0
2796,1765224479216,-521,8094,-673,0,0,0,0,0
2797,1765224479557,-486,8088,-636,0,0,0,0,0
2798,1765224479632,-520,8078,-666,0,0,0,0,0
2799,1765224479715,-527,8096,-672,0,0,0,0,0
2800,1765224480048,-498,8098,-656,0,0,0,0,0
2801,1765224480332,-522,8074,-667,0,0,0,0,0
2802,1765224480399,-519,8092,-654,0,0,0,0,0
2803,1765224480699,-514,8097,-670,0,0,0,0,0
2804,1765224480815,-503,8088,-650,0,0,0,0,0
2805,1765224481099,-505,8096,-640,0,0,0,0,0
2806,1765224481199,-500,8100,-705,0,0,0,0,0
2807,1765224481299,-520,8093,-666,0,0,0,0,0
2808,1765224481499,-510,8090,-622,0,0,0,0,0
2809,1765224481649,-501,8086,-635,0,0,0,0,0
2810,1765224481916,-517,8099,-652,0,0,0,0,0
2811,1765224482049,-514,8091,-641,0,0,0,0,0
2812,1765224482215,-494,8079,-656,0,0,0,0,0
2813,1765224482466,-510,8103,-648,0,0,0,0,0
2814,1765224482682,-504,8084,-652,0,0,0,0,0
2815,1765224482932,-530,8094,-676,0,0,0,0,0
2816,1765224483032,-503,8098,-649,0,0,0,0,0
2817,1765224483099,-517,8096,-650,0,0,0,0,0
2818,1765224483315,-495,8095,-673,0,0,0,0,0
2819,1765224483514,-511,8085,-655,0,0,0,0,0
2820,1765224483649,-510,8098,-639,0,0,0,0,0
2821,1765224483733,-496,8102,-675,0,0,0,0,0
2822,1765224483915,-505,8070,-669,0,0,0,0,0
