index,date,GYRO_X,GYRO_Y,GYRO_Z,1,2,3,4,5
0,1765223565862,4,-72,-27,0,0,0,0,0
1,1765223565993,99,-86,-50,0,0,0,0,0
2,1765223566159,-36,-78,65,0,0,0,0,0
3,1765223566277,22,-114,11,0,0,0,0,0
4,1765223566393,12,-63,21,0,0,0,0,0
5,1765223566476,-34,-85,8,0,0,0,0,0
6,1765223566760,55,-32,-13,0,0,0,0,0
7,1765223566893,33,-118,31,0,0,0,0,0
8,1765223567012,10,-270,17,0,0,0,0,0
9,1765223567177,28,-326,-16,0,0,0,0,0
10,1765223567311,55,-332,37,0,0,0,0,0
11,1765223567493,18,-389,35,0,0,0,0,0
12,1765223567643,10,-672,22,0,0,0,0,0
13,1765223567877,36,-672,28,0,0,0,0,0
14,1765223568010,14,-659,22,0,0,0,0,0
15,1765223568192,34,-658,55,0,0,0,0,0
16,1765223568260,-24,-595,53,0,0,0,0,0
17,1765223568578,34,-649,48,0,0,0,0,0
18,1765223568628,-3,-623,41,0,0,0,0,0
19,1765223568877,35,-640,-1,0,0,0,0,0
20,1765223568943,26,-575,28,0,0,0,0,0
21,1765223569010,102,-555,34,0,0,0,0,0
22,1765223569294,69,-524,43,0,0,0,0,0
23,1765223569427,2,-558,35,0,0,0,0,0
24,1765223569660,-3,-491,30,0,0,0,0,0
25,1765223569778,9,-470,22,0,0,0,0,0
26,1765223570043,-13,-443,10,0,0,0,0,0
27,1765223570378,27,-312,16,0,0,0,0,0
28,1765223570476,41,-318,36,0,0,0,0,0
29,1765223570727,9,-312,20,0,0,0,0,0
30,1765223570927,12,-237,13,0,0,0,0,0
31,1765223571110,-27,-176,-34,0,0,0,0,0
32,1765223571295,-71,-40,16,0,0,0,0,0
33,1765223571477,45,-179,-7,0,0,0,0,0
34,1765223571778,20,-179,54,0,0,0,0,0
35,1765223571877,18,-233,7,0,0,0,0,0
36,1765223572143,25,-300,17,0,0,0,0,0
37,1765223572227,2,-273,8,0,0,0,0,0
38,1765223572510,10,-299,6,0,0,0,0,0
39,1765223572627,-3,-260,28,0,0,0,0,0
40,1765223572910,32,-128,23,0,0,0,0,0
41,1765223572993,44,-122,8,0,0,0,0,0
42,1765223573276,1,-136,3,0,0,0,0,0
43,1765223573325,-14,-119,16,0,0,0,0,0
44,1765223573544,27,-125,21,0,0,0,0,0
45,1765223573677,-3,-180,23,0,0,0,0,0
46,1765223573909,20,-156,-16,0,0,0,0,0
47,1765223574098,24,-151,-2,0,0,0,0,0
48,1765223574328,-12,-92,20,0,0,0,0,0
49,1765223574445,-16,-134,-14,0,0,0,0,0
50,1765223574711,61,-91,-49,0,0,0,0,0
51,1765223574944,43,-78,9,0,0,0,0,0
52,1765223575078,206,-115,41,0,0,0,0,0
53,1765223575295,26,15,39,0,0,0,0,0
54,1765223575461,4,49,-4,0,0,0,0,0
55,1765223575744,57,9,-24,0,0,0,0,0
56,1765223575810,-1,3,-12,0,0,0,0,0
57,1765223575909,24,150,46,0,0,0,0,0
58,1765223576110,3,224,-15,0,0,0,0,0
59,1765223576210,-43,217,-4,0,0,0,0,0
60,1765223576694,-2,450,-44,0,0,0,0,0
61,1765223576893,12,382,42,0,0,0,0,0
62,1765223577043,38,412,10,0,0,0,0,0
63,1765223577276,-23,455,-21,0,0,0,0,0
64,1765223577494,-38,412,-152,0,0,0,0,0
65,1765223577626,-31,500,5,0,0,0,0,0
66,1765223577827,-61,525,-43,0,0,0,0,0
67,1765223578010,-53,527,-20,0,0,0,0,0
68,1765223578327,26,528,-51,0,0,0,0,0
69,1765223578460,-43,416,4,0,0,0,0,0
70,1765223578660,38,422,-42,0,0,0,0,0
71,1765223578745,6,504,36,0,0,0,0,0
72,1765223579161,22,490,-3,0,0,0,0,0
73,1765223579342,36,582,-89,0,0,0,0,0
74,1765223579444,-24,545,-16,0,0,0,0,0
75,1765223579710,15,576,4,0,0,0,0,0
76,1765223579944,11,644,-62,0,0,0,0,0
77,1765223580143,-9,604,-21,0,0,0,0,0
78,1765223580310,95,789,-28,0,0,0,0,0
79,1765223580526,-33,795,-247,0,0,0,0,0
80,1765223580694,71,717,-11,0,0,0,0,0
81,1765223580977,-30,661,-11,0,0,0,0,0
82,1765223581077,-7,663,-38,0,0,0,0,0
83,1765223581277,-44,627,-45,0,0,0,0,0
84,1765223581727,-57,7,-36,0,0,0,0,0
85,1765223581943,-10,-107,-42,0,0,0,0,0
86,1765223582028,17,-220,6,0,0,0,0,0
87,1765223582261,-13,-629,-103,0,0,0,0,0
88,1765223582443,-21,-645,116,0,0,0,0,0
89,1765223582693,96,-676,44,0,0,0,0,0
90,1765223582844,69,-571,23,0,0,0,0,0
91,1765223583062,64,-513,56,0,0,0,0,0
92,1765223583294,54,-347,56,0,0,0,0,0
93,1765223583542,128,189,82,0,0,0,0,0
94,1765223583627,-88,342,-64,0,0,0,0,0
95,1765223583827,-72,588,36,0,0,0,0,0
96,1765223584009,40,652,-34,0,0,0,0,0
97,1765223584227,-3,674,-74,0,0,0,0,0
98,1765223584311,-111,732,-105,0,0,0,0,0
99,1765223584528,-59,751,44,0,0,0,0,0
100,1765223584677,29,695,21,0,0,0,0,0
101,1765223584977,-33,740,-21,0,0,0,0,0
102,1765223585125,-30,721,-81,0,0,0,0,0
103,1765223585360,-16,635,-7,0,0,0,0,0
104,1765223585426,-23,691,-36,0,0,0,0,0
105,1765223585709,-58,716,-89,0,0,0,0,0
106,1765223585860,-49,595,-27,0,0,0,0,0
107,1765223586093,-25,731,-24,0,0,0,0,0
108,1765223586177,21,703,-52,0,0,0,0,0
109,1765223586427,52,735,1,0,0,0,0,0
110,1765223586644,34,794,-77,0,0,0,0,0
111,1765223586827,-56,792,-111,0,0,0,0,0
112,1765223587010,54,718,44,0,0,0,0,0
113,1765223587127,-114,829,-94,0,0,0,0,0
114,1765223587227,5,827,-72,0,0,0,0,0
115,1765223587394,123,782,-34,0,0,0,0,0
116,1765223587544,-51,819,-59,0,0,0,0,0
117,1765223587760,-36,787,-33,0,0,0,0,0
118,1765223587927,13,805,-86,0,0,0,0,0
119,1765223588210,14,839,-91,0,0,0,0,0
120,1765223588310,-7,835,-29,0,0,0,0,0
121,1765223588510,-108,669,-59,0,0,0,0,0
122,1765223588676,-95,658,14,0,0,0,0,0
123,1765223588861,-46,541,41,0,0,0,0,0
124,1765223589010,-21,378,-54,0,0,0,0,0
125,1765223589077,-2,-346,70,0,0,0,0,0
126,1765223589277,-26,-543,0,0,0,0,0,0
127,1765223589376,65,-666,20,0,0,0,0,0
128,1765223589628,50,-682,-75,0,0,0,0,0
129,1765223589777,97,-1024,52,0,0,0,0,0
130,1765223590093,66,-1050,91,0,0,0,0,0
131,1765223590178,22,-1052,46,0,0,0,0,0
132,1765223590393,-56,-933,82,0,0,0,0,0
133,1765223590510,38,-759,13,0,0,0,0,0
134,1765223590796,95,-495,142,0,0,0,0,0
135,1765223590860,-80,-403,-4,0,0,0,0,0
136,1765223591027,36,-222,-4,0,0,0,0,0
137,1765223591211,62,-148,30,0,0,0,0,0
138,1765223591527,-11,-112,-10,0,0,0,0,0
139,1765223591660,46,-197,-76,0,0,0,0,0
140,1765223591860,32,-235,9,0,0,0,0,0
141,1765223591960,-25,-304,-35,0,0,0,0,0
142,1765223592194,20,-313,43,0,0,0,0,0
143,1765223592361,67,-393,-95,0,0,0,0,0
144,1765223592544,65,-425,11,0,0,0,0,0
145,1765223592660,32,-410,38,0,0,0,0,0
146,1765223593043,8,-480,15,0,0,0,0,0
147,1765223593294,-56,-440,18,0,0,0,0,0
148,1765223593410,11,-455,43,0,0,0,0,0
149,1765223593427,34,-557,-13,0,0,0,0,0
150,1765223593544,18,-532,80,0,0,0,0,0
151,1765223593759,17,-585,8,0,0,0,0,0
152,1765223593827,17,-592,-2,0,0,0,0,0
153,1765223594194,42,-703,39,0,0,0,0,0
154,1765223594277,134,-685,65,0,0,0,0,0
155,1765223594510,45,-699,90,0,0,0,0,0
156,1765223594593,108,-752,-26,0,0,0,0,0
157,1765223594660,93,-766,55,0,0,0,0,0
158,1765223594727,-9,-797,49,0,0,0,0,0
159,1765223595010,87,-545,8,0,0,0,0,0
160,1765223595194,58,-809,77,0,0,0,0,0
161,1765223595361,11,-794,69,0,0,0,0,0
162,1765223595459,20,-712,34,0,0,0,0,0
163,1765223595677,14,-687,81,0,0,0,0,0
164,1765223595810,-42,-652,-19,0,0,0,0,0
165,1765223595993,9,-52,29,0,0,0,0,0
166,1765223596161,42,-58,-19,0,0,0,0,0
167,1765223596344,31,7,5,0,0,0,0,0
168,1765223596493,37,131,63,0,0,0,0,0
169,1765223596560,-93,825,-27,0,0,0,0,0
170,1765223596826,-35,680,-21,0,0,0,0,0
171,1765223596925,15,327,-241,0,0,0,0,0
172,1765223597210,-19,210,18,0,0,0,0,0
173,1765223597359,-36,255,-5,0,0,0,0,0
174,1765223597493,-27,300,8,0,0,0,0,0
175,1765223597677,112,276,-10,0,0,0,0,0
176,1765223597793,-222,42,-77,0,0,0,0,0
177,1765223597928,-41,-11,-19,0,0,0,0,0
178,1765223598094,7,-124,-15,0,0,0,0,0
179,1765223598226,-29,-156,13,0,0,0,0,0
180,1765223598593,42,-982,6,0,0,0,0,0
181,1765223598762,118,-1000,71,0,0,0,0,0
182,1765223598876,20,-960,81,0,0,0,0,0
183,1765223599009,41,-940,46,0,0,0,0,0
184,1765223599160,99,-942,61,0,0,0,0,0
185,1765223599294,-3,-914,32,0,0,0,0,0
186,1765223599511,44,-897,50,0,0,0,0,0
187,1765223599561,42,-899,-13,0,0,0,0,0
188,1765223599743,123,-924,79,0,0,0,0,0
189,1765223599878,29,-852,58,0,0,0,0,0
190,1765223600046,-10,-864,1,0,0,0,0,0
191,1765223600160,35,-845,20,0,0,0,0,0
192,1765223600443,39,-880,90,0,0,0,0,0
193,1765223600528,41,-871,13,0,0,0,0,0
194,1765223600761,46,-848,24,0,0,0,0,0
195,1765223600895,55,-846,8,0,0,0,0,0
196,1765223600959,79,-844,40,0,0,0,0,0
197,1765223601227,38,-858,71,0,0,0,0,0
198,1765223601362,66,-873,12,0,0,0,0,0
199,1765223601543,88,-892,75,0,0,0,0,0
200,1765223601676,41,-879,55,0,0,0,0,0
201,1765223601894,50,-841,76,0,0,0,0,0
202,1765223602126,2,-643,49,0,0,0,0,0
203,1765223602377,38,-596,49,0,0,0,0,0
204,1765223602526,-3,-542,1,0,0,0,0,0
205,1765223602760,4,-140,-30,0,0,0,0,0
206,1765223602944,-58,-75,-6,0,0,0,0,0
207,1765223603075,-46,-21,19,0,0,0,0,0
208,1765223603344,6,389,2,0,0,0,0,0
209,1765223603477,23,478,-73,0,0,0,0,0
210,1765223603776,-37,526,9,0,0,0,0,0
211,1765223603927,3,628,7,0,0,0,0,0
212,1765223603942,-22,633,-51,0,0,0,0,0
213,1765223604177,-28,622,-35,0,0,0,0,0
214,1765223604310,-63,634,-32,0,0,0,0,0
215,1765223604510,-48,618,-16,0,0,0,0,0
216,1765223604593,27,549,-20,0,0,0,0,0
217,1765223604761,-33,542,-45,0,0,0,0,0
218,1765223604893,-1,513,-30,0,0,0,0,0
219,1765223605127,33,449,-43,0,0,0,0,0
220,1765223605327,37,192,-34,0,0,0,0,0
221,1765223605610,-4,194,-14,0,0,0,0,0
222,1765223605710,-1,185,-6,0,0,0,0,0
223,1765223605993,-28,75,19,0,0,0,0,0
224,1765223606160,-27,35,-13,0,0,0,0,0
225,1765223606326,-9,85,-26,0,0,0,0,0
226,1765223606427,32,37,-41,0,0,0,0,0
227,1765223606492,-256,40,-24,0,0,0,0,0
228,1765223606727,-6,53,-17,0,0,0,0,0
229,1765223606977,-25,61,3,0,0,0,0,0
230,1765223607177,9,89,1,0,0,0,0,0
231,1765223607326,47,96,-2,0,0,0,0,0
232,1765223607477,30,87,41,0,0,0,0,0
233,1765223607744,18,228,-21,0,0,0,0,0
234,1765223607927,-56,213,-30,0,0,0,0,0
235,1765223608159,-21,258,246,0,0,0,0,0
236,1765223608226,23,241,-28,0,0,0,0,0
237,1765223608543,-5,302,31,0,0,0,0,0
238,1765223608792,-3,290,-62,0,0,0,0,0
239,1765223609026,-21,313,-13,0,0,0,0,0
240,1765223609160,64,306,-3,0,0,0,0,0
241,1765223609368,-61,342,-22,0,0,0,0,0
242,1765223609743,47,170,-51,0,0,0,0,0
243,1765223609893,-3,258,-38,0,0,0,0,0
244,1765223610026,24,272,10,0,0,0,0,0
245,1765223610477,-62,171,-48,0,0,0,0,0
246,1765223610710,56,174,2,0,0,0,0,0
247,1765223610777,-22,160,35,0,0,0,0,0
248,1765223610876,-36,85,-30,0,0,0,0,0
249,1765223611026,-15,38,10,0,0,0,0,0
250,1765223611194,-57,65,-34,0,0,0,0,0
251,1765223611443,-21,21,19,0,0,0,0,0
252,1765223611575,29,19,-96,0,0,0,0,0
253,1765223611727,22,55,37,0,0,0,0,0
254,1765223611910,-117,51,-24,0,0,0,0,0
255,1765223612126,112,83,-5,0,0,0,0,0
256,1765223612327,-69,30,9,0,0,0,0,0
257,1765223612493,10,79,49,0,0,0,0,0
258,1765223612627,64,60,-55,0,0,0,0,0
259,1765223612710,-5,46,29,0,0,0,0,0
260,1765223612758,8,63,-24,0,0,0,0,0
261,1765223613043,46,45,-25,0,0,0,0,0
262,1765223613176,-59,54,32,0,0,0,0,0
263,1765223613393,3,-2,20,0,0,0,0,0
264,1765223613477,66,65,3,0,0,0,0,0
265,1765223613793,-35,40,-36,0,0,0,0,0
266,1765223613944,-27,46,3,0,0,0,0,0
267,1765223614176,32,34,-16,0,0,0,0,0
268,1765223614260,-59,33,0,0,0,0,0,0
269,1765223614476,39,1,-50,0,0,0,0,0
270,1765223614660,-42,10,-52,0,0,0,0,0
271,1765223614910,3,33,28,0,0,0,0,0
272,1765223614991,18,23,-2,0,0,0,0,0
273,1765223615227,-9,20,-4,0,0,0,0,0
274,1765223615343,15,-2,0,0,0,0,0,0
275,1765223615660,40,-7,-14,0,0,0,0,0
276,1765223616027,21,11,7,0,0,0,0,0
277,1765223616093,23,32,-21,0,0,0,0,0
278,1765223616360,-25,4,-7,0,0,0,0,0
279,1765223616493,24,10,13,0,0,0,0,0
280,1765223616677,-4,-6,8,0,0,0,0,0
281,1765223616777,-24,19,-9,0,0,0,0,0
282,1765223617243,-16,-8,31,0,0,0,0,0
283,1765223617476,9,0,-1,0,0,0,0,0
284,1765223617558,24,-35,-30,0,0,0,0,0
285,1765223617810,0,-22,16,0,0,0,0,0
286,1765223617944,2,-11,-16,0,0,0,0,0
287,1765223618176,9,-18,17,0,0,0,0,0
288,1765223618293,5,-31,18,0,0,0,0,0
289,1765223618326,12,-20,-1,0,0,0,0,0
290,1765223618493,4,-25,-3,0,0,0,0,0
291,1765223618610,12,-27,11,0,0,0,0,0
292,1765223618926,14,-23,11,0,0,0,0,0
293,1765223619060,-1,-13,2,0,0,0,0,0
294,1765223619260,22,-5,16,0,0,0,0,0
295,1765223619360,8,-20,6,0,0,0,0,0
296,1765223619760,5,-9,-5,0,0,0,0,0
297,1765223619908,2,-4,3,0,0,0,0,0
298,1765223620060,2,-1,3,0,0,0,0,0
299,1765223620510,1,-10,0,0,0,0,0,0
300,1765223620727,11,-12,-1,0,0,0,0,0
301,1765223620893,6,-9,0,0,0,0,0,0
302,1765223621026,8,-10,0,0,0,0,0,0
303,1765223621193,5,-12,-1,0,0,0,0,0
304,1765223621410,6,-9,-1,0,0,0,0,0
305,1765223621610,5,-10,-256,0,0,0,0,0
306,1765223621726,6,-10,-1,0,0,0,0,0
307,1765223621910,5,-10,0,0,0,0,0,0
308,1765223622360,5,-11,0,0,0,0,0,0
309,1765223622477,7,-11,0,0,0,0,0,0
310,1765223622643,6,-11,0,0,0,0,0,0
311,1765223622793,6,-11,0,0,0,0,0,0
312,1765223623060,10,-8,0,0,0,0,0,0
313,1765223623143,4,-8,-1,0,0,0,0,0
314,1765223623343,5,-10,-1,0,0,0,0,0
315,1765223623493,7,-9,0,0,0,0,0,0
316,1765223623708,6,-10,1,0,0,0,0,0
317,1765223624176,6,-9,-3,0,0,0,0,0
318,1765223624262,6,-11,1,0,0,0,0,0
319,1765223624477,6,-10,1,0,0,0,0,0
320,1765223624643,5,-11,1,0,0,0,0,0
321,1765223624808,6,-8,-2,0,0,0,0,0
322,1765223624960,7,-11,-2,0,0,0,0,0
323,1765223625143,5,-9,1,0,0,0,0,0
324,1765223625292,6,-11,0,0,0,0,0,0
325,1765223625376,7,-8,-1,0,0,0,0,0
326,1765223625693,7,-11,-1,0,0,0,0,0
327,1765223625826,6,-10,0,0,0,0,0,0
328,1765223626010,6,-9,0,0,0,0,0,0
329,1765223626125,7,-9,-2,0,0,0,0,0
330,1765223626326,6,-9,0,0,0,0,0,0
331,1765223626493,7,-11,1,0,0,0,0,0
332,1765223626643,6,-9,-1,0,0,0,0,0
333,1765223626827,7,-10,-1,0,0,0,0,0
334,1765223626977,3,-10,0,0,0,0,0,0
335,1765223627143,6,-11,-1,0,0,0,0,0
336,1765223627326,6,-8,1,0,0,0,0,0
337,1765223627576,7,-11,0,0,0,0,0,0
338,1765223627677,5,-9,0,0,0,0,0,0
339,1765223627760,7,-10,-1,0,0,0,0,0
340,1765223627992,6,-10,0,0,0,0,0,0
341,1765223628042,7,-9,-2,0,0,0,0,0
342,1765223628410,6,-10,0,0,0,0,0,0
343,1765223628510,7,-11,-1,0,0,0,0,0
344,1765223628693,6,-10,-1,0,0,0,0,0
345,1765223628793,6,-10,0,0,0,0,0,0
346,1765223628910,4,-10,0,0,0,0,0,0
347,1765223629210,5,-8,-1,0,0,0,0,0
348,1765223629262,7,-10,0,0,0,0,0,0
349,1765223629593,7,-10,1,0,0,0,0,0
350,1765223629677,7,-10,-1,0,0,0,0,0
351,1765223629875,5,-11,-2,0,0,0,0,0
352,1765223630009,7,-11,-1,0,0,0,0,0
353,1765224046637,8,-12,0,0,0,0,0,0
354,1765224046820,8,-11,-256,0,0,0,0,0
355,1765224046919,8,-11,0,0,0,0,0,0
356,1765224047154,7,-11,-1,0,0,0,0,0
357,1765224047221,7,-11,-1,0,0,0,0,0
358,1765224047471,9,-10,0,0,0,0,0,0
359,1765224047554,9,-12,-1,0,0,0,0,0
360,1765224047789,7,-12,-2,0,0,0,0,0
361,1765224047871,9,-10,-1,0,0,0,0,0
362,1765224048021,7,-11,0,0,0,0,0,0
363,1765224048204,7,-11,-1,0,0,0,0,0
364,1765224048422,7,-11,-1,0,0,0,0,0
365,1765224048504,10,-11,-1,0,0,0,0,0
366,1765224048687,7,-11,-2,0,0,0,0,0
367,1765224048954,8,-11,-2,0,0,0,0,0
368,1765224049171,6,-11,-2,0,0,0,0,0
369,1765224049321,8,-11,-1,0,0,0,0,0
370,1765224049421,8,-11,0,0,0,0,0,0
371,1765224049621,8,-13,0,0,0,0,0,0
372,1765224049804,9,-12,0,0,0,0,0,0
373,1765224049954,7,-11,-1,0,0,0,0,0
374,1765224050088,8,-10,-1,0,0,0,0,0
375,1765224050270,8,-12,-1,0,0,0,0,0
376,1765224050371,9,-11,0,0,0,0,0,0
377,1765224050505,5,-11,-2,0,0,0,0,0
378,1765224050821,7,-11,-1,0,0,0,0,0
379,1765224050920,7,-11,-1,0,0,0,0,0
380,1765224051237,8,-11,-1,0,0,0,0,0
381,1765224051354,7,-11,-2,0,0,0,0,0
382,1765224051554,8,-10,-1,0,0,0,0,0
383,1765224051870,9,-11,-1,0,0,0,0,0
384,1765224051986,8,-12,-1,0,0,0,0,0
385,1765224052188,7,-10,0,0,0,0,0,0
386,1765224052504,7,-11,-2,0,0,0,0,0
387,1765224052721,9,-10,-1,0,0,0,0,0
388,1765224052821,8,-10,-1,0,0,0,0,0
389,1765224053103,7,-11,-1,0,0,0,0,0
390,1765224053170,8,-10,0,0,0,0,0,0
391,1765224053454,9,-10,0,0,0,0,0,0
392,1765224053504,7,-11,-2,0,0,0,0,0
393,1765224053620,7,-10,-1,0,0,0,0,0
394,1765224053754,7,-11,-1,0,0,0,0,0
395,1765224053903,8,-12,0,0,0,0,0,0
396,1765224054404,6,-11,-2,0,0,0,0,0
397,1765224054521,9,-11,-1,0,0,0,0,0
398,1765224054686,7,-12,-1,0,0,0,0,0
399,1765224054786,7,-10,-1,0,0,0,0,0
400,1765224054870,8,-10,-1,0,0,0,0,0
401,1765224055088,7,-11,-1,0,0,0,0,0
402,1765224055188,8,-11,-256,0,0,0,0,0
403,1765224055321,8,-12,0,0,0,0,0,0
404,1765224055487,8,-11,1,0,0,0,0,0
405,1765224055621,10,-10,-1,0,0,0,0,0
406,1765224055771,7,-11,0,0,0,0,0,0
407,1765224056021,9,-9,0,0,0,0,0,0
408,1765224056270,8,-11,-1,0,0,0,0,0
409,1765224056404,8,-10,-1,0,0,0,0,0
410,1765224056521,6,-12,-2,0,0,0,0,0
411,1765224056620,8,-11,0,0,0,0,0,0
412,1765224056821,8,-10,0,0,0,0,0,0
413,1765224056887,7,-11,-1,0,0,0,0,0
414,1765224057137,7,-10,1,0,0,0,0,0
415,1765224057220,7,-11,-2,0,0,0,0,0
416,1765224057303,8,-11,-2,0,0,0,0,0
417,1765224057521,7,-11,-2,0,0,0,0,0
418,1765224057588,7,-11,0,0,0,0,0,0
419,1765224057821,9,-10,0,0,0,0,0,0
420,1765224058070,8,-12,0,0,0,0,0,0
421,1765224058236,7,-12,-1,0,0,0,0,0
422,1765224058487,7,-10,0,0,0,0,0,0
423,1765224058588,7,-11,-1,0,0,0,0,0
424,1765224058787,7,-11,0,0,0,0,0,0
425,1765224058937,7,-10,-2,0,0,0,0,0
426,1765224059003,7,-11,-1,0,0,0,0,0
427,1765224059204,7,-11,-1,0,0,0,0,0
428,1765224059287,7,-12,-1,0,0,0,0,0
429,1765224059471,8,-11,1,0,0,0,0,0
430,1765224059704,8,-11,-1,0,0,0,0,0
431,1765224059937,9,-11,0,0,0,0,0,0
432,1765224060052,8,-11,0,0,0,0,0,0
433,1765224060187,9,-10,0,0,0,0,0,0
434,1765224060271,7,-11,-1,0,0,0,0,0
435,1765224060471,7,-12,-1,0,0,0,0,0
436,1765224060552,7,-10,-1,0,0,0,0,0
437,1765224060803,7,-12,-1,0,0,0,0,0
438,1765224060971,8,-10,0,0,0,0,0,0
439,1765224061154,7,-10,-1,0,0,0,0,0
440,1765224061271,9,-11,0,0,0,0,0,0
441,1765224061420,7,-11,-1,0,0,0,0,0
442,1765224061704,8,-11,255,0,0,0,0,0
443,1765224061870,7,-11,255,0,0,0,0,0
444,1765224062087,6,-11,-1,0,0,0,0,0
445,1765224062170,7,-12,-1,0,0,0,0,0
446,1765224062404,7,-11,-1,0,0,0,0,0
447,1765224062554,6,-11,-2,0,0,0,0,0
448,1765224062787,7,-11,0,0,0,0,0,0
449,1765224062886,6,-11,-1,0,0,0,0,0
450,1765224063120,8,-11,-1,0,0,0,0,0
451,1765224063271,8,-11,-1,0,0,0,0,0
452,1765224063519,7,-11,0,0,0,0,0,0
453,1765224063637,7,-11,-2,0,0,0,0,0
454,1765224064019,7,-12,0,0,0,0,0,0
455,1765224064087,5,-10,-2,0,0,0,0,0
456,1765224064355,8,-11,0,0,0,0,0,0
457,1765224064504,7,-12,-1,0,0,0,0,0
458,1765224064687,7,-11,-3,0,0,0,0,0
459,1765224064787,8,-11,1,0,0,0,0,0
460,1765224065187,7,-11,-1,0,0,0,0,0
461,1765224065436,8,-10,-1,0,0,0,0,0
462,1765224065537,7,-12,0,0,0,0,0,0
463,1765224065754,8,-11,-1,0,0,0,0,0
464,1765224065937,9,-12,0,0,0,0,0,0
465,1765224066154,9,-12,-2,0,0,0,0,0
466,1765224066270,8,-11,-2,0,0,0,0,0
467,1765224066354,6,-11,-1,0,0,0,0,0
468,1765224066420,8,-11,-1,0,0,0,0,0
469,1765224066654,7,-10,0,0,0,0,0,0
470,1765224066920,7,-11,-1,0,0,0,0,0
471,1765224067086,7,-11,0,0,0,0,0,0
472,1765224067172,9,-11,0,0,0,0,0,0
473,1765224067385,8,-11,-2,0,0,0,0,0
474,1765224067504,9,-12,0,0,0,0,0,0
475,1765224067670,7,-11,-1,0,0,0,0,0
476,1765224067854,8,-12,-1,0,0,0,0,0
477,1765224068054,6,-11,-2,0,0,0,0,0
478,1765224068236,8,-11,-1,0,0,0,0,0
479,1765224068321,6,-11,-1,0,0,0,0,0
480,1765224068604,7,-12,-1,0,0,0,0,0
481,1765224068986,8,-11,-1,0,0,0,0,0
482,1765224069120,7,-11,-1,0,0,0,0,0
483,1765224069287,7,-11,0,0,0,0,0,0
484,1765224069454,7,-11,-1,0,0,0,0,0
485,1765224069685,7,-11,-2,0,0,0,0,0
486,1765224069821,-1,-12,0,0,0,0,0,0
487,1765224070003,-30,-6,12,0,0,0,0,0
488,1765224070070,-1,-11,-8,0,0,0,0,0
489,1765224070137,24,-8,3,0,0,0,0,0
490,1765224070438,11,-19,-22,0,0,0,0,0
491,1765224070619,10,-20,-11,0,0,0,0,0
492,1765224070821,9,-8,23,0,0,0,0,0
493,1765224070922,53,-25,12,0,0,0,0,0
494,1765224071153,-30,-5,23,0,0,0,0,0
495,1765224071336,-8,-5,22,0,0,0,0,0
496,1765224071554,5,-9,-12,0,0,0,0,0
497,1765224071688,-45,-17,6,0,0,0,0,0
498,1765224071936,39,-24,29,0,0,0,0,0
499,1765224072221,-31,-12,-38,0,0,0,0,0
500,1765224072320,16,-38,10,0,0,0,0,0
501,1765224072535,-23,-147,31,0,0,0,0,0
502,1765224072702,40,-138,35,0,0,0,0,0
503,1765224072971,-38,-130,-16,0,0,0,0,0
504,1765224073037,110,9,6,0,0,0,0,0
505,1765224073336,-55,-45,-23,0,0,0,0,0
506,1765224073421,-11,-7,-26,0,0,0,0,0
507,1765224073737,44,4,-63,0,0,0,0,0
508,1765224073804,-38,-28,-88,0,0,0,0,0
509,1765224073904,43,-56,4,0,0,0,0,0
510,1765224074121,7,16,2,0,0,0,0,0
511,1765224074254,61,-69,-2,0,0,0,0,0
512,1765224074537,-53,-37,29,0,0,0,0,0
513,1765224074720,45,-49,9,0,0,0,0,0
514,1765224074887,-29,-22,23,0,0,0,0,0
515,1765224075120,-81,-23,48,0,0,0,0,0
516,1765224075304,-11,-9,-9,0,0,0,0,0
517,1765224075604,-54,-20,23,0,0,0,0,0
518,1765224075637,-47,5,-56,0,0,0,0,0
519,1765224075754,55,-41,-58,0,0,0,0,0
520,1765224076003,14,-18,23,0,0,0,0,0
521,1765224076070,12,-30,9,0,0,0,0,0
522,1765224076437,-31,-19,13,0,0,0,0,0
523,1765224076520,11,-5,37,0,0,0,0,0
524,1765224076736,-32,0,-41,0,0,0,0,0
525,1765224077204,45,-2,39,0,0,0,0,0
526,1765224077370,41,33,0,0,0,0,0,0
527,1765224077587,24,10,4,0,0,0,0,0
528,1765224077702,2,9,3,0,0,0,0,0
529,1765224077936,74,15,-1,0,0,0,0,0
530,1765224078171,-28,36,-19,0,0,0,0,0
531,1765224078335,8,25,-6,0,0,0,0,0
532,1765224078521,25,16,21,0,0,0,0,0
533,1765224078755,-31,49,-31,0,0,0,0,0
534,1765224079036,7,23,2,0,0,0,0,0
535,1765224079120,20,21,10,0,0,0,0,0
536,1765224079337,25,16,5,0,0,0,0,0
537,1765224079488,36,6,-24,0,0,0,0,0
538,1765224079771,36,-3,13,0,0,0,0,0
539,1765224079854,17,18,12,0,0,0,0,0
540,1765224080071,32,1,28,0,0,0,0,0
541,1765224080220,-40,29,-3,0,0,0,0,0
542,1765224080519,37,25,-17,0,0,0,0,0
543,1765224080687,19,-6,-4,0,0,0,0,0
544,1765224080919,14,-12,-17,0,0,0,0,0
545,1765224080986,5,14,-21,0,0,0,0,0
546,1765224081253,15,-4,-16,0,0,0,0,0
547,1765224081436,19,2,4,0,0,0,0,0
548,1765224081670,46,-15,1,0,0,0,0,0
549,1765224081753,11,9,-15,0,0,0,0,0
550,1765224082036,19,243,-1,0,0,0,0,0
551,1765224082271,26,11,4,0,0,0,0,0
552,1765224082436,23,4,24,0,0,0,0,0
553,1765224082538,-26,0,-9,0,0,0,0,0
554,1765224082607,26,7,-4,0,0,0,0,0
555,1765224082823,16,17,-4,0,0,0,0,0
556,1765224082987,-5,2,-3,0,0,0,0,0
557,1765224083236,11,-8,-5,0,0,0,0,0
558,1765224083303,0,8,-7,0,0,0,0,0
559,1765224083535,-16,22,1,0,0,0,0,0
560,1765224083654,1,-5,-2,0,0,0,0,0
561,1765224083820,3,1,13,0,0,0,0,0
562,1765224084054,13,3,12,0,0,0,0,0
563,1765224084286,-1,5,-3,0,0,0,0,0
564,1765224084436,28,1,3,0,0,0,0,0
565,1765224084570,8,0,10,0,0,0,0,0
566,1765224084770,3,-12,4,0,0,0,0,0
567,1765224085171,-6,-2,-2,0,0,0,0,0
568,1765224085271,17,-8,-2,0,0,0,0,0
569,1765224085470,11,-11,13,0,0,0,0,0
570,1765224085620,1,-15,-6,0,0,0,0,0
571,1765224085937,2,-7,-10,0,0,0,0,0
572,1765224086020,8,-17,-2,0,0,0,0,0
573,1765224086187,11,-13,-2,0,0,0,0,0
574,1765224086387,4,-14,-3,0,0,0,0,0
575,1765224086520,5,-8,-2,0,0,0,0,0
576,1765224086720,10,-14,-2,0,0,0,0,0
577,1765224086854,7,-10,1,0,0,0,0,0
578,1765224087054,6,-12,-1,0,0,0,0,0
579,1765224087153,11,-11,-1,0,0,0,0,0
580,1765224087537,6,-9,-1,0,0,0,0,0
581,1765224087753,7,-13,-1,0,0,0,0,0
582,1765224087903,9,-12,0,0,0,0,0,0
583,1765224088036,17,-13,0,0,0,0,0,0
584,1765224088204,24,-13,-4,0,0,0,0,0
585,1765224088338,-2,-10,-2,0,0,0,0,0
586,1765224088737,6,-11,0,0,0,0,0,0
587,1765224088837,7,-10,1,0,0,0,0,0
588,1765224089054,6,-15,0,0,0,0,0,0
589,1765224089136,7,-8,-2,0,0,0,0,0
590,1765224089187,5,-10,0,0,0,0,0,0
591,1765224089254,8,-10,0,0,0,0,0,0
592,1765224089570,7,-11,0,0,0,0,0,0
593,1765224089669,9,-10,-1,0,0,0,0,0
594,1765224089788,7,-10,0,0,0,0,0,0
595,1765224090002,8,-10,-1,0,0,0,0,0
596,1765224090104,10,-13,-2,0,0,0,0,0
597,1765224090353,8,-10,-1,0,0,0,0,0
598,1765224090503,9,-9,1,0,0,0,0,0
599,1765224090686,7,-11,0,0,0,0,0,0
600,1765224090787,7,-8,-1,0,0,0,0,0
601,1765224091121,8,-11,-1,0,0,0,0,0
602,1765224091353,7,-13,-2,0,0,0,0,0
603,1765224091555,11,-15,-2,0,0,0,0,0
604,1765224091687,10,-11,-1,0,0,0,0,0
605,1765224091803,8,-11,-2,0,0,0,0,0
606,1765224091986,6,-13,-1,0,0,0,0,0
607,1765224092203,8,-11,0,0,0,0,0,0
608,1765224092337,8,-10,-1,0,0,0,0,0
609,1765224092453,8,-12,-1,0,0,0,0,0
610,1765224092653,6,-10,-1,0,0,0,0,0
611,1765224092753,6,-10,0,0,0,0,0,0
612,1765224092887,8,-11,-1,0,0,0,0,0
613,1765224093188,8,-11,-1,0,0,0,0,0
614,1765224093269,8,-10,-1,0,0,0,0,0
615,1765224093604,5,-9,-1,0,0,0,0,0
616,1765224093670,7,-10,-1,0,0,0,0,0
617,1765224093886,8,-12,-1,0,0,0,0,0
618,1765224094003,6,-12,-2,0,0,0,0,0
619,1765224094138,6,-9,0,0,0,0,0,0
620,1765224094370,8,-11,-1,0,0,0,0,0
621,1765224094420,7,-12,-1,0,0,0,0,0
622,1765224094786,8,-11,0,0,0,0,0,0
623,1765224094971,8,-10,-2,0,0,0,0,0
624,1765224095154,7,-9,0,0,0,0,0,0
625,1765224095320,7,-12,-1,0,0,0,0,0
626,1765224095504,8,-11,-1,0,0,0,0,0
627,1765224095603,8,-10,-1,0,0,0,0,0
628,1765224096037,9,-11,-1,0,0,0,0,0
629,1765224096237,7,-12,-1,0,0,0,0,0
630,1765224096337,7,-12,-1,0,0,0,0,0
631,1765224096588,7,-11,-1,0,0,0,0,0
632,1765224096837,8,-11,-1,0,0,0,0,0
633,1765224097037,7,-11,-1,0,0,0,0,0
634,1765224097137,8,-11,-1,0,0,0,0,0
635,1765224097220,6,-9,0,0,0,0,0,0
636,1765224097436,6,-11,254,0,0,0,0,0
637,1765224097669,9,-11,-2,0,0,0,0,0
638,1765224097918,7,-12,-1,0,0,0,0,0
639,1765224098053,9,-12,-1,0,0,0,0,0
640,1765224098203,6,-11,0,0,0,0,0,0
641,1765224098570,6,-11,0,0,0,0,0,0
642,1765224098671,8,-10,-1,0,0,0,0,0
643,1765224098903,8,-11,0,0,0,0,0,0
644,1765224098954,6,-11,-2,0,0,0,0,0
645,1765224099071,8,-11,-1,0,0,0,0,0
646,1765224099352,9,-11,0,0,0,0,0,0
647,1765224099471,7,-11,-2,0,0,0,0,0
648,1765224099753,8,-11,-1,0,0,0,0,0
649,1765224099804,8,-11,0,0,0,0,0,0
650,1765224100121,8,-12,0,0,0,0,0,0
651,1765224100320,6,-12,1,0,0,0,0,0
652,1765224100521,7,-12,0,0,0,0,0,0
653,1765224100703,7,-10,0,0,0,0,0,0
654,1765224100920,8,-11,0,0,0,0,0,0
655,1765224101137,8,-11,-1,0,0,0,0,0
656,1765224101271,7,-12,0,0,0,0,0,0
657,1765224101520,7,-12,-1,0,0,0,0,0
658,1765224101654,7,-10,0,0,0,0,0,0
659,1765224101970,8,-11,-1,0,0,0,0,0
660,1765224102136,7,-10,-1,0,0,0,0,0
661,1765224102354,6,-11,-1,0,0,0,0,0
662,1765224102472,6,-9,0,0,0,0,0,0
663,1765224102703,6,-10,-1,0,0,0,0,0
664,1765224102887,6,-11,-1,0,0,0,0,0
665,1765224103120,6,-10,-1,0,0,0,0,0
666,1765224103220,9,-12,-1,0,0,0,0,0
667,1765224103521,8,-11,-1,0,0,0,0,0
668,1765224103788,6,-11,-1,0,0,0,0,0
669,1765224104004,8,-10,-1,0,0,0,0,0
670,1765224104154,7,-10,0,0,0,0,0,0
671,1765224104287,6,-10,0,0,0,0,0,0
672,1765224104537,10,-12,0,0,0,0,0,0
673,1765224104736,6,-10,-1,0,0,0,0,0
674,1765224104919,7,-11,-1,0,0,0,0,0
675,1765224105037,8,-11,0,0,0,0,0,0
676,1765224105204,7,-10,0,0,0,0,0,0
677,1765224105487,8,-11,-1,0,0,0,0,0
678,1765224105686,7,-10,-1,0,0,0,0,0
679,1765224105869,7,-10,-1,0,0,0,0,0
680,1765224106004,7,-10,-1,0,0,0,0,0
681,1765224106203,6,-11,-1,0,0,0,0,0
682,1765224106436,7,-9,-1,0,0,0,0,0
683,1765224106604,7,-9,-1,0,0,0,0,0
684,1765224106786,8,-11,-1,0,0,0,0,0
685,1765224107319,7,-11,-1,0,0,0,0,0
686,1765224107371,8,-11,0,0,0,0,0,0
687,1765224107620,7,-10,-1,0,0,0,0,0
688,1765224107687,7,-12,0,0,0,0,0,0
689,1765224107787,8,-9,-1,0,0,0,0,0
690,1765224108070,7,-10,-1,0,0,0,0,0
691,1765224108187,8,-10,-1,0,0,0,0,0
692,1765224108453,8,-10,-1,0,0,0,0,0
693,1765224108520,6,-11,-1,0,0,0,0,0
694,1765224108837,8,-10,0,0,0,0,0,0
695,1765224108971,7,-11,0,0,0,0,0,0
696,1765224109204,6,-10,-1,0,0,0,0,0
697,1765224109319,8,-11,-1,0,0,0,0,0
698,1765224109586,8,-10,-1,0,0,0,0,0
699,1765224109753,7,-12,0,0,0,0,0,0
700,1765224109952,7,-10,-1,0,0,0,0,0
701,1765224110137,9,-11,-1,0,0,0,0,0
702,1765224110354,8,-10,0,0,0,0,0,0
703,1765224110670,9,-10,0,0,0,0,0,0
704,1765224110820,8,-13,-1,0,0,0,0,0
705,1765224111035,4,-12,0,0,0,0,0,0
706,1765224111119,9,-11,0,0,0,0,0,0
707,1765224111520,9,-13,-1,0,0,0,0,0
708,1765224111720,6,-10,-1,0,0,0,0,0
709,1765224111819,9,-10,-1,0,0,0,0,0
710,1765224112020,8,-11,0,0,0,0,0,0
711,1765224112285,7,-11,0,0,0,0,0,0
712,1765224112520,9,-10,0,0,0,0,0,0
713,1765224112686,8,-11,-1,0,0,0,0,0
714,1765224149903,9,-9,1,0,0,0,0,0
715,1765224150086,8,-12,-1,0,0,0,0,0
716,1765224150201,8,-10,-2,0,0,0,0,0
717,1765224150419,8,-10,-1,0,0,0,0,0
718,1765224150560,9,-13,0,0,0,0,0,0
719,1765224150754,8,-10,-1,0,0,0,0,0
720,1765224150820,8,-11,0,0,0,0,0,0
721,1765224151052,6,-11,0,0,0,0,0,0
722,1765224151170,8,-10,255,0,0,0,0,0
723,1765224151337,6,-10,0,0,0,0,0,0
724,1765224151469,7,-10,0,0,0,0,0,0
725,1765224151703,7,-10,-1,0,0,0,0,0
726,1765224151786,7,-11,-1,0,0,0,0,0
727,1765224152020,6,-11,-1,0,0,0,0,0
728,1765224152253,8,-11,-1,0,0,0,0,0
729,1765224152470,7,-10,-2,0,0,0,0,0
730,1765224152602,6,-10,-1,0,0,0,0,0
731,1765224152801,8,-11,-1,0,0,0,0,0
732,1765224152935,7,-12,0,0,0,0,0,0
733,1765224153303,7,-11,1,0,0,0,0,0
734,1765224153469,7,-10,-1,0,0,0,0,0
735,1765224153602,8,-11,-1,0,0,0,0,0
736,1765224154053,8,-9,-1,0,0,0,0,0
737,1765224154203,7,-10,-2,0,0,0,0,0
738,1765224154336,8,-10,-1,0,0,0,0,0
739,1765224154386,10,-9,-1,0,0,0,0,0
740,1765224154486,6,-11,0,0,0,0,0,0
741,1765224154736,7,-10,0,0,0,0,0,0
742,1765224154851,7,-9,-1,0,0,0,0,0
743,1765224155069,5,-11,-1,0,0,0,0,0
744,1765224155186,8,-10,0,0,0,0,0,0
745,1765224155436,7,-11,0,0,0,0,0,0
746,1765224155869,6,-12,-1,0,0,0,0,0
747,1765224155936,9,-10,-1,0,0,0,0,0
748,1765224156169,9,-11,-1,0,0,0,0,0
749,1765224156337,7,-11,0,0,0,0,0,0
750,1765224156551,7,-10,-1,0,0,0,0,0
751,1765224156669,9,-10,0,0,0,0,0,0
752,1765224157035,6,-11,0,0,0,0,0,0
753,1765224157219,7,-10,0,0,0,0,0,0
754,1765224157401,9,-11,-1,0,0,0,0,0
755,1765224157469,7,-11,-1,0,0,0,0,0
756,1765224157553,9,-11,-1,0,0,0,0,0
757,1765224157786,6,-12,0,0,0,0,0,0
758,1765224157886,8,-11,-2,0,0,0,0,0
759,1765224158253,7,-11,-1,0,0,0,0,0
760,1765224158402,9,-11,-2,0,0,0,0,0
761,1765224158553,8,-10,-1,0,0,0,0,0
762,1765224158719,6,-9,-1,0,0,0,0,0
763,1765224158886,7,-11,1,0,0,0,0,0
764,1765224159119,8,-11,-1,0,0,0,0,0
765,1765224159286,7,-10,0,0,0,0,0,0
766,1765224159419,7,-11,0,0,0,0,0,0
767,1765224159569,7,-10,255,0,0,0,0,0
768,1765224159720,7,-10,-1,0,0,0,0,0
769,1765224160089,7,-11,0,0,0,0,0,0
770,1765224160169,7,-9,-1,0,0,0,0,0
771,1765224160403,6,-11,0,0,0,0,0,0
772,1765224160469,7,-12,0,0,0,0,0,0
773,1765224160601,8,-11,0,0,0,0,0,0
774,1765224160901,7,-10,-1,0,0,0,0,0
775,1765224161019,7,-11,-1,0,0,0,0,0
776,1765224161286,7,-11,-1,0,0,0,0,0
777,1765224161387,8,-10,-1,0,0,0,0,0
778,1765224161587,7,-11,0,0,0,0,0,0
779,1765224161718,7,-9,-1,0,0,0,0,0
780,1765224161836,8,-11,0,0,0,0,0,0
781,1765224161987,7,-10,-1,0,0,0,0,0
782,1765224162137,8,-11,0,0,0,0,0,0
783,1765224162286,8,-12,-1,0,0,0,0,0
784,1765224162550,7,-11,0,0,0,0,0,0
785,1765224162769,8,-10,-1,0,0,0,0,0
786,1765224162920,8,-10,0,0,0,0,0,0
787,1765224163018,7,-9,-1,0,0,0,0,0
788,1765224163103,8,-11,-1,0,0,0,0,0
789,1765224163319,8,-11,-1,0,0,0,0,0
790,1765224163384,8,-10,-1,0,0,0,0,0
791,1765224163670,8,-11,0,0,0,0,0,0
792,1765224163787,6,-11,-1,0,0,0,0,0
793,1765224163953,7,-10,-1,0,0,0,0,0
794,1765224164086,6,-11,0,0,0,0,0,0
795,1765224164203,6,-10,-1,0,0,0,0,0
796,1765224164301,8,-11,0,0,0,0,0,0
797,1765224164552,7,-11,-1,0,0,0,0,0
798,1765224164736,8,-11,-2,0,0,0,0,0
799,1765224164968,7,-11,0,0,0,0,0,0
800,1765224165053,5,-10,-1,0,0,0,0,0
801,1765224165253,6,-9,255,0,0,0,0,0
802,1765224165452,7,-10,0,0,0,0,0,0
803,1765224165653,7,-9,1,0,0,0,0,0
804,1765224165770,7,-10,-1,0,0,0,0,0
805,1765224165934,7,-11,-1,0,0,0,0,0
806,1765224166169,5,-9,-1,0,0,0,0,0
807,1765224166402,7,-11,-2,0,0,0,0,0
808,1765224166535,7,-10,-1,0,0,0,0,0
809,1765224166621,8,-10,0,0,0,0,0,0
810,1765224166687,6,-11,-1,0,0,0,0,0
811,1765224166902,6,-12,-1,0,0,0,0,0
812,1765224166985,6,-10,-1,0,0,0,0,0
813,1765224167235,7,-10,-1,0,0,0,0,0
814,1765224167421,7,-11,-1,0,0,0,0,0
815,1765224167568,5,-10,0,0,0,0,0,0
816,1765224167702,7,-11,-1,0,0,0,0,0
817,1765224167818,6,-10,-2,0,0,0,0,0
818,1765224167901,6,-12,0,0,0,0,0,0
819,1765224168086,8,-10,0,0,0,0,0,0
820,1765224168302,6,-10,0,0,0,0,0,0
821,1765224168552,6,-10,-1,0,0,0,0,0
822,1765224168653,8,-10,1,0,0,0,0,0
823,1765224168853,7,-11,-2,0,0,0,0,0
824,1765224168953,6,-11,-1,0,0,0,0,0
825,1765224169070,7,-11,-2,0,0,0,0,0
826,1765224169202,9,-12,-1,0,0,0,0,0
827,1765224169403,4,-11,0,0,0,0,0,0
828,1765224169518,7,-11,0,0,0,0,0,0
829,1765224169653,6,-10,-1,0,0,0,0,0
830,1765224169819,9,-10,0,0,0,0,0,0
831,1765224170136,8,-11,-2,0,0,0,0,0
832,1765224170202,7,-11,-2,0,0,0,0,0
833,1765224170253,6,-10,-1,0,0,0,0,0
834,1765224170370,6,-10,1,0,0,0,0,0
835,1765224170554,8,-10,-1,0,0,0,0,0
836,1765224170719,7,-11,-1,0,0,0,0,0
837,1765224170936,7,-11,0,0,0,0,0,0
838,1765224171051,8,-11,0,0,0,0,0,0
839,1765224171268,7,-10,0,0,0,0,0,0
840,1765224171386,7,-10,0,0,0,0,0,0
841,1765224171619,8,-11,0,0,0,0,0,0
842,1765224171836,6,-12,0,0,0,0,0,0
843,1765224172036,8,-11,0,0,0,0,0,0
844,1765224172169,6,-10,0,0,0,0,0,0
845,1765224172435,7,-10,-2,0,0,0,0,0
846,1765224172468,6,-10,-2,0,0,0,0,0
847,1765224172870,7,-10,-2,0,0,0,0,0
848,1765224173037,8,-11,-256,0,0,0,0,0
849,1765224173170,8,-11,-2,0,0,0,0,0
850,1765224173619,7,-10,-1,0,0,0,0,0
851,1765224173786,8,-11,0,0,0,0,0,0
852,1765224173902,6,-11,0,0,0,0,0,0
853,1765224174002,7,-11,-1,0,0,0,0,0
854,1765224174086,7,-10,-2,0,0,0,0,0
855,1765224174335,6,-9,-1,0,0,0,0,0
856,1765224174469,7,-10,-1,0,0,0,0,0
857,1765224174669,6,-10,1,0,0,0,0,0
858,1765224174786,7,-11,-256,0,0,0,0,0
859,1765224175002,7,-11,0,0,0,0,0,0
860,1765224175453,7,-9,-1,0,0,0,0,0
861,1765224175536,7,-12,-1,0,0,0,0,0
862,1765224175770,7,-9,0,0,0,0,0,0
863,1765224175902,7,-10,-1,0,0,0,0,0
864,1765224176086,8,-11,0,0,0,0,0,0
865,1765224176219,8,-11,0,0,0,0,0,0
866,1765224176436,7,-10,-1,0,0,0,0,0
867,1765224176586,9,-9,0,0,0,0,0,0
868,1765224176719,7,-10,0,0,0,0,0,0
869,1765224176971,7,-10,0,0,0,0,0,0
870,1765224177103,7,-9,-1,0,0,0,0,0
871,1765224177336,7,-11,-1,0,0,0,0,0
872,1765224177436,6,-12,0,0,0,0,0,0
873,1765224177686,8,-10,0,0,0,0,0,0
874,1765224177819,8,-11,-1,0,0,0,0,0
875,1765224178053,7,-10,0,0,0,0,0,0
876,1765224178152,6,-10,0,0,0,0,0,0
877,1765224178369,7,-10,0,0,0,0,0,0
878,1765224178503,6,-10,-1,0,0,0,0,0
879,1765224178820,7,-10,0,0,0,0,0,0
880,1765224178953,9,-11,-2,0,0,0,0,0
881,1765224179103,6,-10,1,0,0,0,0,0
882,1765224179236,5,-10,-1,0,0,0,0,0
883,1765224179486,6,-10,-2,0,0,0,0,0
884,1765224179619,7,-10,0,0,0,0,0,0
885,1765224179703,6,-11,-1,0,0,0,0,0
886,1765224179919,7,-9,-2,0,0,0,0,0
887,1765224180035,8,-11,-1,0,0,0,0,0
888,1765224180219,7,-10,0,0,0,0,0,0
889,1765224180403,7,-10,-1,0,0,0,0,0
890,1765224180653,7,-11,0,0,0,0,0,0
891,1765224180769,8,-11,0,0,0,0,0,0
892,1765224180985,7,-11,-2,0,0,0,0,0
893,1765224181136,6,-11,-1,0,0,0,0,0
894,1765224181369,7,-11,0,0,0,0,0,0
895,1765224181503,7,-10,-1,0,0,0,0,0
896,1765224181652,5,-10,0,0,0,0,0,0
897,1765224181803,6,-10,-1,0,0,0,0,0
898,1765224182252,6,-10,-1,0,0,0,0,0
899,1765224182403,8,-10,-1,0,0,0,0,0
900,1765224182536,8,-11,0,0,0,0,0,0
901,1765224182952,7,-10,0,0,0,0,0,0
902,1765224183086,7,-11,0,0,0,0,0,0
903,1765224183253,8,-11,-2,0,0,0,0,0
904,1765224183366,8,-11,-1,0,0,0,0,0
905,1765224183384,6,-9,-1,0,0,0,0,0
906,1765224183704,7,-10,-1,0,0,0,0,0
907,1765224183869,7,-10,0,0,0,0,0,0
908,1765224184069,7,-11,-1,0,0,0,0,0
909,1765224184169,7,-10,-2,0,0,0,0,0
910,1765224184369,7,-11,-1,0,0,0,0,0
911,1765224184786,9,-12,-1,0,0,0,0,0
912,1765224184853,6,-8,-2,0,0,0,0,0
913,1765224185086,9,-9,-1,0,0,0,0,0
914,1765224185219,7,-10,-1,0,0,0,0,0
915,1765224185535,5,-11,1,0,0,0,0,0
916,1765224185619,7,-12,-256,0,0,0,0,0
917,1765224185870,7,-11,-1,0,0,0,0,0
918,1765224185970,6,-12,1,0,0,0,0,0
919,1765224186235,9,-9,-3,0,0,0,0,0
920,1765224186319,5,-10,0,0,0,0,0,0
921,1765224186569,5,1,-4,0,0,0,0,0
922,1765224186686,-13,-37,8,0,0,0,0,0
923,1765224186953,-31,-28,13,0,0,0,0,0
924,1765224187136,17,-5,-1,0,0,0,0,0
925,1765224187369,-4,-50,-13,0,0,0,0,0
926,1765224187453,18,-49,-6,0,0,0,0,0
927,1765224187669,14,-47,4,0,0,0,0,0
928,1765224187702,5,-197,11,0,0,0,0,0
929,1765224187819,30,-180,11,0,0,0,0,0
930,1765224188103,25,-206,16,0,0,0,0,0
931,1765224188186,18,-238,16,0,0,0,0,0
932,1765224188419,20,-325,25,0,0,0,0,0
933,1765224188536,27,-323,1,0,0,0,0,0
934,1765224188853,8,-346,30,0,0,0,0,0
935,1765224188986,74,-409,22,0,0,0,0,0
936,1765224189203,6,-382,0,0,0,0,0,0
937,1765224189269,18,-412,21,0,0,0,0,0
938,1765224189552,6,-413,21,0,0,0,0,0
939,1765224189686,30,-301,39,0,0,0,0,0
940,1765224189936,65,-255,19,0,0,0,0,0
941,1765224189985,37,-220,-26,0,0,0,0,0
942,1765224190219,-92,-16,78,0,0,0,0,0
943,1765224190452,-126,-35,-46,0,0,0,0,0
944,1765224190686,43,-57,93,0,0,0,0,0
945,1765224190836,31,-126,77,0,0,0,0,0
946,1765224191052,104,-146,20,0,0,0,0,0
947,1765224191136,30,-149,50,0,0,0,0,0
948,1765224191402,24,-193,-2,0,0,0,0,0
949,1765224191553,22,-233,11,0,0,0,0,0
950,1765224191753,21,-267,19,0,0,0,0,0
951,1765224191852,-20,-250,16,0,0,0,0,0
952,1765224192285,6,-300,47,0,0,0,0,0
953,1765224192503,60,-297,-1,0,0,0,0,0
954,1765224192571,-19,-293,-2,0,0,0,0,0
955,1765224192801,11,-312,22,0,0,0,0,0
956,1765224192985,16,-298,6,0,0,0,0,0
957,1765224193185,23,-313,-3,0,0,0,0,0
958,1765224193286,13,-270,34,0,0,0,0,0
959,1765224193369,25,-144,-29,0,0,0,0,0
960,1765224193469,40,-141,26,0,0,0,0,0
961,1765224193669,14,-149,3,0,0,0,0,0
962,1765224194103,-8,-29,30,0,0,0,0,0
963,1765224194202,-19,-36,-5,0,0,0,0,0
964,1765224194402,45,-37,15,0,0,0,0,0
965,1765224194801,27,2,-10,0,0,0,0,0
966,1765224194902,-53,27,-7,0,0,0,0,0
967,1765224195102,-29,30,-25,0,0,0,0,0
968,1765224195253,-39,13,12,0,0,0,0,0
969,1765224195552,-1,-4,17,0,0,0,0,0
970,1765224195619,4,12,5,0,0,0,0,0
971,1765224195985,3,19,-5,0,0,0,0,0
972,1765224196103,-30,-6,-24,0,0,0,0,0
973,1765224196318,11,-2,-1,0,0,0,0,0
974,1765224196585,43,-92,-14,0,0,0,0,0
975,1765224196737,-14,19,46,0,0,0,0,0
976,1765224196869,40,-41,-67,0,0,0,0,0
977,1765224197153,19,-150,10,0,0,0,0,0
978,1765224197386,26,-137,0,0,0,0,0,0
979,1765224197535,-33,-95,-92,0,0,0,0,0
980,1765224197669,-34,-533,11,0,0,0,0,0
981,1765224197735,-10,-548,-33,0,0,0,0,0
982,1765224197952,8,-597,57,0,0,0,0,0
983,1765224198036,99,-637,-8,0,0,0,0,0
984,1765224198402,52,-917,0,0,0,0,0,0
985,1765224198486,-31,-911,27,0,0,0,0,0
986,1765224198684,172,-869,-9,0,0,0,0,0
987,1765224198802,201,-886,173,0,0,0,0,0
988,1765224198902,36,-833,48,0,0,0,0,0
989,1765224199185,2,-854,-3,0,0,0,0,0
990,1765224199369,142,-821,33,0,0,0,0,0
991,1765224199552,71,-763,31,0,0,0,0,0
992,1765224199619,26,-790,70,0,0,0,0,0
993,1765224199852,60,-697,-1,0,0,0,0,0
994,1765224199968,45,-714,58,0,0,0,0,0
995,1765224200102,19,-760,-1,0,0,0,0,0
996,1765224200302,30,-710,60,0,0,0,0,0
997,1765224200419,90,-695,50,0,0,0,0,0
998,1765224200602,15,-623,35,0,0,0,0,0
999,1765224200719,49,-487,3,0,0,0,0,0
1000,1765224201018,44,-478,46,0,0,0,0,0
1001,1765224201091,27,-435,0,0,0,0,0,0
1002,1765224201453,35,-455,64,0,0,0,0,0
1003,1765224201536,-66,-382,6,0,0,0,0,0
1004,1765224201784,19,-385,39,0,0,0,0,0
1005,1765224201934,23,-62,26,0,0,0,0,0
1006,1765224202069,24,-60,-4,0,0,0,0,0
1007,1765224202236,-6,-45,22,0,0,0,0,0
1008,1765224202402,19,-32,-41,0,0,0,0,0
1009,1765224202735,38,128,22,0,0,0,0,0
1010,1765224202935,-37,174,-20,0,0,0,0,0
1011,1765224203001,-7,217,-8,0,0,0,0,0
1012,1765224203151,14,268,0,0,0,0,0,0
1013,1765224203335,-37,297,-43,0,0,0,0,0
1014,1765224203435,-14,280,36,0,0,0,0,0
1015,1765224203717,23,266,-31,0,0,0,0,0
1016,1765224203852,-10,393,-63,0,0,0,0,0
1017,1765224203985,-13,345,-32,0,0,0,0,0
1018,1765224204152,-40,358,-31,0,0,0,0,0
1019,1765224204584,-14,412,13,0,0,0,0,0
1020,1765224204785,34,401,-63,0,0,0,0,0
1021,1765224204885,20,376,-80,0,0,0,0,0
1022,1765224205101,41,420,-51,0,0,0,0,0
1023,1765224205301,44,457,-28,0,0,0,0,0
1024,1765224205536,14,478,-38,0,0,0,0,0
1025,1765224205603,-14,498,-38,0,0,0,0,0
1026,1765224205669,-17,725,-52,0,0,0,0,0
1027,1765224205769,-88,756,-158,0,0,0,0,0
1028,1765224206052,-1,873,70,0,0,0,0,0
1029,1765224206419,7,886,-217,0,0,0,0,0
1030,1765224206552,53,837,-4,0,0,0,0,0
1031,1765224206719,11,837,-39,0,0,0,0,0
1032,1765224207136,26,485,39,0,0,0,0,0
1033,1765224207235,34,446,-21,0,0,0,0,0
1034,1765224207418,42,315,-23,0,0,0,0,0
1035,1765224207570,13,64,-44,0,0,0,0,0
1036,1765224207870,11,41,-66,0,0,0,0,0
1037,1765224208019,-66,39,-19,0,0,0,0,0
1038,1765224208236,36,284,44,0,0,0,0,0
1039,1765224208335,-24,411,30,0,0,0,0,0
1040,1765224208569,-25,535,-16,0,0,0,0,0
1041,1765224208769,5,606,22,0,0,0,0,0
1042,1765224208969,10,457,-59,0,0,0,0,0
1043,1765224209136,32,308,-76,0,0,0,0,0
1044,1765224209352,54,117,-38,0,0,0,0,0
1045,1765224209636,-40,-398,-10,0,0,0,0,0
1046,1765224209719,33,-480,17,0,0,0,0,0
1047,1765224209952,-38,-544,-27,0,0,0,0,0
1048,1765224210102,11,-572,38,0,0,0,0,0
1049,1765224210369,56,-470,52,0,0,0,0,0
1050,1765224210451,28,-470,101,0,0,0,0,0
1051,1765224210651,-34,-287,-56,0,0,0,0,0
1052,1765224210802,100,227,33,0,0,0,0,0
1053,1765224211103,-251,340,-10,0,0,0,0,0
1054,1765224211253,-32,307,-48,0,0,0,0,0
1055,1765224211419,-6,915,8,0,0,0,0,0
1056,1765224211552,-104,962,-66,0,0,0,0,0
1057,1765224211753,39,886,-5,0,0,0,0,0
1058,1765224211870,-12,946,-81,0,0,0,0,0
1059,1765224212086,-31,964,-53,0,0,0,0,0
1060,1765224212252,2,921,-96,0,0,0,0,0
1061,1765224212402,1,914,-68,0,0,0,0,0
1062,1765224212618,-79,878,-17,0,0,0,0,0
1063,1765224212851,-82,791,-41,0,0,0,0,0
1064,1765224213002,23,767,-94,0,0,0,0,0
1065,1765224213385,-89,695,-84,0,0,0,0,0
1066,1765224213452,-8,704,48,0,0,0,0,0
1067,1765224213719,-22,701,-56,0,0,0,0,0
1068,1765224213852,3,599,-90,0,0,0,0,0
1069,1765224214052,3,607,-17,0,0,0,0,0
1070,1765224214152,-26,648,-2,0,0,0,0,0
1071,1765224214619,-19,580,-42,0,0,0,0,0
1072,1765224214852,-7,592,-13,0,0,0,0,0
1073,1765224214936,-14,627,-72,0,0,0,0,0
1074,1765224215202,-62,616,-7,0,0,0,0,0
1075,1765224215352,7,577,-38,0,0,0,0,0
1076,1765224215586,-40,579,-8,0,0,0,0,0
1077,1765224215736,12,415,-18,0,0,0,0,0
1078,1765224215969,-12,401,7,0,0,0,0,0
1079,1765224216194,3,355,-21,0,0,0,0,0
1080,1765224216436,15,104,-5,0,0,0,0,0
1081,1765224216486,-21,84,-17,0,0,0,0,0
1082,1765224216736,44,36,26,0,0,0,0,0
1083,1765224216902,30,8,-24,0,0,0,0,0
1084,1765224217136,44,-117,7,0,0,0,0,0
1085,1765224217219,-14,-182,-50,0,0,0,0,0
1086,1765224217435,2,-211,22,0,0,0,0,0
1087,1765224217567,25,-279,58,0,0,0,0,0
1088,1765224217869,87,-292,3,0,0,0,0,0
1089,1765224218020,58,-327,24,0,0,0,0,0
1090,1765224218252,85,-455,32,0,0,0,0,0
1091,1765224218335,52,-472,48,0,0,0,0,0
1092,1765224218552,6,-468,7,0,0,0,0,0
1093,1765224218752,-3,-503,76,0,0,0,0,0
1094,1765224218969,60,-477,43,0,0,0,0,0
1095,1765224219069,-5,-447,23,0,0,0,0,0
1096,1765224219269,-67,-438,53,0,0,0,0,0
1097,1765224219436,28,-359,-20,0,0,0,0,0
1098,1765224219736,38,-303,27,0,0,0,0,0
1099,1765224219885,8,-304,-9,0,0,0,0,0
1100,1765224220018,7,-287,-28,0,0,0,0,0
1101,1765224220069,33,-34,43,0,0,0,0,0
1102,1765224220136,5,32,-37,0,0,0,0,0
1103,1765224220419,-22,86,4,0,0,0,0,0
1104,1765224220552,56,135,5,0,0,0,0,0
1105,1765224220802,-26,519,-3,0,0,0,0,0
1106,1765224220886,-18,538,-8,0,0,0,0,0
1107,1765224221169,-14,599,-36,0,0,0,0,0
1108,1765224221369,-53,717,-83,0,0,0,0,0
1109,1765224221569,12,671,-42,0,0,0,0,0
1110,1765224221735,-25,682,-49,0,0,0,0,0
1111,1765224221902,21,648,-69,0,0,0,0,0
1112,1765224221935,-9,398,-59,0,0,0,0,0
1113,1765224222102,-37,322,65,0,0,0,0,0
1114,1765224222286,0,316,-23,0,0,0,0,0
1115,1765224222452,25,260,-9,0,0,0,0,0
1116,1765224222652,-22,184,-32,0,0,0,0,0
1117,1765224222919,38,187,-17,0,0,0,0,0
1118,1765224223019,-18,156,-135,0,0,0,0,0
1119,1765224223203,34,152,-16,0,0,0,0,0
1120,1765224223402,34,176,36,0,0,0,0,0
1121,1765224223602,-25,170,-42,0,0,0,0,0
1122,1765224223735,-87,184,14,0,0,0,0,0
1123,1765224223818,25,154,-81,0,0,0,0,0
1124,1765224223903,-78,174,-5,0,0,0,0,0
1125,1765224224102,54,147,62,0,0,0,0,0
1126,1765224224235,25,172,-67,0,0,0,0,0
1127,1765224224453,5,258,-100,0,0,0,0,0
1128,1765224224669,7,274,8,0,0,0,0,0
1129,1765224224852,-5,300,-2,0,0,0,0,0
1130,1765224225019,4,304,-36,0,0,0,0,0
1131,1765224225236,37,291,-13,0,0,0,0,0
1132,1765224225402,-46,318,-7,0,0,0,0,0
1133,1765224225568,-7,311,30,0,0,0,0,0
1134,1765224225719,-33,519,-28,0,0,0,0,0
1135,1765224225935,13,515,-5,0,0,0,0,0
1136,1765224226185,-4,552,-84,0,0,0,0,0
1137,1765224226401,-9,613,-10,0,0,0,0,0
1138,1765224226485,-46,663,-21,0,0,0,0,0
1139,1765224226700,51,703,-14,0,0,0,0,0
1140,1765224226801,40,722,-89,0,0,0,0,0
1141,1765224226950,-13,842,-76,0,0,0,0,0
1142,1765224227150,-28,881,-5,0,0,0,0,0
1143,1765224227352,58,863,-33,0,0,0,0,0
1144,1765224227452,17,834,-88,0,0,0,0,0
1145,1765224227603,9,458,-81,0,0,0,0,0
1146,1765224227903,-11,394,-29,0,0,0,0,0
1147,1765224228085,1,283,-40,0,0,0,0,0
1148,1765224228267,48,-328,-33,0,0,0,0,0
1149,1765224228351,103,-332,71,0,0,0,0,0
1150,1765224228568,-64,-422,-73,0,0,0,0,0
1151,1765224228718,17,-464,96,0,0,0,0,0
1152,1765224228902,113,-602,93,0,0,0,0,0
1153,1765224229018,3,-603,64,0,0,0,0,0
1154,1765224229235,50,-590,-57,0,0,0,0,0
1155,1765224229419,167,-606,115,0,0,0,0,0
1156,1765224229751,75,-445,132,0,0,0,0,0
1157,1765224229885,-17,-334,-47,0,0,0,0,0
1158,1765224230185,9,716,-62,0,0,0,0,0
1159,1765224230303,-30,804,-35,0,0,0,0,0
1160,1765224230502,-7,856,-51,0,0,0,0,0
1161,1765224230702,-82,834,67,0,0,0,0,0
1162,1765224230919,-36,845,-115,0,0,0,0,0
1163,1765224231001,-25,801,-3,0,0,0,0,0
1164,1765224231352,6,801,-52,0,0,0,0,0
1165,1765224231602,-46,791,-86,0,0,0,0,0
1166,1765224231702,8,792,-10,0,0,0,0,0
1167,1765224232052,43,744,-74,0,0,0,0,0
1168,1765224232136,82,740,-33,0,0,0,0,0
1169,1765224232386,185,779,-15,0,0,0,0,0
1170,1765224232520,-7,867,-53,0,0,0,0,0
1171,1765224232618,-7,861,-43,0,0,0,0,0
1172,1765224232818,65,861,85,0,0,0,0,0
1173,1765224233087,19,886,-84,0,0,0,0,0
1174,1765224233318,24,695,-98,0,0,0,0,0
1175,1765224233418,-33,657,-124,0,0,0,0,0
1176,1765224233602,35,691,-2,0,0,0,0,0
1177,1765224233719,-29,600,-39,0,0,0,0,0
1178,1765224233819,-31,628,1,0,0,0,0,0
1179,1765224234052,7,623,-36,0,0,0,0,0
1180,1765224234201,-7,574,-65,0,0,0,0,0
1181,1765224234335,1,586,-4,0,0,0,0,0
1182,1765224234484,-33,569,-71,0,0,0,0,0
1183,1765224234651,-4,548,-37,0,0,0,0,0
1184,1765224234836,-18,554,-47,0,0,0,0,0
1185,1765224234986,-4,430,-53,0,0,0,0,0
1186,1765224235219,-39,352,-20,0,0,0,0,0
1187,1765224235303,-46,373,-25,0,0,0,0,0
1188,1765224235503,-17,292,-22,0,0,0,0,0
1189,1765224235636,-30,86,-21,0,0,0,0,0
1190,1765224235719,45,0,5,0,0,0,0,0
1191,1765224235985,-38,33,3,0,0,0,0,0
1192,1765224236085,2,-12,-33,0,0,0,0,0
1193,1765224236402,15,-32,-15,0,0,0,0,0
1194,1765224236468,19,-3,-17,0,0,0,0,0
1195,1765224236885,60,-20,21,0,0,0,0,0
1196,1765224237068,18,-168,2,0,0,0,0,0
1197,1765224237185,-5,121,-38,0,0,0,0,0
1198,1765224237385,6,-5,24,0,0,0,0,0
1199,1765224237468,-23,-32,36,0,0,0,0,0
1200,1765224237652,-34,-85,-10,0,0,0,0,0
1201,1765224237851,-18,-136,50,0,0,0,0,0
1202,1765224237951,53,90,-52,0,0,0,0,0
1203,1765224238087,44,-92,-29,0,0,0,0,0
1204,1765224238101,26,-127,44,0,0,0,0,0
1205,1765224238319,1,-145,8,0,0,0,0,0
1206,1765224238552,66,-161,48,0,0,0,0,0
1207,1765224238785,8,-228,-6,0,0,0,0,0
1208,1765224238902,17,-227,-6,0,0,0,0,0
1209,1765224239086,-24,-252,1,0,0,0,0,0
1210,1765224239500,11,-296,-4,0,0,0,0,0
1211,1765224239585,75,-275,26,0,0,0,0,0
1212,1765224239802,37,-278,35,0,0,0,0,0
1213,1765224239919,-8,-265,-34,0,0,0,0,0
1214,1765224240235,-20,-255,3,0,0,0,0,0
1215,1765224240419,25,-289,2,0,0,0,0,0
1216,1765224240618,21,-328,-6,0,0,0,0,0
1217,1765224240735,39,-308,5,0,0,0,0,0
1218,1765224240952,-2,-291,23,0,0,0,0,0
1219,1765224241152,30,-288,10,0,0,0,0,0
1220,1765224241352,17,-247,12,0,0,0,0,0
1221,1765224241503,-6,-222,13,0,0,0,0,0
1222,1765224241702,28,-173,19,0,0,0,0,0
1223,1765224241719,8,-111,32,0,0,0,0,0
1224,1765224241951,-19,-102,32,0,0,0,0,0
1225,1765224242102,50,-110,-25,0,0,0,0,0
1226,1765224242319,3,-90,38,0,0,0,0,0
1227,1765224242485,-54,32,36,0,0,0,0,0
1228,1765224242587,48,54,-12,0,0,0,0,0
1229,1765224242818,1,46,-4,0,0,0,0,0
1230,1765224243186,-27,143,-42,0,0,0,0,0
1231,1765224243269,-58,163,19,0,0,0,0,0
1232,1765224243568,35,167,-20,0,0,0,0,0
1233,1765224243786,47,273,-7,0,0,0,0,0
1234,1765224243952,-49,352,-33,0,0,0,0,0
1235,1765224244135,-89,325,-62,0,0,0,0,0
1236,1765224244334,68,562,-14,0,0,0,0,0
1237,1765224244552,-41,555,-42,0,0,0,0,0
1238,1765224244669,2,536,-11,0,0,0,0,0
1239,1765224244869,-27,575,-13,0,0,0,0,0
1240,1765224245052,-9,573,-9,0,0,0,0,0
1241,1765224245352,14,544,-27,0,0,0,0,0
1242,1765224245402,-24,564,-87,0,0,0,0,0
1243,1765224245485,-24,583,-35,0,0,0,0,0
1244,1765224245601,-11,548,-76,0,0,0,0,0
1245,1765224245784,-19,566,21,0,0,0,0,0
1246,1765224246001,11,542,-27,0,0,0,0,0
1247,1765224246102,-3,520,-23,0,0,0,0,0
1248,1765224246186,-1,432,-24,0,0,0,0,0
1249,1765224246252,-22,347,-81,0,0,0,0,0
1250,1765224246486,23,294,-26,0,0,0,0,0
1251,1765224246619,17,325,-32,0,0,0,0,0
1252,1765224246919,-11,57,-2,0,0,0,0,0
1253,1765224247135,33,28,-8,0,0,0,0,0
1254,1765224247236,11,47,-50,0,0,0,0,0
1255,1765224247469,30,-39,-2,0,0,0,0,0
1256,1765224247635,-2,-64,-36,0,0,0,0,0
1257,1765224247885,3,-26,11,0,0,0,0,0
1258,1765224247969,32,-58,-21,0,0,0,0,0
1259,1765224248035,-43,-38,0,0,0,0,0,0
1260,1765224248102,12,-44,-7,0,0,0,0,0
1261,1765224248335,-9,-56,17,0,0,0,0,0
1262,1765224248568,-9,-42,-33,0,0,0,0,0
1263,1765224248718,11,-185,31,0,0,0,0,0
1264,1765224248835,27,-204,-15,0,0,0,0,0
1265,1765224249033,19,-210,-5,0,0,0,0,0
1266,1765224249135,42,-213,21,0,0,0,0,0
1267,1765224249286,26,-169,21,0,0,0,0,0
1268,1765224249534,0,-132,22,0,0,0,0,0
1269,1765224249652,10,-75,35,0,0,0,0,0
1270,1765224249819,38,-3,-8,0,0,0,0,0
1271,1765224249968,-4,206,-9,0,0,0,0,0
1272,1765224250169,-30,239,-3,0,0,0,0,0
1273,1765224250402,-22,267,-29,0,0,0,0,0
1274,1765224250602,-234,443,15,0,0,0,0,0
1275,1765224250719,-77,449,-96,0,0,0,0,0
1276,1765224250935,-30,448,-9,0,0,0,0,0
1277,1765224251070,-50,456,-18,0,0,0,0,0
1278,1765224251102,-9,147,-16,0,0,0,0,0
1279,1765224251252,-39,107,-32,0,0,0,0,0
1280,1765224251418,39,40,-43,0,0,0,0,0
1281,1765224251585,-41,33,-14,0,0,0,0,0
1282,1765224251702,-8,-6,-52,0,0,0,0,0
1283,1765224251785,-50,-346,-25,0,0,0,0,0
1284,1765224251852,100,-429,153,0,0,0,0,0
1285,1765224252152,-18,-560,82,0,0,0,0,0
1286,1765224252302,40,-571,-71,0,0,0,0,0
1287,1765224252469,48,-571,32,0,0,0,0,0
1288,1765224252585,53,-505,12,0,0,0,0,0
1289,1765224252852,-89,-535,59,0,0,0,0,0
1290,1765224252919,-27,-589,-38,0,0,0,0,0
1291,1765224253002,37,-598,54,0,0,0,0,0
1292,1765224253118,154,-661,-33,0,0,0,0,0
1293,1765224253302,26,-626,88,0,0,0,0,0
1294,1765224253435,10,-594,-28,0,0,0,0,0
1295,1765224253650,41,-572,57,0,0,0,0,0
1296,1765224253885,28,-583,35,0,0,0,0,0
1297,1765224254052,92,-541,94,0,0,0,0,0
1298,1765224254202,-3,-483,54,0,0,0,0,0
1299,1765224254435,16,-456,19,0,0,0,0,0
1300,1765224254501,46,-453,51,0,0,0,0,0
1301,1765224254918,-2,-354,7,0,0,0,0,0
1302,1765224255068,17,-352,26,0,0,0,0,0
1303,1765224255219,27,-350,37,0,0,0,0,0
1304,1765224255668,23,-245,53,0,0,0,0,0
1305,1765224255768,34,-231,40,0,0,0,0,0
1306,1765224255951,23,-223,-1,0,0,0,0,0
1307,1765224256085,5,-127,21,0,0,0,0,0
1308,1765224256302,11,-109,-1,0,0,0,0,0
1309,1765224256419,4,-98,-7,0,0,0,0,0
1310,1765224256802,1,8,0,0,0,0,0,0
1311,1765224256968,9,10,-1,0,0,0,0,0
1312,1765224257202,1,15,-1,0,0,0,0,0
1313,1765224257402,4,-8,1,0,0,0,0,0
1314,1765224257550,10,-11,0,0,0,0,0,0
1315,1765224257735,4,-10,-1,0,0,0,0,0
1316,1765224257851,7,-11,0,0,0,0,0,0
1317,1765224257967,7,-12,-1,0,0,0,0,0
1318,1765224258235,7,-12,-256,0,0,0,0,0
1319,1765224258317,7,-9,-1,0,0,0,0,0
1320,1765224258685,7,-5,-2,0,0,0,0,0
1321,1765224258985,10,-4,0,0,0,0,0,0
1322,1765224259034,8,2,0,0,0,0,0,0
1323,1765224259185,5,16,1,0,0,0,0,0
1324,1765224259418,-2,14,-8,0,0,0,0,0
1325,1765224259535,8,8,-1,0,0,0,0,0
1326,1765224259955,7,11,-1,0,0,0,0,0
1327,1765224260119,5,15,-3,0,0,0,0,0
1328,1765224260186,7,15,-4,0,0,0,0,0
1329,1765224260552,8,14,0,0,0,0,0,0
1330,1765224260801,4,12,-1,0,0,0,0,0
1331,1765224260918,10,6,-5,0,0,0,0,0
1332,1765224261051,7,-45,5,0,0,0,0,0
1333,1765224261252,2,-50,10,0,0,0,0,0
1334,1765224261351,-12,-49,7,0,0,0,0,0
1335,1765224261752,3,-74,5,0,0,0,0,0
1336,1765224261801,2,-62,0,0,0,0,0,0
1337,1765224262051,4,-64,-10,0,0,0,0,0
1338,1765224262118,3,-72,10,0,0,0,0,0
1339,1765224262535,14,-93,-3,0,0,0,0,0
1340,1765224262685,5,-92,16,0,0,0,0,0
1341,1765224262818,9,-88,4,0,0,0,0,0
1342,1765224262951,11,-84,18,0,0,0,0,0
1343,1765224263135,1,-85,7,0,0,0,0,0
1344,1765224263285,9,-82,-1,0,0,0,0,0
1345,1765224263618,13,-83,9,0,0,0,0,0
1346,1765224263702,6,-79,6,0,0,0,0,0
1347,1765224263934,11,-82,-7,0,0,0,0,0
1348,1765224264118,9,-91,-13,0,0,0,0,0
1349,1765224264418,6,-87,5,0,0,0,0,0
1350,1765224264501,13,-91,5,0,0,0,0,0
1351,1765224264751,12,-84,-4,0,0,0,0,0
1352,1765224264884,14,-86,-5,0,0,0,0,0
1353,1765224265050,10,-84,7,0,0,0,0,0
1354,1765224265217,14,-88,-1,0,0,0,0,0
1355,1765224265318,9,-86,-5,0,0,0,0,0
1356,1765224265418,11,-86,-7,0,0,0,0,0
1357,1765224265602,12,-88,5,0,0,0,0,0
1358,1765224265735,12,-90,-2,0,0,0,0,0
1359,1765224266017,6,-84,-4,0,0,0,0,0
1360,1765224266218,12,-85,5,0,0,0,0,0
1361,1765224266400,8,-83,3,0,0,0,0,0
1362,1765224266518,8,-83,3,0,0,0,0,0
1363,1765224266585,4,-77,5,0,0,0,0,0
1364,1765224266802,15,-79,11,0,0,0,0,0
1365,1765224266902,2,-72,3,0,0,0,0,0
1366,1765224267168,8,-22,-1,0,0,0,0,0
1367,1765224267318,6,-15,0,0,0,0,0,0
1368,1765224267451,7,-10,0,0,0,0,0,0
1369,1765224267601,11,-11,-5,0,0,0,0,0
1370,1765224267701,6,-16,0,0,0,0,0,0
1371,1765224267768,8,-21,3,0,0,0,0,0
1372,1765224268069,7,-18,-1,0,0,0,0,0
1373,1765224268151,6,-19,-2,0,0,0,0,0
1374,1765224268468,7,-20,0,0,0,0,0,0
1375,1765224268518,7,-23,2,0,0,0,0,0
1376,1765224268801,7,-24,2,0,0,0,0,0
1377,1765224268885,6,-22,1,0,0,0,0,0
1378,1765224268901,5,-23,2,0,0,0,0,0
1379,1765224269035,15,-25,-1,0,0,0,0,0
1380,1765224269234,-2,-20,3,0,0,0,0,0
1381,1765224269334,8,-25,4,0,0,0,0,0
1382,1765224269718,-16,-60,9,0,0,0,0,0
1383,1765224269985,14,-6,4,0,0,0,0,0
1384,1765224270034,-9,-44,5,0,0,0,0,0
1385,1765224270118,13,19,-9,0,0,0,0,0
1386,1765224270168,20,21,-3,0,0,0,0,0
1387,1765224270385,7,31,-15,0,0,0,0,0
1388,1765224270468,-2,33,-7,0,0,0,0,0
1389,1765224270718,24,18,-7,0,0,0,0,0
1390,1765224270877,9,-105,-22,0,0,0,0,0
1391,1765224270899,14,-109,10,0,0,0,0,0
1392,1765224271135,9,-157,21,0,0,0,0,0
1393,1765224271218,-5,-174,22,0,0,0,0,0
1394,1765224271602,47,-266,2,0,0,0,0,0
1395,1765224271734,-7,-260,4,0,0,0,0,0
1396,1765224271901,35,-287,22,0,0,0,0,0
1397,1765224272035,-2,-294,20,0,0,0,0,0
1398,1765224272135,33,-287,19,0,0,0,0,0
1399,1765224272353,45,-312,13,0,0,0,0,0
1400,1765224272501,-2,-273,26,0,0,0,0,0
1401,1765224272751,46,-150,3,0,0,0,0,0
1402,1765224272801,16,-119,20,0,0,0,0,0
1403,1765224273068,21,-75,21,0,0,0,0,0
1404,1765224273285,12,-83,3,0,0,0,0,0
1405,1765224273502,44,-65,-21,0,0,0,0,0
1406,1765224273668,-24,-67,-16,0,0,0,0,0
1407,1765224273801,-5,-52,18,0,0,0,0,0
1408,1765224273835,22,-44,6,0,0,0,0,0
1409,1765224273935,19,-51,-42,0,0,0,0,0
1410,1765224274202,17,-34,-15,0,0,0,0,0
1411,1765224274285,30,-27,8,0,0,0,0,0
1412,1765224274618,4,-11,-2,0,0,0,0,0
1413,1765224274933,7,-14,-8,0,0,0,0,0
1414,1765224275017,-21,-10,-2,0,0,0,0,0
1415,1765224275084,4,-9,2,0,0,0,0,0
1416,1765224275217,17,-9,-2,0,0,0,0,0
1417,1765224275385,3,-11,0,0,0,0,0,0
1418,1765224275552,7,-10,0,0,0,0,0,0
1419,1765224275751,7,-11,-1,0,0,0,0,0
1420,1765224275884,6,-10,0,0,0,0,0,0
1421,1765224276084,6,-11,-1,0,0,0,0,0
1422,1765224276201,8,-11,0,0,0,0,0,0
1423,1765224276418,7,-10,-1,0,0,0,0,0
1424,1765224276551,5,-11,-1,0,0,0,0,0
1425,1765224276835,8,-10,0,0,0,0,0,0
1426,1765224276966,5,-11,0,0,0,0,0,0
1427,1765224277135,6,-10,0,0,0,0,0,0
1428,1765224277268,7,-10,-1,0,0,0,0,0
1429,1765224277501,7,-10,0,0,0,0,0,0
1430,1765224277668,7,-10,-1,0,0,0,0,0
1431,1765224277735,6,-10,-1,0,0,0,0,0
1432,1765224277952,9,-11,-1,0,0,0,0,0
1433,1765224278051,6,-9,0,0,0,0,0,0
1434,1765224278217,6,-9,-1,0,0,0,0,0
1435,1765224278452,6,-10,1,0,0,0,0,0
1436,1765224278701,6,-10,0,0,0,0,0,0
1437,1765224278785,6,-10,-2,0,0,0,0,0
1438,1765224278818,7,-10,-2,0,0,0,0,0
1439,1765224278934,7,-12,-1,0,0,0,0,0
1440,1765224279117,7,-10,-1,0,0,0,0,0
1441,1765224279351,8,-10,-1,0,0,0,0,0
1442,1765224279518,7,-9,-1,0,0,0,0,0
1443,1765224279601,6,-10,-1,0,0,0,0,0
1444,1765224279818,6,-9,-1,0,0,0,0,0
1445,1765224280268,6,-9,0,0,0,0,0,0
1446,1765224280368,6,-10,-1,0,0,0,0,0
1447,1765224280568,6,-11,0,0,0,0,0,0
1448,1765224280701,10,-8,0,0,0,0,0,0
1449,1765224280951,5,-11,-1,0,0,0,0,0
1450,1765224281035,7,-10,-2,0,0,0,0,0
1451,1765224281268,3,-9,0,0,0,0,0,0
1452,1765224281401,6,-11,0,0,0,0,0,0
1453,1765224281535,7,-9,-2,0,0,0,0,0
1454,1765224281835,7,-9,-1,0,0,0,0,0
1455,1765224282001,4,-10,-1,0,0,0,0,0
1456,1765224282134,3,-9,1,0,0,0,0,0
1457,1765224282352,8,-9,3,0,0,0,0,0
1458,1765224282484,9,-9,1,0,0,0,0,0
1459,1765224282701,5,-9,-1,0,0,0,0,0
1460,1765224282850,4,-10,-1,0,0,0,0,0
1461,1765224283051,4,-9,0,0,0,0,0,0
1462,1765224283184,6,-9,0,0,0,0,0,0
1463,1765224283235,3,-9,0,0,0,0,0,0
1464,1765224283485,7,-10,-1,0,0,0,0,0
1465,1765224283601,6,-10,0,0,0,0,0,0
1466,1765224283985,8,-11,-1,0,0,0,0,0
1467,1765224284151,8,-11,0,0,0,0,0,0
1468,1765224284317,6,-9,0,0,0,0,0,0
1469,1765224284484,8,-12,0,0,0,0,0,0
1470,1765224284685,7,-10,0,0,0,0,0,0
1471,1765224284818,7,-10,-1,0,0,0,0,0
1472,1765224285052,5,-11,1,0,0,0,0,0
1473,1765224285266,5,-10,-1,0,0,0,0,0
1474,1765224285434,7,-10,0,0,0,0,0,0
1475,1765224285635,6,-10,-1,0,0,0,0,0
1476,1765224285801,5,-10,-1,0,0,0,0,0
1477,1765224285983,7,-9,1,0,0,0,0,0
1478,1765224286135,8,-10,1,0,0,0,0,0
1479,1765224286517,8,-10,0,0,0,0,0,0
1480,1765224286785,5,-10,-2,0,0,0,0,0
1481,1765224286884,7,-11,-1,0,0,0,0,0
1482,1765224286984,5,-11,-1,0,0,0,0,0
1483,1765224287068,7,-11,-2,0,0,0,0,0
1484,1765224287268,6,-11,-3,0,0,0,0,0
1485,1765224287417,9,-10,-1,0,0,0,0,0
1486,1765224287634,6,-10,-1,0,0,0,0,0
1487,1765224287749,7,-10,0,0,0,0,0,0
1488,1765224287953,6,-11,0,0,0,0,0,0
1489,1765224288103,7,-10,-2,0,0,0,0,0
1490,1765224288352,5,-8,-1,0,0,0,0,0
1491,1765224288583,8,-12,-1,0,0,0,0,0
1492,1765224288717,4,-8,0,0,0,0,0,0
1493,1765224288817,8,-10,0,0,0,0,0,0
1494,1765224288917,7,-10,-1,0,0,0,0,0
1495,1765224289118,6,-9,-1,0,0,0,0,0
1496,1765224289320,6,-12,0,0,0,0,0,0
1497,1765224289519,6,-9,-1,0,0,0,0,0
1498,1765224289623,7,-10,0,0,0,0,0,0
1499,1765224289820,6,-11,-1,0,0,0,0,0
1500,1765224290269,6,-12,1,0,0,0,0,0
1501,1765224290385,9,-10,0,0,0,0,0,0
1502,1765224290553,7,-12,0,0,0,0,0,0
1503,1765224290969,4,-12,0,0,0,0,0,0
1504,1765224291035,7,-9,-1,0,0,0,0,0
1505,1765224291269,5,-11,0,0,0,0,0,0
1506,1765224291419,8,-9,-2,0,0,0,0,0
1507,1765224291637,5,-8,3,0,0,0,0,0
1508,1765224291886,3,-13,4,0,0,0,0,0
1509,1765224292102,9,-11,0,0,0,0,0,0
1510,1765224292219,7,-9,0,0,0,0,0,0
1511,1765224292401,3,-6,3,0,0,0,0,0
1512,1765224292881,5,-11,2,0,0,0,0,0
1513,1765224292903,12,-10,3,0,0,0,0,0
1514,1765224293121,5,-15,-6,0,0,0,0,0
1515,1765224293269,5,-8,-1,0,0,0,0,0
1516,1765224293569,9,-9,3,0,0,0,0,0
1517,1765224293684,7,-10,255,0,0,0,0,0
1518,1765224293899,9,-8,3,0,0,0,0,0
1519,1765224294019,6,-10,0,0,0,0,0,0
1520,1765224294285,8,-10,0,0,0,0,0,0
1521,1765224294369,9,-11,2,0,0,0,0,0
1522,1765224294600,3,-7,-1,0,0,0,0,0
1523,1765224294719,9,-12,-1,0,0,0,0,0
1524,1765224294952,8,-9,2,0,0,0,0,0
1525,1765224295102,6,-11,0,0,0,0,0,0
1526,1765224295400,8,-9,-2,0,0,0,0,0
1527,1765224295468,6,-10,0,0,0,0,0,0
1528,1765224295835,7,-11,0,0,0,0,0,0
1529,1765224296019,6,-11,-1,0,0,0,0,0
1530,1765224296169,6,-10,0,0,0,0,0,0
1531,1765224296468,7,-9,1,0,0,0,0,0
1532,1765224296585,9,-10,0,0,0,0,0,0
1533,1765224296885,8,-11,2,0,0,0,0,0
1534,1765224297018,7,-12,0,0,0,0,0,0
1535,1765224297152,10,-6,1,0,0,0,0,0
1536,1765224297301,4,-12,-1,0,0,0,0,0
1537,1765224297503,7,-13,-2,0,0,0,0,0
1538,1765224297640,7,-10,-1,0,0,0,0,0
1539,1765224297769,7,-10,-1,0,0,0,0,0
1540,1765224298001,7,-9,-2,0,0,0,0,0
1541,1765224298084,7,-11,-1,0,0,0,0,0
1542,1765224298218,7,-10,-1,0,0,0,0,0
1543,1765224298435,7,-10,-1,0,0,0,0,0
1544,1765224298685,8,-10,0,0,0,0,0,0
1545,1765224298918,6,-11,-2,0,0,0,0,0
1546,1765224299084,7,-10,-1,0,0,0,0,0
1547,1765224299218,7,-9,0,0,0,0,0,0
1548,1765224299484,7,-9,0,0,0,0,0,0
1549,1765224299666,7,-11,-1,0,0,0,0,0
1550,1765224299835,6,-10,0,0,0,0,0,0
1551,1765224299968,8,-11,0,0,0,0,0,0
1552,1765224300068,7,-9,-1,0,0,0,0,0
1553,1765224300218,6,-10,-1,0,0,0,0,0
1554,1765224300451,6,-11,-1,0,0,0,0,0
1555,1765224300768,5,-11,0,0,0,0,0,0
1556,1765224300868,7,-9,1,0,0,0,0,0
1557,1765224301051,7,-9,0,0,0,0,0,0
1558,1765224301200,6,-10,0,0,0,0,0,0
1559,1765224301284,7,-10,0,0,0,0,0,0
1560,1765224301485,7,-11,1,0,0,0,0,0
1561,1765224301601,8,-11,0,0,0,0,0,0
1562,1765224301768,7,-9,-1,0,0,0,0,0
1563,1765224302018,7,-9,0,0,0,0,0,0
1564,1765224302286,8,-9,-1,0,0,0,0,0
1565,1765224302385,7,-9,-1,0,0,0,0,0
1566,1765224302501,7,-9,0,0,0,0,0,0
1567,1765224302684,7,-10,-256,0,0,0,0,0
1568,1765224302801,7,-10,0,0,0,0,0,0
1569,1765224303034,7,-10,1,0,0,0,0,0
1570,1765224303251,7,-10,-3,0,0,0,0,0
1571,1765224303402,7,-9,-1,0,0,0,0,0
1572,1765224303533,8,-11,1,0,0,0,0,0
1573,1765224303784,7,-10,0,0,0,0,0,0
1574,1765224304035,8,-10,0,0,0,0,0,0
1575,1765224304234,6,-11,0,0,0,0,0,0
1576,1765224304301,7,-11,-1,0,0,0,0,0
1577,1765224304451,7,-10,0,0,0,0,0,0
1578,1765224304584,7,-10,0,0,0,0,0,0
1579,1765224304735,6,-10,0,0,0,0,0,0
1580,1765224304918,6,-10,-1,0,0,0,0,0
1581,1765224305152,7,-9,0,0,0,0,0,0
1582,1765224305251,6,-10,-2,0,0,0,0,0
1583,1765224305451,7,-11,0,0,0,0,0,0
1584,1765224305502,4,-11,-1,0,0,0,0,0
1585,1765224305619,7,-11,0,0,0,0,0,0
1586,1765224305934,8,-10,0,0,0,0,0,0
1587,1765224306034,7,-11,0,0,0,0,0,0
1588,1765224306135,8,-11,0,0,0,0,0,0
1589,1765224306351,7,-9,-2,0,0,0,0,0
1590,1765224306418,7,-9,-1,0,0,0,0,0
1591,1765224306685,7,-11,0,0,0,0,0,0
1592,1765224306852,5,-10,-1,0,0,0,0,0
1593,1765224307085,8,-10,-1,0,0,0,0,0
1594,1765224307151,6,-10,1,0,0,0,0,0
1595,1765224307350,7,-11,0,0,0,0,0,0
1596,1765224307601,6,-11,0,0,0,0,0,0
1597,1765224307851,6,-11,-1,0,0,0,0,0
1598,1765224307901,6,-10,0,0,0,0,0,0
1599,1765224308001,7,-11,0,0,0,0,0,0
1600,1765224308168,5,-10,-1,0,0,0,0,0
1601,1765224308285,5,-10,0,0,0,0,0,0
1602,1765224308701,6,-10,-1,0,0,0,0,0
1603,1765224308834,7,-11,0,0,0,0,0,0
1604,1765224309001,7,-11,-1,0,0,0,0,0
1605,1765224309453,7,-9,0,0,0,0,0,0
1606,1765224309568,5,-11,0,0,0,0,0,0
1607,1765224309751,6,-11,0,0,0,0,0,0
1608,1765224309818,7,-10,0,0,0,0,0,0
1609,1765224309900,7,-10,-3,0,0,0,0,0
1610,1765224310134,7,-10,-1,0,0,0,0,0
1611,1765224310268,7,-10,0,0,0,0,0,0
1612,1765224310501,7,-9,-1,0,0,0,0,0
1613,1765224310633,8,-9,0,0,0,0,0,0
1614,1765224310834,6,-10,0,0,0,0,0,0
1615,1765224311051,8,-10,-2,0,0,0,0,0
1616,1765224311284,6,-10,1,0,0,0,0,0
1617,1765224311384,11,-9,-1,0,0,0,0,0
1618,1765224311617,2,-11,0,0,0,0,0,0
1619,1765224311750,7,-11,0,0,0,0,0,0
1620,1765224311967,6,-10,-2,0,0,0,0,0
1621,1765224312084,7,-10,-2,0,0,0,0,0
1622,1765224312435,6,-11,-1,0,0,0,0,0
1623,1765224312551,7,-10,-1,0,0,0,0,0
1624,1765224312816,8,-11,0,0,0,0,0,0
1625,1765224312985,9,-10,-1,0,0,0,0,0
1626,1765224313201,6,-11,0,0,0,0,0,0
1627,1765224313336,7,-10,0,0,0,0,0,0
1628,1765224313518,6,-10,-1,0,0,0,0,0
1629,1765224313567,7,-11,-1,0,0,0,0,0
1630,1765224313700,6,-9,-1,0,0,0,0,0
1631,1765224313901,7,-10,-1,0,0,0,0,0
1632,1765224314034,6,-10,-1,0,0,0,0,0
1633,1765224314251,6,-10,0,0,0,0,0,0
1634,1765224314501,6,-10,0,0,0,0,0,0
1635,1765224314643,7,-10,0,0,0,0,0,0
1636,1765224315018,7,-10,-2,0,0,0,0,0
1637,1765224315084,7,-10,1,0,0,0,0,0
1638,1765224315351,5,-11,-2,0,0,0,0,0
1639,1765224315467,7,-12,0,0,0,0,0,0
1640,1765224315652,6,-11,0,0,0,0,0,0
1641,1765224315768,5,-10,-1,0,0,0,0,0
1642,1765224316218,6,-9,-1,0,0,0,0,0
1643,1765224316451,5,-9,-1,0,0,0,0,0
1644,1765224316517,6,-10,0,0,0,0,0,0
1645,1765224316784,7,-10,0,0,0,0,0,0
1646,1765224316951,6,-9,0,0,0,0,0,0
1647,1765224317184,6,-9,-1,0,0,0,0,0
1648,1765224317251,6,-10,1,0,0,0,0,0
1649,1765224317351,6,-10,-1,0,0,0,0,0
1650,1765224317501,6,-8,-1,0,0,0,0,0
1651,1765224317651,6,-12,0,0,0,0,0,0
1652,1765224318084,7,-10,-1,0,0,0,0,0
1653,1765224318285,9,-9,1,0,0,0,0,0
1654,1765224318384,7,-11,0,0,0,0,0,0
1655,1765224318568,8,-8,0,0,0,0,0,0
1656,1765224318768,5,-8,0,0,0,0,0,0
1657,1765224318951,7,-12,-2,0,0,0,0,0
1658,1765224319067,8,-12,0,0,0,0,0,0
1659,1765224319301,6,-9,-1,0,0,0,0,0
1660,1765224319551,8,-12,-2,0,0,0,0,0
1661,1765224319768,8,-11,3,0,0,0,0,0
1662,1765224319869,9,-10,0,0,0,0,0,0
1663,1765224320218,7,-11,0,0,0,0,0,0
1664,1765224320435,7,-9,3,0,0,0,0,0
1665,1765224320634,6,-7,-2,0,0,0,0,0
1666,1765224320717,8,-10,-2,0,0,0,0,0
1667,1765224320818,6,-5,-1,0,0,0,0,0
1668,1765224321017,5,-11,1,0,0,0,0,0
1669,1765224321102,5,-14,-1,0,0,0,0,0
1670,1765224321367,7,-10,0,0,0,0,0,0
1671,1765224321551,7,-10,0,0,0,0,0,0
1672,1765224321717,7,-8,-1,0,0,0,0,0
1673,1765224321834,8,-9,1,0,0,0,0,0
1674,1765224321950,4,-10,-1,0,0,0,0,0
1675,1765224322017,3,-11,-1,0,0,0,0,0
1676,1765224322318,9,-9,-1,0,0,0,0,0
1677,1765224322451,6,-1,6,0,0,0,0,0
1678,1765224322518,9,-7,0,0,0,0,0,0
1679,1765224322718,7,-10,1,0,0,0,0,0
1680,1765224322799,5,-9,1,0,0,0,0,0
1681,1765224323018,8,-9,-1,0,0,0,0,0
1682,1765224323218,6,-11,-2,0,0,0,0,0
1683,1765224323417,6,-11,-1,0,0,0,0,0
1684,1765224323567,6,-10,-1,0,0,0,0,0
1685,1765224323701,4,-10,-1,0,0,0,0,0
1686,1765224323816,7,-9,-1,0,0,0,0,0
1687,1765224323984,6,-11,1,0,0,0,0,0
1688,1765224324284,8,-10,-1,0,0,0,0,0
1689,1765224324419,5,-10,-1,0,0,0,0,0
1690,1765224324534,8,-10,0,0,0,0,0,0
1691,1765224324717,6,-10,0,0,0,0,0,0
1692,1765224324868,8,-10,-2,0,0,0,0,0
1693,1765224325134,6,-9,-2,0,0,0,0,0
1694,1765224325184,5,-9,-2,0,0,0,0,0
1695,1765224325434,7,-9,-1,0,0,0,0,0
1696,1765224325606,7,-10,1,0,0,0,0,0
1697,1765224325701,7,-13,-1,0,0,0,0,0
1698,1765224325917,9,-8,-1,0,0,0,0,0
1699,1765224326151,7,-11,1,0,0,0,0,0
1700,1765224326300,6,-10,0,0,0,0,0,0
1701,1765224326484,6,-10,0,0,0,0,0,0
1702,1765224326634,6,-10,-2,0,0,0,0,0
1703,1765224327017,7,-11,-1,0,0,0,0,0
1704,1765224327185,8,-9,-1,0,0,0,0,0
1705,1765224327301,6,-9,-1,0,0,0,0,0
1706,1765224327751,6,-11,0,0,0,0,0,0
1707,1765224327935,8,-9,1,0,0,0,0,0
1708,1765224328049,7,-12,-1,0,0,0,0,0
1709,1765224328116,6,-10,0,0,0,0,0,0
1710,1765224328201,8,-11,0,0,0,0,0,0
1711,1765224328451,6,-12,0,0,0,0,0,0
1712,1765224328568,6,-9,-1,0,0,0,0,0
1713,1765224328817,7,-10,0,0,0,0,0,0
1714,1765224328901,6,-10,0,0,0,0,0,0
1715,1765224329201,7,-10,0,0,0,0,0,0
1716,1765224329351,7,-10,-1,0,0,0,0,0
1717,1765224329585,7,-11,-1,0,0,0,0,0
1718,1765224329684,7,-10,0,0,0,0,0,0
1719,1765224329867,7,-11,-1,0,0,0,0,0
1720,1765224329935,7,-9,1,0,0,0,0,0
1721,1765224330034,3,-11,-3,0,0,0,0,0
1722,1765224330285,8,-10,-2,0,0,0,0,0
1723,1765224330401,5,-9,-1,0,0,0,0,0
1724,1765224330601,6,-9,-1,0,0,0,0,0
1725,1765224330718,5,-11,0,0,0,0,0,0
1726,1765224331018,6,-10,0,0,0,0,0,0
1727,1765224331134,6,-11,-1,0,0,0,0,0
1728,1765224331351,5,-10,-2,0,0,0,0,0
1729,1765224331467,7,-9,255,0,0,0,0,0
1730,1765224331750,6,-10,-1,0,0,0,0,0
1731,1765224331817,7,-11,-1,0,0,0,0,0
1732,1765224331868,6,-10,-1,0,0,0,0,0
1733,1765224332017,6,-9,-1,0,0,0,0,0
1734,1765224332151,6,-10,-2,0,0,0,0,0
1735,1765224332384,6,-9,-1,0,0,0,0,0
1736,1765224332534,6,-10,0,0,0,0,0,0
1737,1765224332851,6,-10,-2,0,0,0,0,0
1738,1765224332918,6,-11,-1,0,0,0,0,0
1739,1765224333151,7,-10,0,0,0,0,0,0
1740,1765224333301,6,-11,-1,0,0,0,0,0
1741,1765224333534,7,-11,0,0,0,0,0,0
1742,1765224333634,6,-9,0,0,0,0,0,0
1743,1765224333717,8,-10,0,0,0,0,0,0
1744,1765224333834,6,-10,0,0,0,0,0,0
1745,1765224334000,7,-9,-1,0,0,0,0,0
1746,1765224334317,8,-10,0,0,0,0,0,0
1747,1765224334451,6,-10,-1,0,0,0,0,0
1748,1765224334567,6,-10,0,0,0,0,0,0
1749,1765224334734,7,-9,-1,0,0,0,0,0
1750,1765224334917,8,-10,0,0,0,0,0,0
1751,1765224335117,7,-9,0,0,0,0,0,0
1752,1765224335250,7,-11,-1,0,0,0,0,0
1753,1765224335434,7,-11,-1,0,0,0,0,0
1754,1765224335834,7,-9,0,0,0,0,0,0
1755,1765224336068,6,-11,0,0,0,0,0,0
1756,1765224336284,5,-10,0,0,0,0,0,0
1757,1765224336384,7,-9,-1,0,0,0,0,0
1758,1765224336565,7,-12,-1,0,0,0,0,0
1759,1765224336767,6,-10,0,0,0,0,0,0
1760,1765224336951,7,-10,0,0,0,0,0,0
1761,1765224337050,6,-11,0,0,0,0,0,0
1762,1765224337267,7,-9,-1,0,0,0,0,0
1763,1765224337451,6,-12,-1,0,0,0,0,0
1764,1765224337734,6,-10,-1,0,0,0,0,0
1765,1765224337816,7,-9,0,0,0,0,0,0
1766,1765224338033,6,-10,-1,0,0,0,0,0
1767,1765224338084,6,-10,-1,0,0,0,0,0
1768,1765224338167,6,-10,1,0,0,0,0,0
1769,1765224338401,7,-9,0,0,0,0,0,0
1770,1765224338551,6,-11,-1,0,0,0,0,0
1771,1765224338802,4,-11,-2,0,0,0,0,0
1772,1765224338883,7,-11,0,0,0,0,0,0
1773,1765224339117,6,-9,0,0,0,0,0,0
1774,1765224339584,5,-10,-2,0,0,0,0,0
1775,1765224339716,7,-10,-1,0,0,0,0,0
1776,1765224339884,7,-11,2,0,0,0,0,0
1777,1765224340051,6,-11,0,0,0,0,0,0
1778,1765224340118,4,-9,-3,0,0,0,0,0
1779,1765224340184,5,-10,-2,0,0,0,0,0
1780,1765224340250,7,-10,-1,0,0,0,0,0
1781,1765224340367,6,-9,0,0,0,0,0,0
1782,1765224340435,7,-11,-1,0,0,0,0,0
1783,1765224340501,7,-10,0,0,0,0,0,0
1784,1765224340567,6,-10,-1,0,0,0,0,0
1785,1765224340667,7,-11,1,0,0,0,0,0
1786,1765224340734,7,-10,0,0,0,0,0,0
1787,1765224340800,7,-9,-1,0,0,0,0,0
1788,1765224340851,7,-10,-1,0,0,0,0,0
1789,1765224341002,8,-10,-1,0,0,0,0,0
1790,1765224341066,7,-11,0,0,0,0,0,0
1791,1765224341117,7,-11,1,0,0,0,0,0
1792,1765224341184,6,-10,-1,0,0,0,0,0
1793,1765224341285,7,-10,0,0,0,0,0,0
1794,1765224341351,6,-11,-1,0,0,0,0,0
1795,1765224341416,8,-10,0,0,0,0,0,0
1796,1765224341484,6,-11,0,0,0,0,0,0
1797,1765224341535,5,-10,-1,0,0,0,0,0
1798,1765224341601,7,-9,-1,0,0,0,0,0
1799,1765224341734,7,-10,-1,0,0,0,0,0
1800,1765224341801,7,-12,-1,0,0,0,0,0
1801,1765224341866,5,-10,-1,0,0,0,0,0
1802,1765224341918,7,-10,0,0,0,0,0,0
1803,1765224342017,5,-10,0,0,0,0,0,0
1804,1765224342084,7,-10,1,0,0,0,0,0
1805,1765224342150,7,-11,0,0,0,0,0,0
1806,1765224342217,6,-10,-2,0,0,0,0,0
1807,1765224342350,7,-11,-1,0,0,0,0,0
1808,1765224342401,7,-9,0,0,0,0,0,0
1809,1765224342467,4,-9,0,0,0,0,0,0
1810,1765224342534,8,-10,-1,0,0,0,0,0
1811,1765224342652,6,-9,0,0,0,0,0,0
1812,1765224342717,6,-9,0,0,0,0,0,0
1813,1765224342767,7,-11,-1,0,0,0,0,0
1814,1765224342833,7,-10,0,0,0,0,0,0
1815,1765224342967,6,-10,0,0,0,0,0,0
1816,1765224343034,5,-10,0,0,0,0,0,0
1817,1765224343101,7,-10,-1,0,0,0,0,0
1818,1765224343151,6,-11,-1,0,0,0,0,0
1819,1765224343251,6,-10,0,0,0,0,0,0
1820,1765224343318,7,-11,-1,0,0,0,0,0
1821,1765224343384,6,-10,-1,0,0,0,0,0
1822,1765224343434,7,-10,0,0,0,0,0,0
1823,1765224343584,6,-9,-1,0,0,0,0,0
1824,1765224343651,8,-10,0,0,0,0,0,0
1825,1765224343700,7,-10,0,0,0,0,0,0
1826,1765224343767,8,-11,0,0,0,0,0,0
1827,1765224343868,7,-9,-2,0,0,0,0,0
1828,1765224343934,6,-10,0,0,0,0,0,0
1829,1765224343983,7,-9,-1,0,0,0,0,0
1830,1765224344050,5,-11,-1,0,0,0,0,0
1831,1765224344183,5,-11,0,0,0,0,0,0
1832,1765224344251,5,-11,0,0,0,0,0,0
1833,1765224344317,7,-9,0,0,0,0,0,0
1834,1765224344367,8,-10,0,0,0,0,0,0
1835,1765224344484,8,-10,-1,0,0,0,0,0
1836,1765224344550,6,-8,0,0,0,0,0,0
1837,1765224344617,6,-10,0,0,0,0,0,0
1838,1765224344684,5,-10,0,0,0,0,0,0
1839,1765224344750,5,-11,0,0,0,0,0,0
1840,1765224344815,7,-9,1,0,0,0,0,0
1841,1765224344900,7,-10,0,0,0,0,0,0
1842,1765224345000,7,-9,0,0,0,0,0,0
1843,1765224345067,7,-10,-1,0,0,0,0,0
1844,1765224345134,7,-10,-1,0,0,0,0,0
1845,1765224345200,6,-11,0,0,0,0,0,0
1846,1765224345301,8,-11,0,0,0,0,0,0
1847,1765224345349,7,-11,0,0,0,0,0,0
1848,1765224345418,6,-10,-1,0,0,0,0,0
1849,1765224345484,6,-10,0,0,0,0,0,0
1850,1765224345617,6,-10,0,0,0,0,0,0
1851,1765224345682,5,-10,1,0,0,0,0,0
1852,1765224345734,6,-10,-1,0,0,0,0,0
1853,1765224345801,6,-11,-2,0,0,0,0,0
1854,1765224345917,6,-10,0,0,0,0,0,0
1855,1765224345969,9,-11,0,0,0,0,0,0
1856,1765224346034,7,-11,0,0,0,0,0,0
1857,1765224346101,9,-10,0,0,0,0,0,0
1858,1765224346234,7,-10,-1,0,0,0,0,0
1859,1765224346301,7,-11,-1,0,0,0,0,0
1860,1765224346351,8,-10,1,0,0,0,0,0
1861,1765224346417,8,-8,2,0,0,0,0,0
1862,1765224346568,7,-9,-1,0,0,0,0,0
1863,1765224346617,5,-9,-2,0,0,0,0,0
1864,1765224346684,5,-8,0,0,0,0,0,0
1865,1765224346834,7,-8,0,0,0,0,0,0
1866,1765224346883,8,-11,0,0,0,0,0,0
1867,1765224346951,7,-11,-2,0,0,0,0,0
1868,1765224347017,5,-10,-1,0,0,0,0,0
1869,1765224347118,5,-12,0,0,0,0,0,0
1870,1765224347184,6,-9,1,0,0,0,0,0
1871,1765224347251,7,-11,-2,0,0,0,0,0
1872,1765224347300,6,-10,-2,0,0,0,0,0
1873,1765224347478,6,-10,1,0,0,0,0,0
1874,1765224347499,8,-9,-1,0,0,0,0,0
1875,1765224347567,6,-9,-1,0,0,0,0,0
1876,1765224347635,6,-11,-1,0,0,0,0,0
1877,1765224347734,8,-12,0,0,0,0,0,0
1878,1765224347801,7,-10,0,0,0,0,0,0
1879,1765224347851,6,-10,0,0,0,0,0,0
1880,1765224347917,7,-9,-1,0,0,0,0,0
1881,1765224348050,6,-9,0,0,0,0,0,0
1882,1765224348117,6,-11,0,0,0,0,0,0
1883,1765224348184,7,-11,0,0,0,0,0,0
1884,1765224348251,6,-10,-1,0,0,0,0,0
1885,1765224348351,7,-11,-1,0,0,0,0,0
1886,1765224348400,7,-9,0,0,0,0,0,0
1887,1765224348467,6,-10,-1,0,0,0,0,0
1888,1765224348517,7,-11,-1,0,0,0,0,0
1889,1765224348667,7,-9,-1,0,0,0,0,0
1890,1765224348735,6,-10,-2,0,0,0,0,0
1891,1765224348784,7,-10,-2,0,0,0,0,0
1892,1765224348851,7,-11,-1,0,0,0,0,0
1893,1765224348951,8,-9,0,0,0,0,0,0
1894,1765224349017,8,-9,0,0,0,0,0,0
1895,1765224349065,7,-8,0,0,0,0,0,0
1896,1765224349134,7,-10,0,0,0,0,0,0
1897,1765224349268,6,-9,1,0,0,0,0,0
1898,1765224349334,5,-10,-1,0,0,0,0,0
1899,1765224349400,10,-10,0,0,0,0,0,0
1900,1765224349451,5,-9,-2,0,0,0,0,0
1901,1765224349517,7,-12,0,0,0,0,0,0
1902,1765224349567,8,-11,0,0,0,0,0,0
1903,1765224349667,5,-10,0,0,0,0,0,0
1904,1765224349734,6,-10,-1,0,0,0,0,0
1905,1765224349801,9,-10,0,0,0,0,0,0
1906,1765224349850,8,-11,-1,0,0,0,0,0
1907,1765224349983,8,-10,0,0,0,0,0,0
1908,1765224350050,6,-9,0,0,0,0,0,0
1909,1765224350117,7,-10,0,0,0,0,0,0
1910,1765224350183,8,-9,-1,0,0,0,0,0
1911,1765224350284,7,-10,-1,0,0,0,0,0
1912,1765224350334,7,-10,1,0,0,0,0,0
1913,1765224350401,7,-10,-1,0,0,0,0,0
1914,1765224350467,7,-10,-1,0,0,0,0,0
1915,1765224350600,7,-10,0,0,0,0,0,0
1916,1765224350667,6,-10,0,0,0,0,0,0
1917,1765224350734,8,-11,-1,0,0,0,0,0
1918,1765224350783,6,-10,0,0,0,0,0,0
1919,1765224350883,8,-10,-1,0,0,0,0,0
1920,1765224350952,7,-9,-2,0,0,0,0,0
1921,1765224351000,6,-10,0,0,0,0,0,0
1922,1765224351067,8,-10,-1,0,0,0,0,0
1923,1765224351200,8,-11,0,0,0,0,0,0
1924,1765224351268,6,-9,-1,0,0,0,0,0
1925,1765224351334,7,-10,0,0,0,0,0,0
1926,1765224351401,6,-9,0,0,0,0,0,0
1927,1765224351502,7,-11,-2,0,0,0,0,0
1928,1765224351550,7,-11,0,0,0,0,0,0
1929,1765224351617,6,-11,0,0,0,0,0,0
1930,1765224351684,7,-11,0,0,0,0,0,0
1931,1765224351817,5,-10,0,0,0,0,0,0
1932,1765224351883,5,-10,-1,0,0,0,0,0
1933,1765224351934,5,-10,0,0,0,0,0,0
1934,1765224352000,6,-10,-1,0,0,0,0,0
1935,1765224352101,7,-10,-1,0,0,0,0,0
1936,1765224352167,6,-11,0,0,0,0,0,0
1937,1765224352217,6,-11,0,0,0,0,0,0
1938,1765224352284,6,-10,-1,0,0,0,0,0
1939,1765224352401,5,-11,0,0,0,0,0,0
1940,1765224352483,5,-10,-1,0,0,0,0,0
1941,1765224352550,6,-10,0,0,0,0,0,0
1942,1765224352600,6,-10,-2,0,0,0,0,0
1943,1765224352701,7,-10,1,0,0,0,0,0
1944,1765224352767,6,-10,0,0,0,0,0,0
1945,1765224352900,5,-11,1,0,0,0,0,0
1946,1765224352951,6,-9,-2,0,0,0,0,0
1947,1765224353017,4,-10,0,0,0,0,0,0
1948,1765224353084,7,-10,0,0,0,0,0,0
1949,1765224353217,5,-10,-1,0,0,0,0,0
1950,1765224353267,6,-10,0,0,0,0,0,0
1951,1765224353333,7,-10,-255,0,0,0,0,0
1952,1765224353401,8,-9,0,0,0,0,0,0
1953,1765224353517,6,-11,-1,0,0,0,0,0
1954,1765224353567,6,-11,-1,0,0,0,0,0
1955,1765224353633,6,-11,0,0,0,0,0,0
1956,1765224353702,7,-10,0,0,0,0,0,0
1957,1765224353834,7,-9,-1,0,0,0,0,0
1958,1765224353900,8,-10,0,0,0,0,0,0
1959,1765224353968,7,-11,-2,0,0,0,0,0
1960,1765224354017,8,-11,0,0,0,0,0,0
1961,1765224354134,7,-11,0,0,0,0,0,0
1962,1765224354200,5,-9,-1,0,0,0,0,0
1963,1765224354252,8,-10,-1,0,0,0,0,0
1964,1765224354317,6,-12,-1,0,0,0,0,0
1965,1765224354450,5,-11,-1,0,0,0,0,0
1966,1765224354501,7,-11,1,0,0,0,0,0
1967,1765224354567,7,-12,0,0,0,0,0,0
1968,1765224354634,6,-9,1,0,0,0,0,0
1969,1765224354734,9,-11,-1,0,0,0,0,0
1970,1765224354784,7,-10,-2,0,0,0,0,0
1971,1765224354850,7,-10,-2,0,0,0,0,0
1972,1765224354917,7,-10,-2,0,0,0,0,0
1973,1765224355050,6,-9,-255,0,0,0,0,0
1974,1765224355116,7,-11,1,0,0,0,0,0
1975,1765224355184,6,-11,0,0,0,0,0,0
1976,1765224355234,8,-10,0,0,0,0,0,0
1977,1765224355334,6,-10,-2,0,0,0,0,0
1978,1765224355400,7,-10,-1,0,0,0,0,0
1979,1765224355467,7,-10,0,0,0,0,0,0
1980,1765224355517,6,-10,-1,0,0,0,0,0
1981,1765224355650,6,-9,-2,0,0,0,0,0
1982,1765224355716,7,-10,-4,0,0,0,0,0
1983,1765224355783,3,-11,2,0,0,0,0,0
1984,1765224355848,9,-11,-1,0,0,0,0,0
1985,1765224355916,7,-10,-2,0,0,0,0,0
1986,1765224355983,5,-10,-1,0,0,0,0,0
1987,1765224356101,4,-9,-1,0,0,0,0,0
1988,1765224356150,5,-9,-1,0,0,0,0,0
1989,1765224356217,8,-9,-1,0,0,0,0,0
1990,1765224356266,6,-10,-1,0,0,0,0,0
1991,1765224356416,8,-10,-1,0,0,0,0,0
1992,1765224356482,7,-10,-1,0,0,0,0,0
1993,1765224356533,7,-11,-1,0,0,0,0,0
1994,1765224356600,6,-11,-1,0,0,0,0,0
1995,1765224356701,7,-10,0,0,0,0,0,0
1996,1765224356766,7,-9,0,0,0,0,0,0
1997,1765224356833,6,-9,-1,0,0,0,0,0
1998,1765224356900,6,-11,0,0,0,0,0,0
1999,1765224357018,7,-10,-1,0,0,0,0,0
2000,1765224357084,5,-10,0,0,0,0,0,0
2001,1765224357150,6,-10,-1,0,0,0,0,0
2002,1765224357216,6,-9,0,0,0,0,0,0
2003,1765224357317,6,-11,0,0,0,0,0,0
2004,1765224357383,6,-10,-1,0,0,0,0,0
2005,1765224357451,6,-11,0,0,0,0,0,0
2006,1765224357501,8,-11,1,0,0,0,0,0
2007,1765224357650,7,-10,2,0,0,0,0,0
2008,1765224357717,6,-10,0,0,0,0,0,0
2009,1765224357767,6,-10,-2,0,0,0,0,0
2010,1765224357834,8,-10,0,0,0,0,0,0
2011,1765224357933,4,-9,0,0,0,0,0,0
2012,1765224357999,7,-9,-1,0,0,0,0,0
2013,1765224358066,6,-9,-1,0,0,0,0,0
2014,1765224358134,7,-12,0,0,0,0,0,0
2015,1765224358250,5,-10,1,0,0,0,0,0
2016,1765224358399,7,-10,-2,0,0,0,0,0
2017,1765224358399,6,-10,0,0,0,0,0,0
2018,1765224358450,7,-9,1,0,0,0,0,0
2019,1765224358566,6,-10,0,0,0,0,0,0
2020,1765224358616,7,-10,-1,0,0,0,0,0
2021,1765224358683,5,-10,0,0,0,0,0,0
2022,1765224358748,6,-9,0,0,0,0,0,0
2023,1765224358883,6,-9,0,0,0,0,0,0
2024,1765224359018,6,-11,-2,0,0,0,0,0
2025,1765224359084,6,-11,-1,0,0,0,0,0
2026,1765224359150,7,-11,-1,0,0,0,0,0
2027,1765224359201,7,-10,0,0,0,0,0,0
2028,1765224359301,6,-10,-1,0,0,0,0,0
2029,1765224359351,7,-9,-1,0,0,0,0,0
2030,1765224359418,6,-9,0,0,0,0,0,0
2031,1765224359484,7,-9,1,0,0,0,0,0
2032,1765224359618,4,-9,0,0,0,0,0,0
2033,1765224359668,5,-13,-1,0,0,0,0,0
2034,1765224359734,5,-10,1,0,0,0,0,0
2035,1765224359802,8,-10,1,0,0,0,0,0
2036,1765224359901,6,-7,-2,0,0,0,0,0
2037,1765224359967,6,-9,-3,0,0,0,0,0
2038,1765224360032,5,-11,-1,0,0,0,0,0
2039,1765224360084,9,-11,3,0,0,0,0,0
2040,1765224360218,8,-9,0,0,0,0,0,0
2041,1765224360284,3,-11,-2,0,0,0,0,0
2042,1765224360335,6,-9,-1,0,0,0,0,0
2043,1765224360401,8,-12,0,0,0,0,0,0
2044,1765224360501,7,-8,1,0,0,0,0,0
2045,1765224360567,6,-10,-1,0,0,0,0,0
2046,1765224360618,7,-10,0,0,0,0,0,0
2047,1765224360685,7,-10,0,0,0,0,0,0
2048,1765224360815,6,-10,0,0,0,0,0,0
2049,1765224360884,4,-10,255,0,0,0,0,0
2050,1765224360949,5,-11,-1,0,0,0,0,0
2051,1765224361017,7,-8,0,0,0,0,0,0
2052,1765224361101,5,-9,-1,0,0,0,0,0
2053,1765224361168,6,-9,-1,0,0,0,0,0
2054,1765224361218,9,-9,0,0,0,0,0,0
2055,1765224361284,9,-11,-1,0,0,0,0,0
2056,1765224361367,6,-10,-1,0,0,0,0,0
2057,1765224361485,8,-9,0,0,0,0,0,0
2058,1765224361551,7,-10,-1,0,0,0,0,0
2059,1765224361601,7,-10,0,0,0,0,0,0
2060,1765224361667,5,-11,0,0,0,0,0,0
2061,1765224361767,5,-9,0,0,0,0,0,0
2062,1765224361834,7,-9,-1,0,0,0,0,0
2063,1765224361884,6,-9,-1,0,0,0,0,0
2064,1765224361968,7,-9,0,0,0,0,0,0
2065,1765224362084,6,-11,-1,0,0,0,0,0
2066,1765224362218,7,-10,1,0,0,0,0,0
2067,1765224362285,6,-10,0,0,0,0,0,0
2068,1765224362351,3,-9,-1,0,0,0,0,0
2069,1765224362401,7,-9,-2,0,0,0,0,0
2070,1765224362518,7,-10,0,0,0,0,0,0
2071,1765224362584,6,-10,0,0,0,0,0,0
2072,1765224362635,10,-13,0,0,0,0,0,0
2073,1765224362701,6,-11,0,0,0,0,0,0
2074,1765224362834,6,-9,-3,0,0,0,0,0
2075,1765224362900,7,-9,-1,0,0,0,0,0
2076,1765224362969,7,-12,-1,0,0,0,0,0
2077,1765224363034,6,-11,1,0,0,0,0,0
2078,1765224363134,3,-7,5,0,0,0,0,0
2079,1765224363184,8,-12,-1,0,0,0,0,0
2080,1765224363251,7,-12,-6,0,0,0,0,0
2081,1765224363317,4,-12,-5,0,0,0,0,0
2082,1765224363451,5,-7,5,0,0,0,0,0
2083,1765224363516,9,-9,0,0,0,0,0,0
2084,1765224363584,8,-12,-2,0,0,0,0,0
2085,1765224363635,3,-10,-3,0,0,0,0,0
2086,1765224363751,5,-7,3,0,0,0,0,0
2087,1765224363817,7,-10,1,0,0,0,0,0
2088,1765224363866,5,-11,1,0,0,0,0,0
2089,1765224363934,8,-11,0,0,0,0,0,0
2090,1765224364067,5,-9,1,0,0,0,0,0
2091,1765224364133,6,-10,0,0,0,0,0,0
2092,1765224364202,9,-10,-1,0,0,0,0,0
2093,1765224364267,6,-11,-1,0,0,0,0,0
2094,1765224364367,5,-10,0,0,0,0,0,0
2095,1765224364418,6,-10,-1,0,0,0,0,0
2096,1765224364484,6,-10,-1,0,0,0,0,0
2097,1765224364551,6,-10,-2,0,0,0,0,0
2098,1765224364685,5,-8,-1,0,0,0,0,0
2099,1765224364751,6,-11,0,0,0,0,0,0
2100,1765224364800,5,-13,3,0,0,0,0,0
2101,1765224364867,7,-12,1,0,0,0,0,0
2102,1765224364968,6,-9,-1,0,0,0,0,0
2103,1765224365034,5,-8,-1,0,0,0,0,0
2104,1765224365085,7,-9,-1,0,0,0,0,0
2105,1765224365151,7,-11,-3,0,0,0,0,0
2106,1765224365301,8,-11,0,0,0,0,0,0
2107,1765224365433,8,-10,-1,0,0,0,0,0
2108,1765224365500,7,-9,-1,0,0,0,0,0
2109,1765224365568,7,-10,-1,0,0,0,0,0
2110,1765224365634,9,-10,-1,0,0,0,0,0
2111,1765224365734,6,-10,-1,0,0,0,0,0
2112,1765224365801,6,-10,-1,0,0,0,0,0
2113,1765224365866,8,-10,0,0,0,0,0,0
2114,1765224365917,6,-9,0,0,0,0,0,0
2115,1765224366067,8,-9,-1,0,0,0,0,0
2116,1765224366135,7,-11,0,0,0,0,0,0
2117,1765224366185,7,-12,-1,0,0,0,0,0
2118,1765224366250,5,-9,0,0,0,0,0,0
2119,1765224366351,6,-9,-1,0,0,0,0,0
2120,1765224366417,6,-9,-1,0,0,0,0,0
2121,1765224366484,6,-10,-1,0,0,0,0,0
2122,1765224366534,8,-9,-1,0,0,0,0,0
2123,1765224366668,5,-9,-1,0,0,0,0,0
2124,1765224366734,6,-10,0,0,0,0,0,0
2125,1765224366800,6,-11,-1,0,0,0,0,0
2126,1765224366850,8,-10,1,0,0,0,0,0
2127,1765224366951,7,-9,-2,0,0,0,0,0
2128,1765224367018,7,-10,-1,0,0,0,0,0
2129,1765224367084,7,-9,-1,0,0,0,0,0
2130,1765224367134,6,-9,-1,0,0,0,0,0
2131,1765224367284,5,-10,0,0,0,0,0,0
2132,1765224367335,6,-11,-1,0,0,0,0,0
2133,1765224367400,8,-10,1,0,0,0,0,0
2134,1765224367467,7,-10,-1,0,0,0,0,0
2135,1765224367567,8,-9,-1,0,0,0,0,0
2136,1765224367617,7,-9,-1,0,0,0,0,0
2137,1765224367683,7,-10,1,0,0,0,0,0
2138,1765224367750,6,-12,0,0,0,0,0,0
2139,1765224367883,7,-10,0,0,0,0,0,0
2140,1765224367951,7,-10,-1,0,0,0,0,0
2141,1765224368018,7,-10,-2,0,0,0,0,0
2142,1765224368067,6,-12,-1,0,0,0,0,0
2143,1765224368168,5,-10,0,0,0,0,0,0
2144,1765224368234,7,-10,1,0,0,0,0,0
2145,1765224368301,6,-9,-2,0,0,0,0,0
2146,1765224368351,5,-10,-1,0,0,0,0,0
2147,1765224368418,8,-9,-1,0,0,0,0,0
2148,1765224368484,7,-8,0,0,0,0,0,0
2149,1765224368551,7,-10,-1,0,0,0,0,0
2150,1765224368684,6,-10,-1,0,0,0,0,0
2151,1765224368751,7,-9,-1,0,0,0,0,0
2152,1765224368817,8,-11,1,0,0,0,0,0
2153,1765224368867,8,-9,0,0,0,0,0,0
2154,1765224368968,7,-11,-1,0,0,0,0,0
2155,1765224369034,7,-10,-1,0,0,0,0,0
2156,1765224369084,8,-9,-1,0,0,0,0,0
2157,1765224369151,6,-10,0,0,0,0,0,0
2158,1765224369341,6,-10,-1,0,0,0,0,0
2159,1765224369350,6,-11,0,0,0,0,0,0
2160,1765224369417,6,-11,0,0,0,0,0,0
2161,1765224369468,7,-9,-1,0,0,0,0,0
2162,1765224369568,7,-12,-2,0,0,0,0,0
2163,1765224369633,8,-9,-2,0,0,0,0,0
2164,1765224369701,6,-8,1,0,0,0,0,0
2165,1765224369751,6,-11,1,0,0,0,0,0
2166,1765224369885,6,-12,-2,0,0,0,0,0
2167,1765224369951,7,-10,0,0,0,0,0,0
2168,1765224370018,7,-9,-2,0,0,0,0,0
2169,1765224370068,7,-9,1,0,0,0,0,0
2170,1765224370168,7,-11,-1,0,0,0,0,0
2171,1765224370233,7,-10,-1,0,0,0,0,0
2172,1765224370299,6,-10,0,0,0,0,0,0
2173,1765224370353,4,-10,0,0,0,0,0,0
2174,1765224370485,6,-10,-1,0,0,0,0,0
2175,1765224370551,7,-10,-1,0,0,0,0,0
2176,1765224370618,7,-11,0,0,0,0,0,0
2177,1765224370684,6,-10,0,0,0,0,0,0
2178,1765224370801,7,-9,0,0,0,0,0,0
2179,1765224370851,7,-9,1,0,0,0,0,0
2180,1765224370917,5,-11,0,0,0,0,0,0
2181,1765224370968,7,-9,-1,0,0,0,0,0
2182,1765224371118,7,-11,0,0,0,0,0,0
2183,1765224371183,7,-10,0,0,0,0,0,0
2184,1765224371234,4,-10,0,0,0,0,0,0
2185,1765224371301,7,-9,-1,0,0,0,0,0
2186,1765224371401,6,-10,0,0,0,0,0,0
2187,1765224371468,6,-9,-1,0,0,0,0,0
2188,1765224371551,6,-9,0,0,0,0,0,0
2189,1765224371618,7,-9,-1,0,0,0,0,0
2190,1765224371667,6,-10,0,0,0,0,0,0
2191,1765224371734,7,-11,-2,0,0,0,0,0
2192,1765224371867,6,-10,0,0,0,0,0,0
2193,1765224371934,6,-10,-1,0,0,0,0,0
2194,1765224371999,7,-10,-1,0,0,0,0,0
2195,1765224372067,4,-10,-2,0,0,0,0,0
2196,1765224372168,6,-11,-2,0,0,0,0,0
2197,1765224372233,6,-10,-1,0,0,0,0,0
2198,1765224372284,7,-11,1,0,0,0,0,0
2199,1765224372351,6,-11,0,0,0,0,0,0
2200,1765224372484,7,-10,1,0,0,0,0,0
2201,1765224372552,7,-9,-1,0,0,0,0,0
2202,1765224372601,7,-9,-1,0,0,0,0,0
2203,1765224372667,6,-10,-1,0,0,0,0,0
2204,1765224372768,6,-10,1,0,0,0,0,0
2205,1765224373667,7,-9,-1,0,0,0,0,0
2206,1765224373868,8,-9,-1,0,0,0,0,0
2207,1765224373934,8,-10,-1,0,0,0,0,0
2208,1765224374151,8,-11,1,0,0,0,0,0
2209,1765224374234,7,-10,0,0,0,0,0,0
2210,1765224374483,8,-9,-1,0,0,0,0,0
2211,1765224374552,6,-11,0,0,0,0,0,0
2212,1765224374767,5,-10,0,0,0,0,0,0
2213,1765224374852,6,-11,-1,0,0,0,0,0
2214,1765224374918,9,-10,0,0,0,0,0,0
2215,1765224374999,5,-9,-1,0,0,0,0,0
2216,1765224375251,8,-10,-1,0,0,0,0,0
2217,1765224375334,6,-9,-1,0,0,0,0,0
2218,1765224375550,2,-10,-8,0,0,0,0,0
2219,1765224375717,5,-11,2,0,0,0,0,0
2220,1765224375817,10,-12,0,0,0,0,0,0
2221,1765224376085,6,-9,0,0,0,0,0,0
2222,1765224376184,5,-10,-1,0,0,0,0,0
2223,1765224376434,6,-9,0,0,0,0,0,0
2224,1765224376534,6,-10,0,0,0,0,0,0
2225,1765224376651,5,-11,-1,0,0,0,0,0
2226,1765224376733,6,-9,-1,0,0,0,0,0
2227,1765224376950,6,-10,0,0,0,0,0,0
2228,1765224377068,7,-10,0,0,0,0,0,0
2229,1765224377367,7,-11,-1,0,0,0,0,0
2230,1765224377451,8,-10,0,0,0,0,0,0
2231,1765224377701,9,-11,-1,0,0,0,0,0
2232,1765224377765,7,-9,-2,0,0,0,0,0
2233,1765224377934,5,-10,-1,0,0,0,0,0
2234,1765224378200,5,-10,-2,0,0,0,0,0
2235,1765224378401,6,-11,0,0,0,0,0,0
2236,1765224378484,7,-8,1,0,0,0,0,0
2237,1765224378536,6,-10,-1,0,0,0,0,0
2238,1765224378618,7,-10,-1,0,0,0,0,0
2239,1765224378834,7,-10,0,0,0,0,0,0
2240,1765224378951,9,-9,0,0,0,0,0,0
2241,1765224379134,8,-10,1,0,0,0,0,0
2242,1765224379334,6,-11,0,0,0,0,0,0
2243,1765224379466,7,-10,0,0,0,0,0,0
2244,1765224379701,6,-10,0,0,0,0,0,0
2245,1765224379769,5,-10,0,0,0,0,0,0
2246,1765224380067,6,-11,-1,0,0,0,0,0
2247,1765224380183,7,-9,0,0,0,0,0,0
2248,1765224380350,6,-9,-1,0,0,0,0,0
2249,1765224380499,6,-9,1,0,0,0,0,0
2250,1765224380734,6,-10,-1,0,0,0,0,0
2251,1765224380818,6,-11,-1,0,0,0,0,0
2252,1765224381183,5,-10,0,0,0,0,0,0
2253,1765224381283,6,-9,-1,0,0,0,0,0
2254,1765224381551,8,-9,-1,0,0,0,0,0
2255,1765224381685,7,-10,0,0,0,0,0,0
2256,1765224381917,6,-9,0,0,0,0,0,0
2257,1765224381984,7,-10,-1,0,0,0,0,0
2258,1765224382216,8,-10,-1,0,0,0,0,0
2259,1765224382351,6,-10,-1,0,0,0,0,0
2260,1765224382568,6,-10,0,0,0,0,0,0
2261,1765224382683,7,-12,0,0,0,0,0,0
2262,1765224383050,6,-9,0,0,0,0,0,0
2263,1765224383268,6,-10,0,0,0,0,0,0
2264,1765224383433,6,-10,-1,0,0,0,0,0
2265,1765224383551,6,-10,0,0,0,0,0,0
2266,1765224383717,7,-9,0,0,0,0,0,0
2267,1765224383834,5,-10,-1,0,0,0,0,0
2268,1765224384101,7,-10,-2,0,0,0,0,0
2269,1765224384251,6,-9,0,0,0,0,0,0
2270,1765224384317,6,-10,-1,0,0,0,0,0
2271,1765224384533,7,-10,-1,0,0,0,0,0
2272,1765224384650,9,-9,1,0,0,0,0,0
2273,1765224384851,7,-10,-1,0,0,0,0,0
2274,1765224385067,5,-10,0,0,0,0,0,0
2275,1765224385285,6,-10,-1,0,0,0,0,0
2276,1765224385417,5,-9,-5,0,0,0,0,0
2277,1765224385601,0,-9,-10,0,0,0,0,0
2278,1765224385750,-1,-10,-6,0,0,0,0,0
2279,1765224386118,5,-14,2,0,0,0,0,0
2280,1765224386267,8,-10,4,0,0,0,0,0
2281,1765224386417,10,-7,3,0,0,0,0,0
2282,1765224386851,7,-10,1,0,0,0,0,0
2283,1765224386983,7,-9,1,0,0,0,0,0
2284,1765224387151,6,-10,-1,0,0,0,0,0
2285,1765224387284,7,-10,-1,0,0,0,0,0
2286,1765224387482,7,-9,-1,0,0,0,0,0
2287,1765224387601,6,-9,-1,0,0,0,0,0
2288,1765224387833,6,-11,-2,0,0,0,0,0
2289,1765224387967,5,-11,0,0,0,0,0,0
2290,1765224388051,5,-11,0,0,0,0,0,0
2291,1765224388331,6,-10,-1,0,0,0,0,0
2292,1765224388483,6,-11,0,0,0,0,0,0
2293,1765224388699,5,-11,0,0,0,0,0,0
2294,1765224388798,5,-11,0,0,0,0,0,0
2295,1765224389000,6,-11,0,0,0,0,0,0
2296,1765224389150,6,-11,-1,0,0,0,0,0
2297,1765224389368,5,-10,0,0,0,0,0,0
2298,1765224389467,8,-10,0,0,0,0,0,0
2299,1765224389699,6,-11,-1,0,0,0,0,0
2300,1765224389848,7,-11,-1,0,0,0,0,0
2301,1765224390118,6,-10,-1,0,0,0,0,0
2302,1765224390216,5,-11,0,0,0,0,0,0
2303,1765224390366,5,-10,1,0,0,0,0,0
2304,1765224390567,8,-12,-3,0,0,0,0,0
2305,1765224390700,7,-12,-1,0,0,0,0,0
2306,1765224390900,7,-11,0,0,0,0,0,0
2307,1765224391050,4,-11,-1,0,0,0,0,0
2308,1765224391283,8,-7,1,0,0,0,0,0
2309,1765224391350,6,-12,-1,0,0,0,0,0
2310,1765224391783,5,-9,-2,0,0,0,0,0
2311,1765224392033,7,-11,-1,0,0,0,0,0
2312,1765224392117,6,-11,-1,0,0,0,0,0
2313,1765224392317,6,-10,0,0,0,0,0,0
2314,1765224392451,7,-10,-1,0,0,0,0,0
2315,1765224392700,7,-10,-1,0,0,0,0,0
2316,1765224392784,7,-10,-1,0,0,0,0,0
2317,1765224392850,7,-10,-2,0,0,0,0,0
2318,1765224392917,6,-9,0,0,0,0,0,0
2319,1765224393150,7,-9,-2,0,0,0,0,0
2320,1765224393417,6,-10,-1,0,0,0,0,0
2321,1765224393582,7,-10,-1,0,0,0,0,0
2322,1765224393651,6,-10,-1,0,0,0,0,0
2323,1765224393867,7,-9,0,0,0,0,0,0
2324,1765224393983,8,-10,0,0,0,0,0,0
2325,1765224394183,6,-11,0,0,0,0,0,0
2326,1765224394350,4,-10,-1,0,0,0,0,0
2327,1765224394600,5,-10,-1,0,0,0,0,0
2328,1765224394750,7,-10,-1,0,0,0,0,0
2329,1765224394917,6,-11,0,0,0,0,0,0
2330,1765224395167,6,-10,0,0,0,0,0,0
2331,1765224395400,6,-11,-1,0,0,0,0,0
2332,1765224395483,7,-8,0,0,0,0,0,0
2333,1765224395733,6,-9,0,0,0,0,0,0
2334,1765224395865,5,-10,-1,0,0,0,0,0
2335,1765224396050,5,-9,0,0,0,0,0,0
2336,1765224396217,6,-10,0,0,0,0,0,0
2337,1765224396417,6,-9,-1,0,0,0,0,0
2338,1765224396500,5,-10,0,0,0,0,0,0
2339,1765224396583,5,-9,-1,0,0,0,0,0
2340,1765224396699,7,-10,0,0,0,0,0,0
2341,1765224396950,7,-10,0,0,0,0,0,0
2342,1765224397183,6,-9,-1,0,0,0,0,0
2343,1765224397333,5,-9,0,0,0,0,0,0
2344,1765224397500,7,-10,-1,0,0,0,0,0
2345,1765224397667,6,-11,-1,0,0,0,0,0
2346,1765224397868,8,-13,-1,0,0,0,0,0
2347,1765224398050,7,-10,0,0,0,0,0,0
2348,1765224398217,6,-12,1,0,0,0,0,0
2349,1765224398665,7,-9,0,0,0,0,0,0
2350,1765224398800,7,-12,0,0,0,0,0,0
2351,1765224399015,7,-8,-1,0,0,0,0,0
2352,1765224399184,6,-10,1,0,0,0,0,0
2353,1765224399383,6,-11,0,0,0,0,0,0
2354,1765224399517,7,-9,0,0,0,0,0,0
2355,1765224399868,7,-8,-1,0,0,0,0,0
2356,1765224399950,5,-10,0,0,0,0,0,0
2357,1765224400250,9,-13,0,0,0,0,0,0
2358,1765224400383,6,-10,-1,0,0,0,0,0
2359,1765224400549,8,-10,0,0,0,0,0,0
2360,1765224400682,7,-10,0,0,0,0,0,0
2361,1765224400883,7,-10,0,0,0,0,0,0
2362,1765224401050,5,-9,-1,0,0,0,0,0
2363,1765224401167,6,-11,0,0,0,0,0,0
2364,1765224401382,5,-10,-1,0,0,0,0,0
2365,1765224401481,6,-10,-1,0,0,0,0,0
2366,1765224401668,3,-10,2,0,0,0,0,0
2367,1765224401816,6,-9,0,0,0,0,0,0
2368,1765224402133,7,-9,-1,0,0,0,0,0
2369,1765224402251,7,-10,0,0,0,0,0,0
2370,1765224402366,5,-10,-1,0,0,0,0,0
2371,1765224402550,6,-10,0,0,0,0,0,0
2372,1765224402749,8,-10,0,0,0,0,0,0
2373,1765224402920,8,-11,-1,0,0,0,0,0
2374,1765224402999,6,-10,-1,0,0,0,0,0
2375,1765224403184,6,-11,0,0,0,0,0,0
2376,1765224403302,6,-9,0,0,0,0,0,0
2377,1765224403417,6,-9,0,0,0,0,0,0
2378,1765224403567,8,-9,0,0,0,0,0,0
2379,1765224403784,5,-10,-1,0,0,0,0,0
2380,1765224404166,44,30,-22,0,0,0,0,0
2381,1765224404250,40,28,15,0,0,0,0,0
2382,1765224404450,-51,-79,-1,0,0,0,0,0
2383,1765224404783,6,-3,-31,0,0,0,0,0
2384,1765224404916,42,1,8,0,0,0,0,0
2385,1765224405100,22,-23,25,0,0,0,0,0
2386,1765224405233,-27,-4,20,0,0,0,0,0
2387,1765224405283,41,8,0,0,0,0,0,0
2388,1765224405517,9,-13,3,0,0,0,0,0
2389,1765224405666,31,-22,1,0,0,0,0,0
2390,1765224405833,9,-16,5,0,0,0,0,0
2391,1765224405984,-6,8,32,0,0,0,0,0
2392,1765224406084,13,-12,-12,0,0,0,0,0
2393,1765224406350,38,3,-10,0,0,0,0,0
2394,1765224406417,11,10,-9,0,0,0,0,0
2395,1765224406484,34,28,-20,0,0,0,0,0
2396,1765224406583,31,88,-21,0,0,0,0,0
2397,1765224406767,14,-12,60,0,0,0,0,0
2398,1765224406900,58,-37,0,0,0,0,0,0
2399,1765224407283,22,45,36,0,0,0,0,0
2400,1765224407533,57,-27,-70,0,0,0,0,0
2401,1765224407600,65,0,-22,0,0,0,0,0
2402,1765224407750,-11,-123,24,0,0,0,0,0
2403,1765224407950,46,-74,-25,0,0,0,0,0
2404,1765224408166,73,-72,-6,0,0,0,0,0
2405,1765224408300,3,-107,-29,0,0,0,0,0
2406,1765224408417,-9,-18,16,0,0,0,0,0
2407,1765224408633,126,-116,-18,0,0,0,0,0
2408,1765224408716,58,-84,40,0,0,0,0,0
2409,1765224409150,-52,-33,96,0,0,0,0,0
2410,1765224409250,-60,-49,16,0,0,0,0,0
2411,1765224409433,-56,-46,73,0,0,0,0,0
2412,1765224409567,10,97,4,0,0,0,0,0
2413,1765224409733,107,-2,7,0,0,0,0,0
2414,1765224409900,-83,67,-11,0,0,0,0,0
2415,1765224410100,50,-15,66,0,0,0,0,0
2416,1765224410234,14,6,10,0,0,0,0,0
2417,1765224410333,-10,17,94,0,0,0,0,0
2418,1765224410550,-9,-2,-77,0,0,0,0,0
2419,1765224410782,42,7,104,0,0,0,0,0
2420,1765224410916,-9,102,-58,0,0,0,0,0
2421,1765224411067,-4,0,27,0,0,0,0,0
2422,1765224411250,-49,73,-85,0,0,0,0,0
2423,1765224411367,-29,6,51,0,0,0,0,0
2424,1765224411450,-147,-1,-29,0,0,0,0,0
2425,1765224411516,99,-22,55,0,0,0,0,0
2426,1765224411783,211,-2,-63,0,0,0,0,0
2427,1765224411933,-54,116,-53,0,0,0,0,0
2428,1765224412117,51,55,48,0,0,0,0,0
2429,1765224412216,-105,-28,-200,0,0,0,0,0
2430,1765224412516,141,0,-35,0,0,0,0,0
2431,1765224412650,26,77,14,0,0,0,0,0
2432,1765224412883,-182,116,-112,0,0,0,0,0
2433,1765224412934,30,100,112,0,0,0,0,0
2434,1765224413217,9,113,29,0,0,0,0,0
2435,1765224413366,-9,-13,60,0,0,0,0,0
2436,1765224413600,-40,-32,8,0,0,0,0,0
2437,1765224413665,-67,-1,26,0,0,0,0,0
2438,1765224414099,112,-8,19,0,0,0,0,0
2439,1765224414367,-8,-39,32,0,0,0,0,0
2440,1765224414483,19,-1,28,0,0,0,0,0
2441,1765224414650,3,-7,2,0,0,0,0,0
2442,1765224414800,-93,-20,12,0,0,0,0,0
2443,1765224415066,-28,-14,51,0,0,0,0,0
2444,1765224415233,13,-5,-3,0,0,0,0,0
2445,1765224415350,6,-13,6,0,0,0,0,0
2446,1765224415534,7,-14,-3,0,0,0,0,0
2447,1765224415984,3,-8,1,0,0,0,0,0
2448,1765224416116,8,-10,-1,0,0,0,0,0
2449,1765224416283,5,-10,0,0,0,0,0,0
2450,1765224416433,7,-9,0,0,0,0,0,0
2451,1765224416650,5,-10,-1,0,0,0,0,0
2452,1765224416783,5,-11,-1,0,0,0,0,0
2453,1765224417050,6,-9,0,0,0,0,0,0
2454,1765224417150,5,-9,0,0,0,0,0,0
2455,1765224417383,5,-9,255,0,0,0,0,0
2456,1765224417598,6,-9,-1,0,0,0,0,0
2457,1765224417799,6,-10,-1,0,0,0,0,0
2458,1765224417882,7,-10,0,0,0,0,0,0
2459,1765224418115,6,-8,-1,0,0,0,0,0
2460,1765224418199,6,-9,1,0,0,0,0,0
2461,1765224418265,5,-10,-1,0,0,0,0,0
2462,1765224418399,6,-9,-1,0,0,0,0,0
2463,1765224418600,5,-9,-1,0,0,0,0,0
2464,1765224418815,8,-9,0,0,0,0,0,0
2465,1765224418983,6,-9,-1,0,0,0,0,0
2466,1765224419099,6,-10,0,0,0,0,0,0
2467,1765224419351,7,-8,-1,0,0,0,0,0
2468,1765224419533,4,-9,0,0,0,0,0,0
2469,1765224419734,6,-9,-1,0,0,0,0,0
2470,1765224419883,6,-8,0,0,0,0,0,0
2471,1765224420049,7,-10,0,0,0,0,0,0
2472,1765224420218,5,-9,0,0,0,0,0,0
2473,1765224420450,5,-9,-1,0,0,0,0,0
2474,1765224420584,6,-8,0,0,0,0,0,0
2475,1765224420801,5,-10,-1,0,0,0,0,0
2476,1765224420901,7,-10,-1,0,0,0,0,0
2477,1765224421183,4,-10,-1,0,0,0,0,0
2478,1765224421349,7,-9,0,0,0,0,0,0
2479,1765224421548,6,-10,0,0,0,0,0,0
2480,1765224421632,6,-9,-1,0,0,0,0,0
2481,1765224421881,5,-9,-1,0,0,0,0,0
2482,1765224422033,6,-8,0,0,0,0,0,0
2483,1765224422217,4,-9,0,0,0,0,0,0
2484,1765224422316,5,-8,0,0,0,0,0,0
2485,1765224422781,5,-9,-1,0,0,0,0,0
2486,1765224423016,6,-10,1,0,0,0,0,0
2487,1765224423116,5,-9,-1,0,0,0,0,0
2488,1765224423350,7,-7,0,0,0,0,0,0
2489,1765224423501,6,-9,0,0,0,0,0,0
2490,1765224423748,4,-11,0,0,0,0,0,0
2491,1765224423815,5,-9,-1,0,0,0,0,0
2492,1765224423865,5,-9,-1,0,0,0,0,0
2493,1765224424034,5,-10,-1,0,0,0,0,0
2494,1765224424165,7,-8,0,0,0,0,0,0
2495,1765224424617,6,-9,0,0,0,0,0,0
2496,1765224424849,5,-10,0,0,0,0,0,0
2497,1765224424932,4,-8,-1,0,0,0,0,0
2498,1765224425183,5,-11,0,0,0,0,0,0
2499,1765224425334,5,-10,-1,0,0,0,0,0
2500,1765224425566,6,-12,-1,0,0,0,0,0
2501,1765224425651,7,-12,0,0,0,0,0,0
2502,1765224425933,5,81,14,0,0,0,0,0
2503,1765224426168,12,153,-25,0,0,0,0,0
2504,1765224426319,24,87,0,0,0,0,0,0
2505,1765224426417,10,206,-29,0,0,0,0,0
2506,1765224426515,-26,243,5,0,0,0,0,0
2507,1765224426700,-10,256,5,0,0,0,0,0
2508,1765224426900,-38,260,-23,0,0,0,0,0
2509,1765224427116,18,310,-33,0,0,0,0,0
2510,1765224427248,-10,294,-39,0,0,0,0,0
2511,1765224427417,-48,313,-20,0,0,0,0,0
2512,1765224427833,-1,-30,-2,0,0,0,0,0
2513,1765224428000,12,-36,-23,0,0,0,0,0
2514,1765224428132,16,-65,-7,0,0,0,0,0
2515,1765224428550,11,-35,-2,0,0,0,0,0
2516,1765224428666,3,-37,-6,0,0,0,0,0
2517,1765224428833,7,-24,-4,0,0,0,0,0
2518,1765224428981,3,5,1,0,0,0,0,0
2519,1765224429233,1,11,2,0,0,0,0,0
2520,1765224429467,8,20,0,0,0,0,0,0
2521,1765224429666,11,51,3,0,0,0,0,0
2522,1765224429785,1,54,-6,0,0,0,0,0
2523,1765224429967,9,61,1,0,0,0,0,0
2524,1765224430383,1,112,4,0,0,0,0,0
2525,1765224430450,-1,118,13,0,0,0,0,0
2526,1765224430664,-8,123,-15,0,0,0,0,0
2527,1765224430816,-3,163,-3,0,0,0,0,0
2528,1765224431134,0,153,6,0,0,0,0,0
2529,1765224431234,-1,167,-4,0,0,0,0,0
2530,1765224431450,17,187,-5,0,0,0,0,0
2531,1765224431549,9,191,10,0,0,0,0,0
2532,1765224431816,7,190,21,0,0,0,0,0
2533,1765224431900,-2,193,-22,0,0,0,0,0
2534,1765224432117,4,230,-7,0,0,0,0,0
2535,1765224432251,8,236,-10,0,0,0,0,0
2536,1765224432450,-14,262,-26,0,0,0,0,0
2537,1765224432933,-16,251,-5,0,0,0,0,0
2538,1765224432998,-12,285,-32,0,0,0,0,0
2539,1765224433233,7,272,-2,0,0,0,0,0
2540,1765224433383,25,201,-48,0,0,0,0,0
2541,1765224433616,4,164,-28,0,0,0,0,0
2542,1765224433716,0,107,6,0,0,0,0,0
2543,1765224434083,9,63,-19,0,0,0,0,0
2544,1765224434383,-14,66,0,0,0,0,0,0
2545,1765224434449,-15,59,9,0,0,0,0,0
2546,1765224434533,-1,59,12,0,0,0,0,0
2547,1765224434616,-1,50,6,0,0,0,0,0
2548,1765224434814,-9,55,4,0,0,0,0,0
2549,1765224434949,-22,56,9,0,0,0,0,0
2550,1765224435150,-12,57,-2,0,0,0,0,0
2551,1765224435283,-10,26,-12,0,0,0,0,0
2552,1765224435514,-19,31,-18,0,0,0,0,0
2553,1765224435736,-15,33,-33,0,0,0,0,0
2554,1765224435967,-5,13,0,0,0,0,0,0
2555,1765224436250,11,9,4,0,0,0,0,0
2556,1765224436333,2,4,10,0,0,0,0,0
2557,1765224436467,9,5,1,0,0,0,0,0
2558,1765224436684,4,10,5,0,0,0,0,0
2559,1765224436833,16,6,1,0,0,0,0,0
2560,1765224437000,5,9,-5,0,0,0,0,0
2561,1765224437133,-2,1,-6,0,0,0,0,0
2562,1765224437283,2,-3,1,0,0,0,0,0
2563,1765224437416,4,-4,1,0,0,0,0,0
2564,1765224437900,7,-8,2,0,0,0,0,0
2565,1765224438117,8,-10,-1,0,0,0,0,0
2566,1765224438200,5,-8,-2,0,0,0,0,0
2567,1765224438316,3,-9,0,0,0,0,0,0
2568,1765224438499,6,-9,1,0,0,0,0,0
2569,1765224438650,6,-9,0,0,0,0,0,0
2570,1765224438849,5,-11,0,0,0,0,0,0
2571,1765224438933,6,-9,-1,0,0,0,0,0
2572,1765224439049,4,-9,0,0,0,0,0,0
2573,1765224439216,8,-7,1,0,0,0,0,0
2574,1765224439450,7,-11,-1,0,0,0,0,0
2575,1765224439733,6,-7,1,0,0,0,0,0
2576,1765224439833,7,-9,0,0,0,0,0,0
2577,1765224440049,5,-9,-2,0,0,0,0,0
2578,1765224440216,6,-9,0,0,0,0,0,0
2579,1765224440449,7,-9,0,0,0,0,0,0
2580,1765224440550,8,-11,-1,0,0,0,0,0
2581,1765224440816,5,-9,-1,0,0,0,0,0
2582,1765224440967,5,-9,0,0,0,0,0,0
2583,1765224441118,6,-9,0,0,0,0,0,0
2584,1765224441450,5,-10,0,0,0,0,0,0
2585,1765224441649,5,-10,-1,0,0,0,0,0
2586,1765224441732,6,-8,0,0,0,0,0,0
2587,1765224441933,5,-9,0,0,0,0,0,0
2588,1765224442015,7,-9,0,0,0,0,0,0
2589,1765224442166,7,-9,-1,0,0,0,0,0
2590,1765224442366,6,-9,0,0,0,0,0,0
2591,1765224442500,6,-8,0,0,0,0,0,0
2592,1765224442633,3,-8,0,0,0,0,0,0
2593,1765224442766,0,-9,-1,0,0,0,0,0
2594,1765224442916,8,-10,1,0,0,0,0,0
2595,1765224443399,5,-9,0,0,0,0,0,0
2596,1765224443516,7,-10,0,0,0,0,0,0
2597,1765224443683,5,-8,-1,0,0,0,0,0
2598,1765224443800,5,-9,0,0,0,0,0,0
2599,1765224443866,7,-10,-2,0,0,0,0,0
2600,1765224444066,5,-9,-2,0,0,0,0,0
2601,1765224444183,7,-10,-1,0,0,0,0,0
2602,1765224444483,7,-8,-1,0,0,0,0,0
2603,1765224444583,6,-11,0,0,0,0,0,0
2604,1765224444766,6,-10,0,0,0,0,0,0
2605,1765224444999,5,-8,0,0,0,0,0,0
2606,1765224445216,6,-9,-1,0,0,0,0,0
2607,1765224445366,6,-8,-1,0,0,0,0,0
2608,1765224445533,6,-10,0,0,0,0,0,0
2609,1765224445584,5,-10,-1,0,0,0,0,0
2610,1765224445783,5,-9,-1,0,0,0,0,0
2611,1765224445933,4,-10,1,0,0,0,0,0
2612,1765224446116,7,-12,0,0,0,0,0,0
2613,1765224446233,6,-8,0,0,0,0,0,0
2614,1765224446432,5,-9,0,0,0,0,0,0
2615,1765224446983,5,-10,-1,0,0,0,0,0
2616,1765224447216,6,-11,1,0,0,0,0,0
2617,1765224447282,7,-10,0,0,0,0,0,0
2618,1765224447516,7,-3,1,0,0,0,0,0
2619,1765224447697,3,-1,-1,0,0,0,0,0
2620,1765224447950,6,-5,2,0,0,0,0,0
2621,1765224448015,10,-4,7,0,0,0,0,0
2622,1765224448100,10,0,0,0,0,0,0,0
2623,1765224448300,1,-5,2,0,0,0,0,0
2624,1765224448534,6,1,7,0,0,0,0,0
2625,1765224448800,15,-17,-4,0,0,0,0,0
2626,1765224448866,12,-17,-12,0,0,0,0,0
2627,1765224449100,13,-14,-10,0,0,0,0,0
2628,1765224449283,-1,-17,-2,0,0,0,0,0
2629,1765224449500,-105,-17,20,0,0,0,0,0
2630,1765224449599,89,-56,22,0,0,0,0,0
2631,1765224449799,-4,51,24,0,0,0,0,0
2632,1765224450250,9,88,-2,0,0,0,0,0
2633,1765224450450,-17,-119,34,0,0,0,0,0
2634,1765224450633,91,212,-41,0,0,0,0,0
2635,1765224450766,26,150,30,0,0,0,0,0
2636,1765224450966,-4,219,-11,0,0,0,0,0
2637,1765224451216,-8,299,-33,0,0,0,0,0
2638,1765224451366,-7,346,-60,0,0,0,0,0
2639,1765224451583,-5,333,-7,0,0,0,0,0
2640,1765224452066,7,446,-14,0,0,0,0,0
2641,1765224452366,33,489,-39,0,0,0,0,0
2642,1765224452533,-76,370,-20,0,0,0,0,0
2643,1765224452766,3,350,9,0,0,0,0,0
2644,1765224452950,25,347,-15,0,0,0,0,0
2645,1765224453067,12,305,-8,0,0,0,0,0
2646,1765224453133,-4,249,1,0,0,0,0,0
2647,1765224453233,5,282,17,0,0,0,0,0
2648,1765224453499,-46,228,-33,0,0,0,0,0
2649,1765224453766,28,77,47,0,0,0,0,0
2650,1765224453883,18,94,-31,0,0,0,0,0
2651,1765224454116,45,70,35,0,0,0,0,0
2652,1765224454249,1,21,-8,0,0,0,0,0
2653,1765224454566,-146,113,-72,0,0,0,0,0
2654,1765224454633,-145,84,51,0,0,0,0,0
2655,1765224454850,-178,79,-25,0,0,0,0,0
2656,1765224455199,-28,26,-6,0,0,0,0,0
2657,1765224455316,103,-28,27,0,0,0,0,0
2658,1765224455549,29,-14,42,0,0,0,0,0
2659,1765224455698,-9,-19,1,0,0,0,0,0
2660,1765224455965,74,-23,-7,0,0,0,0,0
2661,1765224456031,51,-32,53,0,0,0,0,0
2662,1765224456349,-42,10,-34,0,0,0,0,0
2663,1765224456449,106,-46,-21,0,0,0,0,0
2664,1765224456731,-69,-94,83,0,0,0,0,0
2665,1765224456949,53,-60,56,0,0,0,0,0
2666,1765224457148,-31,-55,-36,0,0,0,0,0
2667,1765224457332,-26,2,-16,0,0,0,0,0
2668,1765224457498,168,-68,-21,0,0,0,0,0
2669,1765224457686,-56,59,-18,0,0,0,0,0
2670,1765224457782,-21,-31,4,0,0,0,0,0
2671,1765224457899,-6,1,-15,0,0,0,0,0
2672,1765224458132,34,-88,-14,0,0,0,0,0
2673,1765224458283,-39,-97,-13,0,0,0,0,0
2674,1765224458601,98,-97,28,0,0,0,0,0
2675,1765224458751,21,-109,40,0,0,0,0,0
2676,1765224458997,-55,-16,-22,0,0,0,0,0
2677,1765224459068,-20,-27,10,0,0,0,0,0
2678,1765224459335,28,-47,-7,0,0,0,0,0
2679,1765224459481,-24,16,-35,0,0,0,0,0
2680,1765224459716,40,29,-255,0,0,0,0,0
2681,1765224459831,45,23,6,0,0,0,0,0
2682,1765224460182,60,1,-38,0,0,0,0,0
2683,1765224460365,-98,44,24,0,0,0,0,0
2684,1765224460480,14,-246,13,0,0,0,0,0
2685,1765224460767,-26,-12,24,0,0,0,0,0
2686,1765224460916,22,39,-7,0,0,0,0,0
2687,1765224461149,38,37,16,0,0,0,0,0
2688,1765224461332,34,46,-52,0,0,0,0,0
2689,1765224461567,-32,48,40,0,0,0,0,0
2690,1765224461783,23,68,-38,0,0,0,0,0
2691,1765224462033,24,68,-54,0,0,0,0,0
2692,1765224462167,-13,63,-18,0,0,0,0,0
2693,1765224462333,5,56,-1,0,0,0,0,0
2694,1765224462517,6,54,-21,0,0,0,0,0
2695,1765224462766,9,39,-19,0,0,0,0,0
2696,1765224462999,-17,49,-9,0,0,0,0,0
2697,1765224463066,-11,48,2,0,0,0,0,0
2698,1765224463149,4,60,-15,0,0,0,0,0
2699,1765224463433,-13,44,-12,0,0,0,0,0
2700,1765224463632,-1,18,-46,0,0,0,0,0
2701,1765224463883,38,20,-20,0,0,0,0,0
2702,1765224464049,25,14,5,0,0,0,0,0
2703,1765224464216,-25,28,-12,0,0,0,0,0
2704,1765224464483,15,6,7,0,0,0,0,0
2705,1765224464616,37,5,2,0,0,0,0,0
2706,1765224464867,-9,-11,-13,0,0,0,0,0
2707,1765224465015,24,-44,1,0,0,0,0,0
2708,1765224465316,10,-39,-5,0,0,0,0,0
2709,1765224465415,17,-30,-5,0,0,0,0,0
2710,1765224465698,18,-9,8,0,0,0,0,0
2711,1765224465766,16,-34,10,0,0,0,0,0
2712,1765224466033,4,-14,4,0,0,0,0,0
2713,1765224466166,6,-13,-21,0,0,0,0,0
2714,1765224466433,18,-23,-3,0,0,0,0,0
2715,1765224466517,22,-34,8,0,0,0,0,0
2716,1765224466800,1,-13,6,0,0,0,0,0
2717,1765224467047,-3,-4,10,0,0,0,0,0
2718,1765224467199,-27,1,5,0,0,0,0,0
2719,1765224467415,16,-13,5,0,0,0,0,0
2720,1765224467582,11,11,-1,0,0,0,0,0
2721,1765224467832,24,6,12,0,0,0,0,0
2722,1765224467932,1,9,-16,0,0,0,0,0
2723,1765224468164,2,26,7,0,0,0,0,0
2724,1765224468316,20,26,-2,0,0,0,0,0
2725,1765224468632,4,19,-9,0,0,0,0,0
2726,1765224468765,9,17,2,0,0,0,0,0
2727,1765224468965,21,13,-254,0,0,0,0,0
2728,1765224469071,5,13,-15,0,0,0,0,0
2729,1765224469333,3,13,-7,0,0,0,0,0
2730,1765224469482,4,-5,-3,0,0,0,0,0
2731,1765224469649,9,-6,5,0,0,0,0,0
2732,1765224469783,-1,-4,3,0,0,0,0,0
2733,1765224469983,-14,-7,-3,0,0,0,0,0
2734,1765224470016,14,-9,-1,0,0,0,0,0
2735,1765224470249,2,-9,1,0,0,0,0,0
2736,1765224470501,7,-11,-1,0,0,0,0,0
2737,1765224470650,6,-8,0,0,0,0,0,0
2738,1765224470817,3,-8,-1,0,0,0,0,0
2739,1765224470947,7,-11,0,0,0,0,0,0
2740,1765224471399,3,-10,-1,0,0,0,0,0
2741,1765224471531,8,-11,0,0,0,0,0,0
2742,1765224471698,8,-12,-1,0,0,0,0,0
2743,1765224472148,3,-11,0,0,0,0,0,0
2744,1765224472282,7,-8,-1,0,0,0,0,0
2745,1765224472499,7,-9,0,0,0,0,0,0
2746,1765224472584,6,-11,0,0,0,0,0,0
2747,1765224472817,3,-9,-1,0,0,0,0,0
2748,1765224472965,4,-9,0,0,0,0,0,0
2749,1765224473166,5,-9,-1,0,0,0,0,0
2750,1765224473315,5,-10,1,0,0,0,0,0
2751,1765224473499,5,-9,-1,0,0,0,0,0
2752,1765224473765,5,-8,0,0,0,0,0,0
2753,1765224474083,6,-10,-1,0,0,0,0,0
2754,1765224474199,6,-9,-1,0,0,0,0,0
2755,1765224474399,7,-10,0,0,0,0,0,0
2756,1765224474531,5,-10,0,0,0,0,0,0
2757,1765224474765,6,-9,0,0,0,0,0,0
2758,1765224475014,5,-8,1,0,0,0,0,0
2759,1765224475234,6,-11,2,0,0,0,0,0
2760,1765224475317,6,-11,-1,0,0,0,0,0
2761,1765224475766,7,-13,5,0,0,0,0,0
2762,1765224475932,4,-6,-6,0,0,0,0,0
2763,1765224476051,2,-10,-3,0,0,0,0,0
2764,1765224476167,6,-8,0,0,0,0,0,0
2765,1765224476365,6,-11,0,0,0,0,0,0
2766,1765224476497,7,-8,-1,0,0,0,0,0
2767,1765224476648,7,-8,1,0,0,0,0,0
2768,1765224476965,6,-9,1,0,0,0,0,0
2769,1765224477065,6,-12,-256,0,0,0,0,0
2770,1765224477249,6,-10,0,0,0,0,0,0
2771,1765224477682,5,-9,-1,0,0,0,0,0
2772,1765224477765,5,-10,-1,0,0,0,0,0
2773,1765224477997,5,-11,-2,0,0,0,0,0
2774,1765224478132,4,-9,2,0,0,0,0,0
2775,1765224478198,6,-9,-2,0,0,0,0,0
2776,1765224478464,5,-10,-1,0,0,0,0,0
2777,1765224478548,6,-10,1,0,0,0,0,0
2778,1765224478866,6,-9,1,0,0,0,0,0
2779,1765224478949,6,-8,-1,0,0,0,0,0
2780,1765224479232,5,-9,0,0,0,0,0,0
2781,1765224479299,5,-9,0,0,0,0,0,0
2782,1765224479557,5,-10,1,0,0,0,0,0
2783,1765224479632,5,-9,-1,0,0,0,0,0
2784,1765224479783,6,-10,0,0,0,0,0,0
2785,1765224479966,6,-10,1,0,0,0,0,0
2786,1765224480114,8,-10,0,0,0,0,0,0
2787,1765224480366,5,-10,0,0,0,0,0,0
2788,1765224480449,6,-9,0,0,0,0,0,0
2789,1765224480749,7,-8,-1,0,0,0,0,0
2790,1765224480998,4,-10,-1,0,0,0,0,0
2791,1765224481132,5,-9,-1,0,0,0,0,0
2792,1765224481216,5,-9,0,0,0,0,0,0
2793,1765224481366,3,-8,0,0,0,0,0,0
2794,1765224481515,6,-9,0,0,0,0,0,0
2795,1765224481766,5,-8,0,0,0,0,0,0
2796,1765224481932,5,-9,-1,0,0,0,0,0
2797,1765224482115,7,-9,-1,0,0,0,0,0
2798,1765224482232,5,-10,0,0,0,0,0,0
2799,1765224482516,6,-10,0,0,0,0,0,0
2800,1765224482766,4,-8,0,0,0,0,0,0
2801,1765224482932,6,-10,-1,0,0,0,0,0
2802,1765224483032,7,-10,0,0,0,0,0,0
2803,1765224483165,6,-9,1,0,0,0,0,0
2804,1765224483332,5,-8,1,0,0,0,0,0
2805,1765224483599,5,-9,-2,0,0,0,0,0
2806,1765224483749,6,-9,1,0,0,0,0,0
2807,1765224483983,5,-9,-1,0,0,0,0,0
2808,1765224484065,4,-8,-1,0,0,0,0,0
2809,1765224484431,6,-9,0,0,0,0,0,0
2810,1765224484532,4,-9,-1,0,0,0,0,0
2811,1765224484749,4,-10,0,0,0,0,0,0
2812,1765224485165,5,-10,-1,0,0,0,0,0
2813,1765224485316,3,-8,0,0,0,0,0,0
2814,1765224485466,4,-7,-2,0,0,0,0,0
2815,1765224485700,5,-8,-1,0,0,0,0,0
2816,1765224485932,6,-10,-1,0,0,0,0,0
2817,1765224486182,6,-8,-2,0,0,0,0,0
2818,1765224486282,4,-10,-1,0,0,0,0,0
2819,1765224486348,7,-9,0,0,0,0,0,0
2820,1765224486566,6,-9,0,0,0,0,0,0
2821,1765224486749,5,-10,0,0,0,0,0,0
2822,1765224487015,6,-10,0,0,0,0,0,0
2823,1765224487200,4,-10,0,0,0,0,0,0
2824,1765224487315,6,-9,0,0,0,0,0,0
2825,1765224487697,6,-9,0,0,0,0,0,0
2826,1765224487782,4,-9,-1,0,0,0,0,0
2827,1765224488016,5,-10,-1,0,0,0,0,0
2828,1765224488065,6,-11,0,0,0,0,0,0
2829,1765224488182,6,-9,0,0,0,0,0,0
2830,1765224488449,4,-9,0,0,0,0,0,0
2831,1765224488530,6,-9,0,0,0,0,0,0
2832,1765224488849,6,-9,-1,0,0,0,0,0
2833,1765224488931,4,-9,-1,0,0,0,0,0
2834,1765224489215,5,-10,0,0,0,0,0,0
2835,1765224489499,4,-8,1,0,0,0,0,0
2836,1765224489598,5,-9,-1,0,0,0,0,0
2837,1765224489849,6,-10,0,0,0,0,0,0
2838,1765224489999,6,-8,0,0,0,0,0,0
2839,1765224490264,7,-10,0,0,0,0,0,0
2840,1765224490490,5,-9,-3,0,0,0,0,0
2841,1765224490565,6,-11,-1,0,0,0,0,0
2842,1765224490599,5,-9,-1,0,0,0,0,0
2843,1765224490699,4,-10,-1,0,0,0,0,0
2844,1765224491016,7,-9,0,0,0,0,0,0
2845,1765224491182,6,-9,0,0,0,0,0,0
2846,1765224491398,7,-10,0,0,0,0,0,0
2847,1765224491549,4,-8,0,0,0,0,0,0
2848,1765224491732,6,-9,0,0,0,0,0,0
2849,1765224491964,6,-9,-1,0,0,0,0,0
2850,1765224492132,5,-10,0,0,0,0,0,0
2851,1765224492316,6,-11,-1,0,0,0,0,0
2852,1765224492516,5,-9,0,0,0,0,0,0
2853,1765224492831,4,-9,1,0,0,0,0,0
2854,1765224492916,6,-9,0,0,0,0,0,0
2855,1765224493216,4,-8,-1,0,0,0,0,0
2856,1765224493266,6,-9,0,0,0,0,0,0
2857,1765224493533,5,-8,-1,0,0,0,0,0
2858,1765224493682,6,-8,-1,0,0,0,0,0
2859,1765224493915,7,-10,-1,0,0,0,0,0
2860,1765224493998,3,-8,2,0,0,0,0,0
2861,1765224494282,7,-8,-3,0,0,0,0,0
2862,1765224494483,5,-8,-1,0,0,0,0,0
2863,1765224494665,8,-9,1,0,0,0,0,0
2864,1765224494866,5,-10,0,0,0,0,0,0
2865,1765224494984,7,-9,0,0,0,0,0,0
2866,1765224495066,3,-11,3,0,0,0,0,0
2867,1765224495249,8,-8,1,0,0,0,0,0
2868,1765224495364,6,-6,2,0,0,0,0,0
2869,1765224495632,6,-9,0,0,0,0,0,0
2870,1765224495865,5,-12,-1,0,0,0,0,0
2871,1765224496065,6,-9,1,0,0,0,0,0
2872,1765224496248,5,-10,-2,0,0,0,0,0
2873,1765224496449,5,-8,0,0,0,0,0,0
2874,1765224496648,6,-10,0,0,0,0,0,0
2875,1765224496782,6,-9,1,0,0,0,0,0
2876,1765224496998,7,-9,0,0,0,0,0,0
2877,1765224497165,6,-9,0,0,0,0,0,0
2878,1765224497466,5,-10,0,0,0,0,0,0
2879,1765224497632,5,-10,0,0,0,0,0,0
2880,1765224497832,6,-9,0,0,0,0,0,0
2881,1765224497914,6,-9,-1,0,0,0,0,0
2882,1765224498199,4,-8,0,0,0,0,0,0
2883,1765224498348,5,-8,0,0,0,0,0,0
2884,1765224498582,4,-9,0,0,0,0,0,0
2885,1765224498682,5,-9,-1,0,0,0,0,0
2886,1765224498965,7,-9,0,0,0,0,0,0
2887,1765224499215,6,-10,0,0,0,0,0,0
2888,1765224499333,4,-10,0,0,0,0,0,0
2889,1765224499532,5,-9,0,0,0,0,0,0
2890,1765224499715,4,-9,1,0,0,0,0,0
2891,1765224499932,5,-8,0,0,0,0,0,0
2892,1765224500032,5,-10,0,0,0,0,0,0
2893,1765224500132,5,-9,-2,0,0,0,0,0
2894,1765224500265,6,-9,0,0,0,0,0,0
2895,1765224500416,5,-10,-1,0,0,0,0,0
2896,1765224500880,5,-10,0,0,0,0,0,0
2897,1765224501081,5,-9,0,0,0,0,0,0
2898,1765224501181,5,-10,1,0,0,0,0,0
2899,1765224501464,7,-10,0,0,0,0,0,0
2900,1765224501614,7,-7,0,0,0,0,0,0
2901,1765224501847,3,-10,0,0,0,0,0,0
2902,1765224502014,6,-11,-1,0,0,0,0,0
2903,1765224502231,4,-9,-1,0,0,0,0,0
2904,1765224502498,5,-8,-256,0,0,0,0,0
2905,1765224502697,5,-9,1,0,0,0,0,0
2906,1765224502831,5,-10,-1,0,0,0,0,0
2907,1765224502997,5,-9,0,0,0,0,0,0
2908,1765224503214,5,-9,0,0,0,0,0,0
2909,1765224503380,4,-8,0,0,0,0,0,0
2910,1765224503463,6,-8,0,0,0,0,0,0
2911,1765224503663,5,-10,1,0,0,0,0,0
2912,1765224503814,5,-9,-1,0,0,0,0,0
2913,1765224504114,4,-9,1,0,0,0,0,0
2914,1765224504232,6,-9,0,0,0,0,0,0
2915,1765224504416,6,-9,-1,0,0,0,0,0
2916,1765224504465,2,-7,-1,0,0,0,0,0
2917,1765224504565,5,-9,-1,0,0,0,0,0
2918,1765224504797,7,-10,1,0,0,0,0,0
2919,1765224504915,4,-9,0,0,0,0,0,0
2920,1765224505166,5,-8,-1,0,0,0,0,0
2921,1765224505282,5,-9,0,0,0,0,0,0
2922,1765224505499,6,-10,0,0,0,0,0,0
2923,1765224505932,6,-9,255,0,0,0,0,0
2924,1765224506015,6,-8,1,0,0,0,0,0
2925,1765224506265,7,-9,-1,0,0,0,0,0
2926,1765224506315,4,-10,0,0,0,0,0,0
2927,1765224506382,4,-10,-1,0,0,0,0,0
2928,1765224506498,5,-10,-1,0,0,0,0,0
2929,1765224506732,5,-9,-1,0,0,0,0,0
2930,1765224506866,7,-9,2,0,0,0,0,0
2931,1765224506966,4,-11,0,0,0,0,0,0
2932,1765224507148,6,-10,0,0,0,0,0,0
2933,1765224507298,6,-9,-1,0,0,0,0,0
2934,1765224507716,6,-8,0,0,0,0,0,0
2935,1765224507898,5,-11,1,0,0,0,0,0
2936,1765224508047,4,-11,0,0,0,0,0,0
2937,1765224508197,5,-9,0,0,0,0,0,0
2938,1765224508332,5,-8,0,0,0,0,0,0
2939,1765224508598,5,-8,-1,0,0,0,0,0
2940,1765224508665,6,-9,1,0,0,0,0,0
2941,1765224509033,6,-8,1,0,0,0,0,0
2942,1765224509298,4,-10,0,0,0,0,0,0
2943,1765224509447,5,-8,0,0,0,0,0,0
2944,1765224509532,5,-9,-1,0,0,0,0,0
2945,1765224509765,5,-9,-1,0,0,0,0,0
2946,1765224509815,4,-9,1,0,0,0,0,0
2947,1765224510231,6,-8,0,0,0,0,0,0
2948,1765224510316,6,-10,0,0,0,0,0,0
2949,1765224510516,5,-9,-1,0,0,0,0,0
2950,1765224510665,7,-8,-1,0,0,0,0,0
2951,1765224510849,6,-9,-1,0,0,0,0,0
2952,1765224511082,7,-9,0,0,0,0,0,0
2953,1765224511397,5,-10,-1,0,0,0,0,0
2954,1765224511548,5,-9,1,0,0,0,0,0
2955,1765224511698,7,-10,0,0,0,0,0,0
2956,1765224512031,6,-10,0,0,0,0,0,0
2957,1765224512148,7,-9,1,0,0,0,0,0
2958,1765224512380,1,-9,0,0,0,0,0,0
2959,1765224512431,6,-10,-2,0,0,0,0,0
2960,1765224512548,4,-9,-1,0,0,0,0,0
2961,1765224512865,7,-9,0,0,0,0,0,0
2962,1765224512947,5,-9,1,0,0,0,0,0
2963,1765224513280,5,-8,0,0,0,0,0,0
2964,1765224513380,6,-9,0,0,0,0,0,0
2965,1765224513615,5,-9,-1,0,0,0,0,0
2966,1765224513882,7,-10,0,0,0,0,0,0
2967,1765224514048,6,-11,0,0,0,0,0,0
2968,1765224514199,7,-10,0,0,0,0,0,0
2969,1765224514367,5,-9,-1,0,0,0,0,0
2970,1765224514598,6,-9,-1,0,0,0,0,0
2971,1765224514799,6,-7,0,0,0,0,0,0
2972,1765224515198,5,-10,0,0,0,0,0,0
2973,1765224515415,5,-9,-1,0,0,0,0,0
2974,1765224515532,6,-9,0,0,0,0,0,0
2975,1765224515631,4,-9,-1,0,0,0,0,0
2976,1765224515748,6,-9,0,0,0,0,0,0
2977,1765224515915,6,-8,-1,0,0,0,0,0
2978,1765224516382,6,-9,-1,0,0,0,0,0
2979,1765224516600,7,-10,0,0,0,0,0,0
2980,1765224516681,6,-9,-1,0,0,0,0,0
2981,1765224516997,5,-10,0,0,0,0,0,0
2982,1765224517132,4,-10,0,0,0,0,0,0
2983,1765224517349,5,-11,0,0,0,0,0,0
2984,1765224517547,5,-9,1,0,0,0,0,0
2985,1765224517782,4,-9,0,0,0,0,0,0
2986,1765224518065,5,-10,-1,0,0,0,0,0
2987,1765224518115,6,-8,-1,0,0,0,0,0
2988,1765224518232,4,-10,1,0,0,0,0,0
2989,1765224518462,6,-9,0,0,0,0,0,0
2990,1765224518548,5,-10,0,0,0,0,0,0
2991,1765224518881,5,-8,-1,0,0,0,0,0
2992,1765224518946,6,-9,-1,0,0,0,0,0
2993,1765224519181,7,-9,-1,0,0,0,0,0
2994,1765224519615,7,-10,0,0,0,0,0,0
2995,1765224519765,5,-10,0,0,0,0,0,0
2996,1765224519915,6,-10,0,0,0,0,0,0
2997,1765224519999,5,-9,0,0,0,0,0,0
2998,1765224520149,5,-10,-1,0,0,0,0,0
2999,1765224520348,6,-9,1,0,0,0,0,0
3000,1765224520582,5,-10,0,0,0,0,0,0
3001,1765224520616,4,-9,0,0,0,0,0,0
3002,1765224520748,5,-9,1,0,0,0,0,0
3003,1765224520982,6,-10,-1,0,0,0,0,0
3004,1765224521231,6,-8,0,0,0,0,0,0
3005,1765224521448,5,-9,1,0,0,0,0,0
3006,1765224521599,4,-8,-1,0,0,0,0,0
3007,1765224521749,3,-8,-1,0,0,0,0,0
3008,1765224521949,5,-9,1,0,0,0,0,0
3009,1765224522164,5,-11,0,0,0,0,0,0
3010,1765224522348,5,-8,0,0,0,0,0,0
3011,1765224522465,5,-8,1,0,0,0,0,0
3012,1765224522549,2,-9,-2,0,0,0,0,0
3013,1765224522714,6,-10,-1,0,0,0,0,0
3014,1765224522948,6,-9,-2,0,0,0,0,0
3015,1765224523299,6,-10,0,0,0,0,0,0
3016,1765224523313,4,-9,-1,0,0,0,0,0
3017,1765224523548,8,-11,-1,0,0,0,0,0
3018,1765224523715,5,-8,-1,0,0,0,0,0
3019,1765224523965,4,-9,0,0,0,0,0,0
3020,1765224524082,4,-8,0,0,0,0,0,0
3021,1765224524266,3,-10,0,0,0,0,0,0
3022,1765224524598,5,-9,0,0,0,0,0,0
3023,1765224524715,4,-9,0,0,0,0,0,0
3024,1765224524948,4,-9,0,0,0,0,0,0
3025,1765224525015,6,-10,1,0,0,0,0,0
3026,1765224525099,6,-9,0,0,0,0,0,0
3027,1765224525316,6,-9,0,0,0,0,0,0
3028,1765224525415,4,-9,0,0,0,0,0,0
3029,1765224525666,7,-9,0,0,0,0,0,0
3030,1765224525798,5,-9,0,0,0,0,0,0
3031,1765224526113,4,-9,-1,0,0,0,0,0
3032,1765224526231,5,-8,0,0,0,0,0,0
3033,1765224526498,5,-10,0,0,0,0,0,0
3034,1765224526615,4,-8,0,0,0,0,0,0
3035,1765224526832,5,-9,0,0,0,0,0,0
3036,1765224527032,5,-10,0,0,0,0,0,0
3037,1765224527215,4,-8,-1,0,0,0,0,0
3038,1765224527398,8,-9,2,0,0,0,0,0
3039,1765224527599,7,-11,0,0,0,0,0,0
3040,1765224527915,4,-10,0,0,0,0,0,0
3041,1765224527981,7,-11,0,0,0,0,0,0
3042,1765224528232,5,-9,0,0,0,0,0,0
3043,1765224528332,6,-9,1,0,0,0,0,0
3044,1765224528616,4,-10,0,0,0,0,0,0
3045,1765224528747,5,-9,0,0,0,0,0,0
3046,1765224528966,3,-8,-1,0,0,0,0,0
3047,1765224529065,6,-9,0,0,0,0,0,0
3048,1765224529349,5,-9,-1,0,0,0,0,0
3049,1765224529615,6,-9,0,0,0,0,0,0
3050,1765224529765,5,-9,0,0,0,0,0,0
3051,1765224529965,6,-10,-1,0,0,0,0,0
3052,1765224530081,4,-9,0,0,0,0,0,0
3053,1765224530132,6,-10,-1,0,0,0,0,0
3054,1765224530382,5,-8,0,0,0,0,0,0
3055,1765224530482,5,-8,1,0,0,0,0,0
3056,1765224530715,4,-9,0,0,0,0,0,0
3057,1765224530749,5,-9,1,0,0,0,0,0
3058,1765224530866,5,-8,0,0,0,0,0,0
3059,1765224531179,5,-9,-1,0,0,0,0,0
3060,1765224531298,5,-9,1,0,0,0,0,0
3061,1765224531566,4,-10,0,0,0,0,0,0
3062,1765224531648,4,-10,0,0,0,0,0,0
3063,1765224531881,5,-10,0,0,0,0,0,0
3064,1765224532048,6,-10,0,0,0,0,0,0
3065,1765224532265,6,-9,1,0,0,0,0,0
3066,1765224532364,4,-8,-1,0,0,0,0,0
3067,1765224532715,4,-9,0,0,0,0,0,0
3068,1765224532931,6,-9,0,0,0,0,0,0
3069,1765224533032,4,-8,0,0,0,0,0,0
3070,1765224533298,4,-10,0,0,0,0,0,0
3071,1765224533414,6,-10,-1,0,0,0,0,0
3072,1765224533698,6,-10,1,0,0,0,0,0
3073,1765224533780,5,-9,0,0,0,0,0,0
3074,1765224534049,5,-9,-1,0,0,0,0,0
3075,1765224534240,5,-8,0,0,0,0,0,0
3076,1765224534449,5,-9,-1,0,0,0,0,0
3077,1765224534482,5,-9,0,0,0,0,0,0
3078,1765224534581,6,-9,0,0,0,0,0,0
3079,1765224534832,5,-9,1,0,0,0,0,0
3080,1765224534913,5,-9,-1,0,0,0,0,0
3081,1765224535164,6,-8,-255,0,0,0,0,0
3082,1765224535297,5,-9,1,0,0,0,0,0
3083,1765224535531,5,-9,0,0,0,0,0,0
3084,1765224535632,5,-8,0,0,0,0,0,0
3085,1765224535882,4,-9,0,0,0,0,0,0
3086,1765224536114,5,-10,-1,0,0,0,0,0
3087,1765224536282,4,-9,0,0,0,0,0,0
3088,1765224536382,4,-8,-1,0,0,0,0,0
3089,1765224536465,6,-9,-1,0,0,0,0,0
3090,1765224536681,5,-9,0,0,0,0,0,0
3091,1765224536863,5,-9,0,0,0,0,0,0
3092,1765224536996,6,-10,-1,0,0,0,0,0
3093,1765224537082,6,-8,0,0,0,0,0,0
3094,1765224537198,6,-10,0,0,0,0,0,0
3095,1765224537382,3,-9,-1,0,0,0,0,0
3096,1765224537832,4,-10,-1,0,0,0,0,0
3097,1765224537980,5,-9,-1,0,0,0,0,0
3098,1765224538132,5,-9,0,0,0,0,0,0
3099,1765224538514,4,-10,0,0,0,0,0,0
3100,1765224538632,5,-10,-1,0,0,0,0,0
3101,1765224538833,5,-10,-1,0,0,0,0,0
3102,1765224538964,5,-10,-1,0,0,0,0,0
3103,1765224539199,5,-9,0,0,0,0,0,0
3104,1765224539448,4,-8,0,0,0,0,0,0
3105,1765224539649,4,-9,0,0,0,0,0,0
3106,1765224539731,7,-9,-1,0,0,0,0,0
3107,1765224539948,4,-9,-1,0,0,0,0,0
3108,1765224540114,5,-9,-1,0,0,0,0,0
3109,1765224540314,4,-9,-1,0,0,0,0,0
3110,1765224540433,5,-10,1,0,0,0,0,0
3111,1765224540648,6,-9,-1,0,0,0,0,0
3112,1765224540731,4,-8,-1,0,0,0,0,0
3113,1765224540799,5,-9,0,0,0,0,0,0
3114,1765224540898,5,-8,-1,0,0,0,0,0
3115,1765224541165,5,-10,0,0,0,0,0,0
3116,1765224541365,6,-8,0,0,0,0,0,0
3117,1765224541534,5,-9,0,0,0,0,0,0
3118,1765224541582,5,-9,0,0,0,0,0,0
3119,1765224541866,7,-9,0,0,0,0,0,0
3120,1765224541965,7,-8,0,0,0,0,0,0
3121,1765224542015,6,-8,1,0,0,0,0,0
3122,1765224542182,4,-9,0,0,0,0,0,0
3123,1765224542315,6,-10,1,0,0,0,0,0
3124,1765224542515,5,-9,0,0,0,0,0,0
3125,1765224542698,6,-8,1,0,0,0,0,0
3126,1765224542897,6,-8,-1,0,0,0,0,0
3127,1765224543066,3,-9,0,0,0,0,0,0
3128,1765224543199,6,-9,1,0,0,0,0,0
3129,1765224543349,5,-9,1,0,0,0,0,0
3130,1765224543481,4,-10,-1,0,0,0,0,0
3131,1765224543715,5,-10,1,0,0,0,0,0
3132,1765224543815,6,-9,1,0,0,0,0,0
3133,1765224543932,6,-10,0,0,0,0,0,0
3134,1765224544149,6,-10,0,0,0,0,0,0
3135,1765224544216,5,-9,-1,0,0,0,0,0
3136,1765224544666,4,-9,0,0,0,0,0,0
3137,1765224544798,4,-9,0,0,0,0,0,0
3138,1765224544949,5,-9,0,0,0,0,0,0
3139,1765224545176,6,-9,-2,0,0,0,0,0
3140,1765224545299,6,-8,0,0,0,0,0,0
3141,1765224545432,5,-9,0,0,0,0,0,0
3142,1765224545680,5,-9,-1,0,0,0,0,0
3143,1765224545813,7,-8,2,0,0,0,0,0
3144,1765224545899,6,-10,1,0,0,0,0,0
3145,1765224546116,6,-10,0,0,0,0,0,0
3146,1765224546516,3,-9,-2,0,0,0,0,0
3147,1765224546615,4,-9,1,0,0,0,0,0
3148,1765224546831,6,-9,1,0,0,0,0,0
3149,1765224546898,6,-9,0,0,0,0,0,0
3150,1765224546947,6,-8,0,0,0,0,0,0
3151,1765224547030,5,-9,1,0,0,0,0,0
3152,1765224547297,5,-9,-1,0,0,0,0,0
3153,1765224547379,5,-9,-1,0,0,0,0,0
3154,1765224547698,4,-8,0,0,0,0,0,0
3155,1765224547782,8,-9,0,0,0,0,0,0
3156,1765224548081,6,-8,0,0,0,0,0,0
3157,1765224548347,6,-7,2,0,0,0,0,0
3158,1765224548514,4,-9,1,0,0,0,0,0
3159,1765224548664,4,-10,0,0,0,0,0,0
3160,1765224548897,5,-10,-1,0,0,0,0,0
3161,1765224548981,6,-8,0,0,0,0,0,0
3162,1765224549215,5,-9,2,0,0,0,0,0
3163,1765224549365,5,-10,-1,0,0,0,0,0
3164,1765224549614,4,-9,0,0,0,0,0,0
3165,1765224549884,5,-9,-1,0,0,0,0,0
3166,1765224549980,4,-9,0,0,0,0,0,0
3167,1765224550065,6,-9,-1,0,0,0,0,0
3168,1765224550198,4,-8,0,0,0,0,0,0
3169,1765224550365,5,-10,0,0,0,0,0,0
3170,1765224550631,5,-8,0,0,0,0,0,0
3171,1765224550798,6,-8,1,0,0,0,0,0
3172,1765224550981,6,-9,0,0,0,0,0,0
3173,1765224551080,4,-8,-1,0,0,0,0,0
3174,1765224551365,5,-9,0,0,0,0,0,0
3175,1765224551647,5,-9,1,0,0,0,0,0
3176,1765224551780,5,-9,-1,0,0,0,0,0
3177,1765224551998,7,-9,0,0,0,0,0,0
3178,1765224552165,3,-9,0,0,0,0,0,0
3179,1765224552448,4,-10,0,0,0,0,0,0
3180,1765224552515,6,-10,-1,0,0,0,0,0
3181,1765224552582,6,-8,0,0,0,0,0,0
3182,1765224552765,5,-8,-1,0,0,0,0,0
3183,1765224552879,5,-9,0,0,0,0,0,0
3184,1765224553280,6,-11,0,0,0,0,0,0
3185,1765224553347,4,-9,0,0,0,0,0,0
3186,1765224553580,5,-8,0,0,0,0,0,0
3187,1765224553715,4,-10,0,0,0,0,0,0
3188,1765224553997,5,-9,0,0,0,0,0,0
3189,1765224554132,4,-9,-1,0,0,0,0,0
3190,1765224554281,4,-7,0,0,0,0,0,0
3191,1765224554514,5,-9,0,0,0,0,0,0
3192,1765224554764,5,-10,-1,0,0,0,0,0
