index,date,ACCEL_X,ACCEL_Y,ACCEL_Z,1,2,3,4,5
0,1765218499877,-1138,7327,-1040,0,0,0,0,0
1,1765218500144,844,9034,1545,0,0,0,0,0
2,1765218500243,-394,10264,-1318,0,0,0,0,0
3,1765218500461,-16,8189,92,0,0,0,0,0
4,1765218500611,150,8205,387,0,0,0,0,0
5,1765218500877,63,7823,-136,0,0,0,0,0
6,1765218500960,314,8352,-239,0,0,0,0,0
7,1765218501027,176,8115,-84,0,0,0,0,0
8,1765218501159,-409,7906,470,0,0,0,0,0
9,1765218501326,230,8545,870,0,0,0,0,0
10,1765218501644,349,8491,259,0,0,0,0,0
11,1765218501793,-1337,7536,-1070,0,0,0,0,0
12,1765218502026,-1095,8577,-130,0,0,0,0,0
13,1765218502093,-1546,7768,-1315,0,0,0,0,0
14,1765218502327,-2422,10210,-1303,0,0,0,0,0
15,1765218502493,766,7863,773,0,0,0,0,0
16,1765218502726,-1623,7166,-392,0,0,0,0,0
17,1765218502793,-2004,8592,-932,0,0,0,0,0
18,1765218503010,-1965,5346,-463,0,0,0,0,0
19,1765218503260,-2746,9091,44,0,0,0,0,0
20,1765218503493,-2145,9970,-376,0,0,0,0,0
21,1765218503643,-1530,7156,-510,0,0,0,0,0
22,1765218503843,-2580,7481,-924,0,0,0,0,0
23,1765218503943,-2755,8550,-1128,0,0,0,0,0
24,1765218504176,-3192,7503,-1064,0,0,0,0,0
25,1765218504326,-1722,7278,-644,0,0,0,0,0
26,1765218504526,-2210,6946,-342,0,0,0,0,0
27,1765218504627,-1972,8567,-1338,0,0,0,0,0
28,1765218505077,-2040,8045,-178,0,0,0,0,0
29,1765218505310,-1081,7218,-222,0,0,0,0,0
30,1765218505393,-1353,8063,-161,0,0,0,0,0
31,1765218505593,-1124,8132,-774,0,0,0,0,0
32,1765218505776,-1162,8232,-746,0,0,0,0,0
33,1765218505993,-1074,8516,-518,0,0,0,0,0
34,1765218506143,-779,8120,-43,0,0,0,0,0
35,1765218506310,-1128,7720,-174,0,0,0,0,0
36,1765218506526,-1331,8032,-298,0,0,0,0,0
37,1765218506810,-580,7752,-616,0,0,0,0,0
38,1765218506910,-534,8596,-854,0,0,0,0,0
39,1765218507143,-495,7664,-642,0,0,0,0,0
40,1765218507293,-582,8488,-836,0,0,0,0,0
41,1765218507476,-560,8003,-1352,0,0,0,0,0
42,1765218507809,-110,8287,-710,0,0,0,0,0
43,1765218507926,-128,8006,-552,0,0,0,0,0
44,1765218507960,-38,8141,-1078,0,0,0,0,0
45,1765218508060,97,8119,-974,0,0,0,0,0
46,1765218508360,-200,8328,-84,0,0,0,0,0
47,1765218508494,-77,8120,249,0,0,0,0,0
48,1765218508694,-86,8167,134,0,0,0,0,0
49,1765218508777,-146,8183,191,0,0,0,0,0
50,1765218509010,-122,8153,69,0,0,0,0,0
51,1765218509144,-123,8134,91,0,0,0,0,0
52,1765218509361,-112,8188,157,0,0,0,0,0
53,1765218509493,-116,8132,83,0,0,0,0,0
54,1765218509694,-134,8170,128,0,0,0,0,0
55,1765218509860,-77,8195,-4,0,0,0,0,0
56,1765218510126,-218,8159,124,0,0,0,0,0
57,1765218510228,-88,8269,133,0,0,0,0,0
58,1765218510613,-130,8253,50,0,0,0,0,0
59,1765218510676,-147,7992,236,0,0,0,0,0
60,1765218510912,-144,8244,250,0,0,0,0,0
61,1765218511062,-12,8372,-84,0,0,0,0,0
62,1765218511227,-146,8286,56,0,0,0,0,0
63,1765218511326,-138,8121,93,0,0,0,0,0
64,1765218511643,-116,8100,-61,0,0,0,0,0
65,1765218511778,-132,8481,-63,0,0,0,0,0
66,1765218511978,-159,8163,-9,0,0,0,0,0
67,1765218512076,-67,7996,-50,0,0,0,0,0
68,1765218512310,-151,8310,-218,0,0,0,0,0
69,1765218512443,-110,8297,-156,0,0,0,0,0
70,1765218512644,-88,7987,-171,0,0,0,0,0
71,1765218512761,-24,8218,54,0,0,0,0,0
72,1765218513143,-18,8178,-87,0,0,0,0,0
73,1765218513394,-50,7984,-141,0,0,0,0,0
74,1765218513511,-134,8329,-15,0,0,0,0,0
75,1765218513560,17,8169,183,0,0,0,0,0
76,1765218513643,-44,8062,-174,0,0,0,0,0
77,1765218513877,-168,8400,-237,0,0,0,0,0
78,1765218513960,-64,8198,-102,0,0,0,0,0
79,1765218514360,-308,8059,11,0,0,0,0,0
80,1765218514543,-88,7940,2,0,0,0,0,0
81,1765218514660,-55,8144,-21,0,0,0,0,0
82,1765218515109,-40,7889,290,0,0,0,0,0
83,1765218515227,-17,8233,388,0,0,0,0,0
84,1765218515393,-330,8156,486,0,0,0,0,0
85,1765218515461,-17,8230,658,0,0,0,0,0
86,1765218515543,-148,8266,663,0,0,0,0,0
87,1765218515776,-39,7988,496,0,0,0,0,0
88,1765218515893,-73,8178,464,0,0,0,0,0
89,1765218516094,-67,8204,246,0,0,0,0,0
90,1765218516244,-170,8041,250,0,0,0,0,0
91,1765218516429,-88,8051,380,0,0,0,0,0
92,1765218516561,165,8133,198,0,0,0,0,0
93,1765218516976,-183,8191,75,0,0,0,0,0
94,1765218517143,-184,8188,-179,0,0,0,0,0
95,1765218517276,20,8093,-3,0,0,0,0,0
96,1765218517294,-136,8174,227,0,0,0,0,0
97,1765218517395,21,8197,20,0,0,0,0,0
98,1765218517677,-191,8152,211,0,0,0,0,0
99,1765218517743,-150,8168,205,0,0,0,0,0
100,1765218518093,-123,8158,-294,0,0,0,0,0
101,1765218518210,-95,8081,-227,0,0,0,0,0
102,1765218518460,-179,8349,-206,0,0,0,0,0
103,1765218518593,-114,8091,118,0,0,0,0,0
104,1765218518844,-174,8440,392,0,0,0,0,0
105,1765218518943,-57,7984,440,0,0,0,0,0
106,1765218519127,-65,7984,423,0,0,0,0,0
107,1765218519260,-78,8069,770,0,0,0,0,0
108,1765218519443,-99,8212,795,0,0,0,0,0
109,1765218519594,-79,8280,726,0,0,0,0,0
110,1765218520327,-126,8085,-39,0,0,0,0,0
111,1765218520443,-95,8160,10,0,0,0,0,0
112,1765218520543,-118,8143,-105,0,0,0,0,0
113,1765218520860,-80,8114,-8,0,0,0,0,0
114,1765218521010,-46,8270,21,0,0,0,0,0
115,1765218521209,-4203,-10624,-25820,0,0,0,0,0
116,1765218521793,-276,8048,430,0,0,0,0,0
117,1765218521993,-133,8356,16,0,0,0,0,0
118,1765218522282,-174,8207,34,0,0,0,0,0
119,1765218522410,-145,8125,101,0,0,0,0,0
120,1765218522710,-234,8275,-143,0,0,0,0,0
121,1765218523060,-153,8190,9,0,0,0,0,0
122,1765218523161,-132,8178,72,0,0,0,0,0
123,1765218523377,-171,8123,61,0,0,0,0,0
124,1765218523494,-177,8145,134,0,0,0,0,0
125,1765218523578,-158,8223,134,0,0,0,0,0
126,1765218523876,-206,8131,169,0,0,0,0,0
127,1765218524010,-198,8248,308,0,0,0,0,0
128,1765218524294,-203,8184,-215,0,0,0,0,0
129,1765218524426,-65,8098,-200,0,0,0,0,0
130,1765218524610,-940,8010,862,0,0,0,0,0
131,1765218524743,-315,8210,1106,0,0,0,0,0
132,1765218524944,-783,8287,763,0,0,0,0,0
133,1765218525043,-128,8088,1085,0,0,0,0,0
134,1765218525259,-67,8230,732,0,0,0,0,0
135,1765218525409,-251,8180,690,0,0,0,0,0
136,1765218525609,-458,8431,669,0,0,0,0,0
137,1765218525776,-446,7967,814,0,0,0,0,0
138,1765218525909,-769,8244,1056,0,0,0,0,0
139,1765218526043,-742,7986,813,0,0,0,0,0
140,1765218526193,-790,8401,364,0,0,0,0,0
141,1765218526426,189,8288,129,0,0,0,0,0
142,1765218526661,-152,8071,-295,0,0,0,0,0
143,1765218526843,-432,7860,-613,0,0,0,0,0
144,1765218526944,-40,8636,-1084,0,0,0,0,0
145,1765218527227,-136,8544,-320,0,0,0,0,0
146,1765218527444,-254,8193,-678,0,0,0,0,0
147,1765218527677,254,8011,-820,0,0,0,0,0
148,1765218527743,223,8461,-847,0,0,0,0,0
149,1765218527859,140,8042,-695,0,0,0,0,0
150,1765218528076,220,7871,-569,0,0,0,0,0
151,1765218528193,121,8384,-652,0,0,0,0,0
152,1765218528560,266,8194,-265,0,0,0,0,0
153,1765218528609,214,8068,-450,0,0,0,0,0
154,1765218528844,151,8234,-945,0,0,0,0,0
155,1765218528976,168,8158,-752,0,0,0,0,0
156,1765218529193,222,8121,-452,0,0,0,0,0
157,1765218529510,-465,8392,17,0,0,0,0,0
158,1765218529577,52,7889,573,0,0,0,0,0
159,1765218529761,386,8233,770,0,0,0,0,0
160,1765218529943,635,8278,2096,0,0,0,0,0
161,1765218530076,211,8338,530,0,0,0,0,0
162,1765218530427,714,8535,948,0,0,0,0,0
163,1765218530493,767,8133,362,0,0,0,0,0
164,1765218530810,-45,7410,-970,0,0,0,0,0
165,1765218530993,-426,8188,-2886,0,0,0,0,0
166,1765218531194,-349,7752,-3338,0,0,0,0,0
167,1765218531312,-216,8084,-2991,0,0,0,0,0
168,1765218531478,36,8151,-533,0,0,0,0,0
169,1765218531610,159,8215,-402,0,0,0,0,0
170,1765218531878,37,8062,32,0,0,0,0,0
171,1765218531944,-149,8136,-10,0,0,0,0,0
172,1765218532294,58,8187,-229,0,0,0,0,0
173,1765218532576,37,8124,-229,0,0,0,0,0
174,1765218532676,123,8187,-198,0,0,0,0,0
175,1765218532744,83,8182,-117,0,0,0,0,0
176,1765218532793,61,8160,-188,0,0,0,0,0
177,1765218533026,45,8111,-179,0,0,0,0,0
178,1765218533126,78,8190,-185,0,0,0,0,0
179,1765218533531,53,8167,-83,0,0,0,0,0
180,1765218533694,92,8122,-77,0,0,0,0,0
181,1765218533778,34,8157,-144,0,0,0,0,0
182,1765218534227,49,8113,-158,0,0,0,0,0
183,1765218534478,54,8176,-163,0,0,0,0,0
184,1765218534545,77,8175,-180,0,0,0,0,0
185,1765218534611,63,8151,-184,0,0,0,0,0
186,1765218534711,78,8177,-182,0,0,0,0,0
187,1765218534895,32,8124,-203,0,0,0,0,0
188,1765218535094,57,8176,-188,0,0,0,0,0
189,1765218535227,69,8205,-203,0,0,0,0,0
190,1765218535344,66,8090,-188,0,0,0,0,0
191,1765218535561,49,8171,-200,0,0,0,0,0
192,1765218535644,59,8189,-169,0,0,0,0,0
193,1765218536078,50,8144,-186,0,0,0,0,0
194,1765218536261,59,8164,-166,0,0,0,0,0
195,1765218536378,71,8156,-153,0,0,0,0,0
196,1765218536510,68,8162,-168,0,0,0,0,0
197,1765218536778,50,8168,-140,0,0,0,0,0
198,1765218536844,43,8130,-142,0,0,0,0,0
199,1765218537212,81,8144,-159,0,0,0,0,0
200,1765218537361,59,8154,-192,0,0,0,0,0
201,1765218537576,65,8145,-199,0,0,0,0,0
202,1765218537762,62,8178,-166,0,0,0,0,0
203,1765218537961,46,8154,-179,0,0,0,0,0
204,1765218538110,74,8111,-186,0,0,0,0,0
205,1765218538244,58,8195,-187,0,0,0,0,0
206,1765218538362,52,8158,-223,0,0,0,0,0
207,1765218538628,60,8169,-212,0,0,0,0,0
208,1765218538694,68,8147,-215,0,0,0,0,0
209,1765218538927,52,8148,-158,0,0,0,0,0
210,1765218539044,40,8185,-224,0,0,0,0,0
211,1765218539210,58,8146,-195,0,0,0,0,0
212,1765218539411,56,8146,-168,0,0,0,0,0
213,1765218539795,82,8139,-157,0,0,0,0,0
214,1765218539844,28,8166,-183,0,0,0,0,0
215,1765218540112,38,8152,-189,0,0,0,0,0
216,1765218540262,82,8170,-108,0,0,0,0,0
217,1765218540428,64,8173,-195,0,0,0,0,0
218,1765218540561,57,8178,-200,0,0,0,0,0
219,1765218540745,39,8132,-197,0,0,0,0,0
220,1765218540927,62,8138,-196,0,0,0,0,0
221,1765218541193,78,8134,-200,0,0,0,0,0
222,1765218541310,70,8148,-178,0,0,0,0,0
223,1765218541444,7,8123,-217,0,0,0,0,0
224,1765218541662,76,8190,-172,0,0,0,0,0
225,1765218541744,98,8122,-142,0,0,0,0,0
226,1765218542009,10,8132,-114,0,0,0,0,0
227,1765218542143,83,8139,-185,0,0,0,0,0
228,1765218542294,-16,8162,-199,0,0,0,0,0
229,1765218542426,100,8156,-107,0,0,0,0,0
230,1765218542860,38,8164,-149,0,0,0,0,0
231,1765218542943,68,8176,-169,0,0,0,0,0
232,1765218543145,69,8175,-178,0,0,0,0,0
233,1765218543476,59,8312,-105,0,0,0,0,0
234,1765218543627,78,8024,-333,0,0,0,0,0
235,1765218543860,-14,8287,-302,0,0,0,0,0
236,1765218544010,-28,8124,-194,0,0,0,0,0
237,1765218544160,78,8224,-193,0,0,0,0,0
238,1765218544377,110,8172,-188,0,0,0,0,0
239,1765218544576,38,8168,-187,0,0,0,0,0
240,1765218544759,70,8137,-170,0,0,0,0,0
241,1765218544927,95,8136,-174,0,0,0,0,0
242,1765218545060,57,8156,-127,0,0,0,0,0
243,1765218545126,39,8195,-148,0,0,0,0,0
244,1765218545210,62,8124,-155,0,0,0,0,0
245,1765218545459,79,8122,-172,0,0,0,0,0
246,1765218545610,64,8188,-162,0,0,0,0,0
247,1765218545759,61,8148,-155,0,0,0,0,0
248,1765218545877,72,8138,-169,0,0,0,0,0
249,1765218546193,36,8102,-172,0,0,0,0,0
250,1765218546293,90,8134,-153,0,0,0,0,0
251,1765218546494,62,8171,-162,0,0,0,0,0
252,1765218546611,23,8178,-164,0,0,0,0,0
253,1765218546811,53,8157,-172,0,0,0,0,0
254,1765218546944,81,8122,-169,0,0,0,0,0
255,1765218547128,66,8136,-182,0,0,0,0,0
256,1765218547311,46,8155,-162,0,0,0,0,0
257,1765218547444,94,8150,-118,0,0,0,0,0
258,1765218547644,70,8163,-135,0,0,0,0,0
259,1765218547761,28,8212,-202,0,0,0,0,0
260,1765218548061,66,8122,-166,0,0,0,0,0
261,1765218548161,73,8139,-157,0,0,0,0,0
262,1765218548328,22,8182,-204,0,0,0,0,0
263,1765218548494,12,8171,-213,0,0,0,0,0
264,1765218548711,75,8117,-213,0,0,0,0,0
265,1765218548809,86,8155,-168,0,0,0,0,0
266,1765218548944,-21,8176,-226,0,0,0,0,0
267,1765218549178,82,8110,-189,0,0,0,0,0
268,1765218549261,114,8124,-173,0,0,0,0,0
269,1765218549694,52,8150,-151,0,0,0,0,0
270,1765218549927,79,8158,-184,0,0,0,0,0
271,1765218549994,44,8182,-177,0,0,0,0,0
272,1765218550144,62,8144,-144,0,0,0,0,0
273,1765218550361,55,8167,-150,0,0,0,0,0
274,1765218550527,56,8170,-150,0,0,0,0,0
275,1765218550694,45,8128,-166,0,0,0,0,0
276,1765218550811,56,8194,-161,0,0,0,0,0
277,1765218551028,40,8150,-184,0,0,0,0,0
278,1765218551194,70,8136,-200,0,0,0,0,0
279,1765218551542,12,8190,-174,0,0,0,0,0
280,1765218551726,63,8126,-149,0,0,0,0,0
281,1765218551843,44,8145,-192,0,0,0,0,0
282,1765218552244,78,8158,-168,0,0,0,0,0
283,1765218552344,45,8156,-136,0,0,0,0,0
284,1765218552527,49,8109,-142,0,0,0,0,0
285,1765218552678,63,8157,-173,0,0,0,0,0
286,1765218552876,41,8188,-206,0,0,0,0,0
287,1765218553094,67,8127,-188,0,0,0,0,0
288,1765218553244,38,8154,-171,0,0,0,0,0
289,1765218553411,62,8212,-158,0,0,0,0,0
290,1765218553576,70,8095,-186,0,0,0,0,0
291,1765218553710,34,8178,-175,0,0,0,0,0
292,1765218553860,28,8155,-176,0,0,0,0,0
293,1765218554077,90,8172,-193,0,0,0,0,0
294,1765218554177,53,8132,-190,0,0,0,0,0
295,1765218554395,44,8176,-146,0,0,0,0,0
296,1765218554494,57,8170,-169,0,0,0,0,0
297,1765218554592,76,8171,-173,0,0,0,0,0
298,1765218554910,37,8118,-160,0,0,0,0,0
299,1765218555027,57,8148,-163,0,0,0,0,0
300,1765218555044,70,8101,-185,0,0,0,0,0
301,1765218555127,45,8137,-180,0,0,0,0,0
302,1765218555405,34,8198,-223,0,0,0,0,0
303,1765218555444,93,8121,-174,0,0,0,0,0
304,1765218555659,24,8167,-151,0,0,0,0,0
305,1765218555793,18,8162,-226,0,0,0,0,0
306,1765218555926,52,8164,-194,0,0,0,0,0
307,1765218556077,94,8140,-146,0,0,0,0,0
308,1765218556242,49,8178,-136,0,0,0,0,0
309,1765218556342,50,8160,-215,0,0,0,0,0
310,1765218556526,46,8162,-194,0,0,0,0,0
311,1765218556792,70,8150,-161,0,0,0,0,0
312,1765218556859,48,8166,-161,0,0,0,0,0
313,1765218556976,41,8146,-213,0,0,0,0,0
314,1765218557143,57,8170,-166,0,0,0,0,0
315,1765218557277,63,8154,-160,0,0,0,0,0
316,1765218557478,76,8140,-112,0,0,0,0,0
317,1765218557711,59,8083,-214,0,0,0,0,0
318,1765218557777,126,8129,-225,0,0,0,0,0
319,1765218558011,58,8242,-190,0,0,0,0,0
320,1765218558078,19,8182,-166,0,0,0,0,0
321,1765218558178,52,8136,-178,0,0,0,0,0
322,1765218558476,69,8148,-181,0,0,0,0,0
323,1765218558559,58,8179,-158,0,0,0,0,0
324,1765218558844,48,8160,-152,0,0,0,0,0
325,1765218558944,67,8162,-147,0,0,0,0,0
326,1765218559144,52,8145,-161,0,0,0,0,0
327,1765218559259,58,8166,-160,0,0,0,0,0
328,1765218559345,50,8155,-170,0,0,0,0,0
329,1765218559511,65,8165,-172,0,0,0,0,0
330,1765218559661,68,8146,-172,0,0,0,0,0
331,1765218559795,64,8158,-154,0,0,0,0,0
332,1765218560078,72,8159,-149,0,0,0,0,0
333,1765218560311,55,8146,-148,0,0,0,0,0
334,1765218560461,69,8163,-166,0,0,0,0,0
335,1765218560544,68,8146,-162,0,0,0,0,0
336,1765218560627,70,8157,-165,0,0,0,0,0
337,1765218560844,48,8159,-164,0,0,0,0,0
338,1765218560909,63,8148,-172,0,0,0,0,0
339,1765218561162,66,8161,-175,0,0,0,0,0
340,1765218561210,90,8166,-206,0,0,0,0,0
341,1765218561312,34,8152,-202,0,0,0,0,0
342,1765218561511,38,8172,-184,0,0,0,0,0
343,1765218561594,84,8139,-146,0,0,0,0,0
344,1765218561795,73,8152,-130,0,0,0,0,0
345,1765218561861,52,8144,-157,0,0,0,0,0
346,1765218561944,56,8156,-151,0,0,0,0,0
347,1765218562144,74,8153,-145,0,0,0,0,0
348,1765218562244,69,8154,-145,0,0,0,0,0
349,1765218562444,50,8142,-147,0,0,0,0,0
350,1765218562611,66,8159,-154,0,0,0,0,0
351,1765218562711,60,8138,-161,0,0,0,0,0
352,1765218562894,61,8151,-151,0,0,0,0,0
353,1765218563042,62,8170,-165,0,0,0,0,0
354,1765218563294,65,8148,-167,0,0,0,0,0
355,1765218563394,53,8164,-154,0,0,0,0,0
356,1765218563561,56,8146,-153,0,0,0,0,0
357,1765218563794,60,8149,-170,0,0,0,0,0
358,1765218563861,62,8165,-166,0,0,0,0,0
359,1765218564161,58,8139,-190,0,0,0,0,0
360,1765218564344,53,8149,-186,0,0,0,0,0
361,1765218564510,53,8153,-196,0,0,0,0,0
362,1765218564627,50,8156,-184,0,0,0,0,0
363,1765218564794,69,8149,-182,0,0,0,0,0
364,1765218564911,55,8147,-183,0,0,0,0,0
365,1765218565044,60,8167,-189,0,0,0,0,0
366,1765218565261,54,8142,-174,0,0,0,0,0
367,1765218565361,46,8148,-161,0,0,0,0,0
368,1765218565728,62,8155,-174,0,0,0,0,0
369,1765218565960,58,8170,-178,0,0,0,0,0
370,1765218566094,58,8152,-161,0,0,0,0,0
371,1765218566228,40,8153,-154,0,0,0,0,0
372,1765218566444,78,8136,-164,0,0,0,0,0
373,1765218566511,69,8174,-166,0,0,0,0,0
374,1765218566926,69,8170,-172,0,0,0,0,0
375,1765218567077,58,8172,-178,0,0,0,0,0
376,1765218567210,45,8142,-154,0,0,0,0,0
377,1765218567677,52,8158,-170,0,0,0,0,0
378,1765218567861,56,8158,-174,0,0,0,0,0
379,1765218567978,67,8159,-176,0,0,0,0,0
380,1765218568044,66,8168,-170,0,0,0,0,0
381,1765218568177,52,8152,-161,0,0,0,0,0
382,1765218568342,57,8144,-185,0,0,0,0,0
383,1765218568577,59,8190,-110,0,0,0,0,0
384,1765218568761,80,8142,-160,0,0,0,0,0
385,1765218568894,67,8159,-165,0,0,0,0,0
386,1765218569061,44,8168,-135,0,0,0,0,0
387,1765218569528,60,8154,-164,0,0,0,0,0
388,1765218569661,39,8132,-156,0,0,0,0,0
389,1765218569809,53,8172,-152,0,0,0,0,0
390,1765218570076,62,8135,-147,0,0,0,0,0
391,1765218570176,54,8146,-171,0,0,0,0,0
392,1765218570476,61,8143,-184,0,0,0,0,0
393,1765218570625,56,8149,-172,0,0,0,0,0
394,1765218570859,46,8181,-159,0,0,0,0,0
395,1765218570926,75,8156,-179,0,0,0,0,0
396,1765218571142,61,8148,-168,0,0,0,0,0
397,1765218571226,59,8147,-168,0,0,0,0,0
398,1765218571327,76,8155,-158,0,0,0,0,0
399,1765218571525,44,8163,-157,0,0,0,0,0
400,1765218571977,72,8142,-115,0,0,0,0,0
401,1765218572109,60,8158,-119,0,0,0,0,0
402,1765218572276,49,8150,-162,0,0,0,0,0
403,1765218572476,73,8170,-202,0,0,0,0,0
404,1765218572510,67,8164,-131,0,0,0,0,0
405,1765218572626,56,8142,-149,0,0,0,0,0
406,1765218572926,56,8154,-183,0,0,0,0,0
407,1765218573043,64,8155,-186,0,0,0,0,0
408,1765218573243,62,8142,-149,0,0,0,0,0
409,1765218573359,50,8168,-163,0,0,0,0,0
410,1765218573626,58,8164,-166,0,0,0,0,0
411,1765218573709,58,8145,-179,0,0,0,0,0
412,1765218574026,70,8142,-165,0,0,0,0,0
413,1765218574226,61,8154,-136,0,0,0,0,0
414,1765218574326,59,8167,-154,0,0,0,0,0
415,1765218574410,39,8148,-181,0,0,0,0,0
416,1765218574543,76,8150,-177,0,0,0,0,0
417,1765218574709,55,8166,-167,0,0,0,0,0
418,1765218574926,66,8158,-174,0,0,0,0,0
419,1765218575043,77,8171,-160,0,0,0,0,0
420,1765218575376,81,8123,-155,0,0,0,0,0
421,1765218575526,78,8116,-128,0,0,0,0,0
422,1765218575676,61,8176,-108,0,0,0,0,0
423,1765218575742,24,8182,-164,0,0,0,0,0
424,1765218575809,94,8130,-152,0,0,0,0,0
425,1765218576059,75,8154,-121,0,0,0,0,0
426,1765218576176,38,8188,-112,0,0,0,0,0
427,1765218576476,71,8159,-142,0,0,0,0,0
428,1765218576676,41,8161,-134,0,0,0,0,0
429,1765218576759,66,8148,-158,0,0,0,0,0
430,1765218577176,52,8158,-152,0,0,0,0,0
431,1765218577343,58,8144,-190,0,0,0,0,0
432,1765218577458,69,8156,-182,0,0,0,0,0
433,1765218577809,68,8156,-177,0,0,0,0,0
434,1765218577976,59,8166,-176,0,0,0,0,0
435,1765218578109,54,8156,-142,0,0,0,0,0
436,1765218578510,47,8173,-166,0,0,0,0,0
437,1765218578659,67,8158,-178,0,0,0,0,0
438,1765218578810,57,8146,-181,0,0,0,0,0
439,1765218578944,59,8152,-161,0,0,0,0,0
440,1765218579259,62,8148,-166,0,0,0,0,0
441,1765218579409,57,8156,-161,0,0,0,0,0
442,1765218579644,60,8159,-167,0,0,0,0,0
443,1765218579693,68,8157,-152,0,0,0,0,0
444,1765218579959,61,8163,-148,0,0,0,0,0
445,1765218580109,56,8170,-171,0,0,0,0,0
446,1765218580327,59,8171,-158,0,0,0,0,0
447,1765218580409,58,8140,-153,0,0,0,0,0
448,1765218580709,58,8150,-174,0,0,0,0,0
449,1765218580843,66,8154,-159,0,0,0,0,0
450,1765218581093,57,8168,-149,0,0,0,0,0
451,1765218581225,57,8155,-154,0,0,0,0,0
452,1765218581376,59,8165,-164,0,0,0,0,0
453,1765218581443,58,8165,-154,0,0,0,0,0
454,1765218581525,68,8167,-170,0,0,0,0,0
455,1765218581792,61,8150,-164,0,0,0,0,0
456,1765218581911,46,8158,-166,0,0,0,0,0
457,1765218582108,61,8149,-177,0,0,0,0,0
458,1765218582211,73,8168,-168,0,0,0,0,0
459,1765218582527,61,8141,-167,0,0,0,0,0
460,1765218582661,62,8158,-173,0,0,0,0,0
461,1765218582860,62,8145,-170,0,0,0,0,0
462,1765218582943,55,8152,-171,0,0,0,0,0
463,1765218583227,69,8139,-158,0,0,0,0,0
464,1765218583360,47,8168,-188,0,0,0,0,0
465,1765218583576,64,8158,-185,0,0,0,0,0
466,1765218583660,74,8167,-190,0,0,0,0,0
467,1765218583894,47,8171,-166,0,0,0,0,0
468,1765218584060,58,8122,-184,0,0,0,0,0
469,1765218584344,58,8164,-156,0,0,0,0,0
470,1765218584443,78,8149,-143,0,0,0,0,0
471,1765218584661,40,8142,-190,0,0,0,0,0
472,1765218584794,82,8169,-180,0,0,0,0,0
473,1765218585077,65,8124,-163,0,0,0,0,0
474,1765218585128,65,8124,-156,0,0,0,0,0
475,1765218585211,61,8178,-218,0,0,0,0,0
476,1765218585327,59,8148,-200,0,0,0,0,0
477,1765218585509,46,8146,-168,0,0,0,0,0
478,1765218585943,55,8142,-163,0,0,0,0,0
479,1765218586111,61,8130,-149,0,0,0,0,0
480,1765218586244,52,8159,-152,0,0,0,0,0
481,1765218586627,64,8163,-157,0,0,0,0,0
482,1765218586810,87,8149,-160,0,0,0,0,0
483,1765218586961,45,8158,-149,0,0,0,0,0
484,1765218587060,36,8164,-130,0,0,0,0,0
485,1765218587128,53,8149,-129,0,0,0,0,0
486,1765218587361,83,8154,-166,0,0,0,0,0
487,1765218587642,40,8144,-134,0,0,0,0,0
488,1765218587793,77,8152,-136,0,0,0,0,0
489,1765218587892,76,8176,-172,0,0,0,0,0
490,1765218588095,46,8148,-173,0,0,0,0,0
491,1765218588277,33,8155,-204,0,0,0,0,0
492,1765218588444,83,8160,-190,0,0,0,0,0
493,1765218588560,44,8136,-190,0,0,0,0,0
494,1765218588760,51,8157,-183,0,0,0,0,0
495,1765218588844,79,8171,-187,0,0,0,0,0
496,1765218588926,56,8148,-199,0,0,0,0,0
497,1765218589010,57,8171,-182,0,0,0,0,0
498,1765218589294,61,8138,-166,0,0,0,0,0
499,1765218589497,63,8158,-155,0,0,0,0,0
500,1765218589644,68,8170,-157,0,0,0,0,0
501,1765218589727,57,8150,-170,0,0,0,0,0
502,1765218589961,54,8156,-150,0,0,0,0,0
503,1765218590095,63,8152,-162,0,0,0,0,0
504,1765218590244,60,8142,-167,0,0,0,0,0
505,1765218590428,62,8168,-160,0,0,0,0,0
506,1765218590593,65,8151,-164,0,0,0,0,0
507,1765218590760,54,8156,-154,0,0,0,0,0
508,1765218590843,51,8150,-160,0,0,0,0,0
509,1765218591144,68,8143,-172,0,0,0,0,0
510,1765218591228,67,8157,-170,0,0,0,0,0
511,1765218591543,53,8144,-146,0,0,0,0,0
512,1765218591610,61,8172,-148,0,0,0,0,0
513,1765218591875,73,8144,-157,0,0,0,0,0
514,1765218591960,50,8144,-189,0,0,0,0,0
515,1765218592060,55,8163,-149,0,0,0,0,0
516,1765218592260,70,8148,-163,0,0,0,0,0
517,1765218592344,64,8148,-179,0,0,0,0,0
518,1765218592643,54,8166,-168,0,0,0,0,0
519,1765218592860,59,8146,-196,0,0,0,0,0
520,1765218593060,64,8154,-180,0,0,0,0,0
521,1765218593144,54,8167,-163,0,0,0,0,0
522,1765218593277,70,8158,-170,0,0,0,0,0
523,1765218593494,59,8150,-156,0,0,0,0,0
524,1765218593627,57,8168,-152,0,0,0,0,0
525,1765218593811,64,8163,-142,0,0,0,0,0
526,1765218593944,65,8156,-147,0,0,0,0,0
527,1765218593994,59,8165,-155,0,0,0,0,0
528,1765218594227,66,8138,-167,0,0,0,0,0
529,1765218594426,68,8154,-178,0,0,0,0,0
530,1765218594710,64,8176,-173,0,0,0,0,0
531,1765218594793,80,8138,-161,0,0,0,0,0
532,1765218595009,43,8157,-166,0,0,0,0,0
533,1765218595110,50,8156,-167,0,0,0,0,0
534,1765218595177,64,8172,-159,0,0,0,0,0
535,1765218595444,61,8128,-190,0,0,0,0,0
536,1765218595511,67,8138,-158,0,0,0,0,0
537,1765218595810,76,8234,-185,0,0,0,0,0
538,1765218595926,43,8156,-207,0,0,0,0,0
539,1765218596126,78,8089,-148,0,0,0,0,0
540,1765218596410,54,8194,-178,0,0,0,0,0
541,1765218596644,57,8144,-155,0,0,0,0,0
542,1765218596727,80,8145,-119,0,0,0,0,0
543,1765218596977,44,8186,-171,0,0,0,0,0
544,1765218597111,73,8146,-140,0,0,0,0,0
545,1765218597311,72,8144,-145,0,0,0,0,0
546,1765218597427,72,8174,-129,0,0,0,0,0
547,1765218597527,58,8136,-154,0,0,0,0,0
548,1765218597627,58,8169,-146,0,0,0,0,0
549,1765218597826,69,8160,-137,0,0,0,0,0
550,1765218598010,58,8136,-153,0,0,0,0,0
551,1765218598310,62,8173,-146,0,0,0,0,0
552,1765218598442,65,8155,-140,0,0,0,0,0
553,1765218598597,60,8138,-149,0,0,0,0,0
554,1765218598710,40,8189,-128,0,0,0,0,0
555,1765218598761,138,8200,-149,0,0,0,0,0
556,1765218598977,56,8129,-212,0,0,0,0,0
557,1765218599094,40,8130,-163,0,0,0,0,0
558,1765218599411,55,8092,-200,0,0,0,0,0
559,1765218599511,44,8210,-172,0,0,0,0,0
560,1765218599744,70,8191,-163,0,0,0,0,0
561,1765218600094,75,8107,-206,0,0,0,0,0
562,1765218600244,47,8209,-149,0,0,0,0,0
563,1765218600443,-5,8079,-144,0,0,0,0,0
564,1765218600543,73,8227,-192,0,0,0,0,0
565,1765218600610,16,8108,-227,0,0,0,0,0
566,1765218600693,120,8180,-226,0,0,0,0,0
567,1765218600927,2,8174,-222,0,0,0,0,0
568,1765218601075,44,8136,-154,0,0,0,0,0
569,1765218601309,115,8162,-156,0,0,0,0,0
570,1765218601361,106,8130,-167,0,0,0,0,0
571,1765218601678,31,8148,-152,0,0,0,0,0
572,1765218601827,166,8110,-90,0,0,0,0,0
573,1765218602061,-45,8167,-67,0,0,0,0,0
574,1765218602194,29,8192,-99,0,0,0,0,0
575,1765218602411,187,8090,-262,0,0,0,0,0
576,1765218602564,10,8136,-107,0,0,0,0,0
577,1765218602792,104,8166,-160,0,0,0,0,0
578,1765218602892,95,8198,-197,0,0,0,0,0
579,1765218603110,10,8160,-125,0,0,0,0,0
580,1765218603245,21,8144,-152,0,0,0,0,0
581,1765218603544,88,8186,-180,0,0,0,0,0
582,1765218603895,69,8168,-162,0,0,0,0,0
583,1765218603977,68,8178,-172,0,0,0,0,0
584,1765218604244,46,8124,-186,0,0,0,0,0
585,1765218604377,84,8173,-170,0,0,0,0,0
586,1765218604544,37,8186,-190,0,0,0,0,0
587,1765218604660,71,8144,-181,0,0,0,0,0
588,1765218605109,78,8157,-171,0,0,0,0,0
589,1765218605311,39,8143,-151,0,0,0,0,0
590,1765218605411,41,8142,-170,0,0,0,0,0
591,1765218605594,55,8179,-193,0,0,0,0,0
592,1765218605761,78,8138,-214,0,0,0,0,0
593,1765218605977,46,8181,-232,0,0,0,0,0
594,1765218606094,81,8133,-188,0,0,0,0,0
595,1765218606261,70,8152,-200,0,0,0,0,0
596,1765218606477,66,8146,-178,0,0,0,0,0
597,1765218606777,101,8148,-174,0,0,0,0,0
598,1765218606927,51,8114,-162,0,0,0,0,0
599,1765218607044,36,8152,-175,0,0,0,0,0
600,1765218607227,74,8183,-182,0,0,0,0,0
601,1765218607444,55,8135,-168,0,0,0,0,0
602,1765218607628,55,8151,-174,0,0,0,0,0
603,1765218607728,67,8161,-178,0,0,0,0,0
604,1765218607927,59,8151,-161,0,0,0,0,0
605,1765218608060,59,8152,-166,0,0,0,0,0
606,1765218608227,64,8150,-191,0,0,0,0,0
607,1765218608427,67,8172,-162,0,0,0,0,0
608,1765218608660,48,8163,-153,0,0,0,0,0
609,1765218608794,60,8168,-167,0,0,0,0,0
610,1765218609027,72,8130,-152,0,0,0,0,0
611,1765218609144,52,8168,-151,0,0,0,0,0
612,1765218609377,57,8136,-162,0,0,0,0,0
613,1765218609510,56,8151,-160,0,0,0,0,0
614,1765218609694,52,8163,-175,0,0,0,0,0
615,1765218609827,60,8140,-188,0,0,0,0,0
616,1765218610178,66,8141,-172,0,0,0,0,0
617,1765218610244,56,8157,-170,0,0,0,0,0
618,1765218610477,60,8159,-172,0,0,0,0,0
619,1765218610544,57,8158,-180,0,0,0,0,0
620,1765218610611,71,8147,-175,0,0,0,0,0
621,1765218610744,57,8164,-166,0,0,0,0,0
622,1765218610927,59,8153,-162,0,0,0,0,0
623,1765218611127,73,8156,-176,0,0,0,0,0
624,1765218611311,60,8170,-157,0,0,0,0,0
625,1765218611411,62,8165,-158,0,0,0,0,0
626,1765218611694,62,8153,-163,0,0,0,0,0
627,1765218611894,43,8131,-180,0,0,0,0,0
628,1765218612060,67,8176,-165,0,0,0,0,0
629,1765218612228,76,8173,-180,0,0,0,0,0
630,1765218612394,54,8134,-166,0,0,0,0,0
631,1765218612460,52,8149,-164,0,0,0,0,0
632,1765218612611,56,8163,-173,0,0,0,0,0
633,1765218612794,65,8161,-172,0,0,0,0,0
634,1765218612961,75,8166,-161,0,0,0,0,0
635,1765218613194,49,8156,-170,0,0,0,0,0
636,1765218613444,80,8145,-184,0,0,0,0,0
637,1765218613544,53,8161,-171,0,0,0,0,0
638,1765218613761,84,8161,-168,0,0,0,0,0
639,1765218613945,84,8160,-150,0,0,0,0,0
640,1765218614093,26,8158,-145,0,0,0,0,0
641,1765218614277,83,8157,-166,0,0,0,0,0
642,1765218614427,80,8169,-174,0,0,0,0,0
643,1765218614644,38,8117,-160,0,0,0,0,0
644,1765218614777,65,8160,-149,0,0,0,0,0
645,1765218615027,56,8173,-163,0,0,0,0,0
646,1765218615277,60,8138,-150,0,0,0,0,0
647,1765218615393,60,8160,-170,0,0,0,0,0
648,1765218615610,50,8142,-128,0,0,0,0,0
649,1765218615775,72,8144,-156,0,0,0,0,0
650,1765218615992,48,8147,-214,0,0,0,0,0
651,1765218616094,72,8142,-216,0,0,0,0,0
652,1765218616277,71,8047,-132,0,0,0,0,0
653,1765218616461,53,8194,-156,0,0,0,0,0
654,1765218616777,75,8187,-136,0,0,0,0,0
655,1765218619642,49,8152,-195,0,0,0,0,0
656,1765218619759,56,8140,-186,0,0,0,0,0
657,1765218619927,61,8158,-184,0,0,0,0,0
658,1765218620110,55,8152,-174,0,0,0,0,0
659,1765218620227,60,8165,-160,0,0,0,0,0
660,1765218620427,50,8156,-180,0,0,0,0,0
661,1765218620544,55,8150,-178,0,0,0,0,0
662,1765218620760,62,8154,-175,0,0,0,0,0
663,1765218620843,64,8152,-173,0,0,0,0,0
664,1765218621211,51,8148,-162,0,0,0,0,0
665,1765218621360,62,8164,-165,0,0,0,0,0
666,1765218621510,56,8146,-174,0,0,0,0,0
667,1765218621661,67,8160,-169,0,0,0,0,0
668,1765218621944,59,8156,-167,0,0,0,0,0
669,1765218622161,66,8141,-189,0,0,0,0,0
670,1765218622325,61,8139,-162,0,0,0,0,0
671,1765218622427,60,8155,-169,0,0,0,0,0
672,1765218622626,67,8158,-148,0,0,0,0,0
673,1765218622811,54,8167,-175,0,0,0,0,0
674,1765218623026,49,8157,-154,0,0,0,0,0
675,1765218623092,63,8156,-162,0,0,0,0,0
676,1765218623325,64,8149,-172,0,0,0,0,0
677,1765218623761,62,8162,-185,0,0,0,0,0
678,1765218623827,53,8158,-168,0,0,0,0,0
679,1765218624060,60,8153,-168,0,0,0,0,0
680,1765218624194,63,8162,-173,0,0,0,0,0
681,1765218624327,58,8146,-160,0,0,0,0,0
682,1765218624510,68,8158,-156,0,0,0,0,0
683,1765218624693,61,8148,-160,0,0,0,0,0
684,1765218624894,60,8160,-155,0,0,0,0,0
685,1765218624994,57,8154,-160,0,0,0,0,0
686,1765218625260,64,8149,-160,0,0,0,0,0
687,1765218625411,64,8159,-162,0,0,0,0,0
688,1765218625643,65,8156,-158,0,0,0,0,0
689,1765218625760,55,8163,-154,0,0,0,0,0
690,1765218625944,60,8141,-161,0,0,0,0,0
691,1765218626077,65,8154,-164,0,0,0,0,0
692,1765218626343,77,8171,-177,0,0,0,0,0
693,1765218626428,57,8149,-168,0,0,0,0,0
694,1765218626776,74,8138,-158,0,0,0,0,0
695,1765218626875,60,8156,-153,0,0,0,0,0
696,1765218627161,59,8154,-152,0,0,0,0,0
697,1765218627276,55,8166,-163,0,0,0,0,0
698,1765218627444,73,8137,-148,0,0,0,0,0
699,1765218627577,57,8151,-138,0,0,0,0,0
700,1765218627760,70,8170,-137,0,0,0,0,0
701,1765218627894,66,8148,-150,0,0,0,0,0
702,1765218628027,61,8154,-155,0,0,0,0,0
703,1765218628277,58,8168,-181,0,0,0,0,0
704,1765218628344,68,8147,-190,0,0,0,0,0
705,1765218628494,57,8174,-151,0,0,0,0,0
706,1765218628711,56,8133,-160,0,0,0,0,0
707,1765218629009,73,8174,-175,0,0,0,0,0
708,1765218629159,64,8152,-166,0,0,0,0,0
709,1765218629227,60,8150,-174,0,0,0,0,0
710,1765218629442,55,8152,-172,0,0,0,0,0
711,1765218629528,66,8159,-178,0,0,0,0,0
712,1765218629860,45,8147,-192,0,0,0,0,0
713,1765218629944,69,8184,-162,0,0,0,0,0
714,1765218630176,78,8141,-106,0,0,0,0,0
715,1765218630243,61,8156,-103,0,0,0,0,0
716,1765218630360,68,8165,-165,0,0,0,0,0
717,1765218630660,66,8157,-115,0,0,0,0,0
718,1765218630794,65,8141,-100,0,0,0,0,0
719,1765218631059,57,8153,-148,0,0,0,0,0
720,1765218631125,52,8166,-129,0,0,0,0,0
721,1765218631342,56,8144,-114,0,0,0,0,0
722,1765218631475,74,8158,-151,0,0,0,0,0
723,1765218631558,71,8155,-161,0,0,0,0,0
724,1765218631777,41,8168,-184,0,0,0,0,0
725,1765218631858,66,8122,-175,0,0,0,0,0
726,1765218632077,72,8160,-175,0,0,0,0,0
727,1765218632142,64,8144,-172,0,0,0,0,0
728,1765218632242,55,8147,-182,0,0,0,0,0
729,1765218632558,60,8162,-167,0,0,0,0,0
730,1765218632642,64,8149,-164,0,0,0,0,0
731,1765218632943,63,8161,-158,0,0,0,0,0
732,1765218633043,62,8155,-155,0,0,0,0,0
733,1765218633293,58,8145,-162,0,0,0,0,0
734,1765218633477,56,8148,-164,0,0,0,0,0
735,1765218633643,59,8153,-164,0,0,0,0,0
736,1765218633775,58,8158,-154,0,0,0,0,0
737,1765218634243,67,8155,-156,0,0,0,0,0
738,1765218634411,59,8158,-168,0,0,0,0,0
739,1765218634527,59,8151,-162,0,0,0,0,0
740,1765218634661,76,8167,-172,0,0,0,0,0
741,1765218634744,62,8182,-174,0,0,0,0,0
742,1765218634944,56,8130,-157,0,0,0,0,0
743,1765218635077,56,8144,-141,0,0,0,0,0
744,1765218635344,58,8154,-168,0,0,0,0,0
745,1765218635441,64,8127,-162,0,0,0,0,0
746,1765218635627,64,8164,-162,0,0,0,0,0
747,1765218635743,64,8160,-180,0,0,0,0,0
748,1765218635844,66,8152,-158,0,0,0,0,0
749,1765218636110,53,8152,-169,0,0,0,0,0
750,1765218636209,62,8164,-174,0,0,0,0,0
751,1765218636394,61,8153,-160,0,0,0,0,0
752,1765218636427,63,8150,-166,0,0,0,0,0
753,1765218636610,56,8164,-152,0,0,0,0,0
754,1765218636727,71,8152,-154,0,0,0,0,0
755,1765218636926,62,8146,-147,0,0,0,0,0
756,1765218637094,51,8158,-148,0,0,0,0,0
757,1765218637260,67,8156,-166,0,0,0,0,0
758,1765218637393,54,8150,-167,0,0,0,0,0
759,1765218637561,62,8164,-181,0,0,0,0,0
760,1765218637625,72,8152,-186,0,0,0,0,0
761,1765218637860,59,8154,-178,0,0,0,0,0
762,1765218638078,56,8158,-167,0,0,0,0,0
763,1765218638161,54,8148,-158,0,0,0,0,0
764,1765218638244,69,8150,-164,0,0,0,0,0
765,1765218638309,60,8164,-153,0,0,0,0,0
766,1765218638544,68,8148,-156,0,0,0,0,0
767,1765218638710,58,8159,-156,0,0,0,0,0
768,1765218638910,56,8161,-160,0,0,0,0,0
769,1765218639009,62,8148,-136,0,0,0,0,0
770,1765218639244,58,8152,-191,0,0,0,0,0
771,1765218639477,54,8149,-212,0,0,0,0,0
772,1765218639677,37,8139,-187,0,0,0,0,0
773,1765218639777,71,8186,-164,0,0,0,0,0
774,1765218639993,80,8125,-168,0,0,0,0,0
775,1765218640160,64,8146,-172,0,0,0,0,0
776,1765218640310,56,8139,-162,0,0,0,0,0
777,1765218640477,56,8170,-150,0,0,0,0,0
778,1765218640677,65,8148,-173,0,0,0,0,0
779,1765218640844,72,8154,-162,0,0,0,0,0
780,1765218640978,50,8163,-174,0,0,0,0,0
781,1765218641227,72,8130,-174,0,0,0,0,0
782,1765218641461,62,8153,-181,0,0,0,0,0
783,1765218641610,68,8149,-166,0,0,0,0,0
784,1765218641809,57,8160,-156,0,0,0,0,0
785,1765218641893,57,8143,-154,0,0,0,0,0
786,1765218641960,66,8131,-177,0,0,0,0,0
787,1765218642126,72,8162,-153,0,0,0,0,0
788,1765218642292,51,8162,-157,0,0,0,0,0
789,1765218642477,68,8126,-137,0,0,0,0,0
790,1765218642576,68,8177,-162,0,0,0,0,0
791,1765218642658,64,8134,-152,0,0,0,0,0
792,1765218642726,64,8174,-171,0,0,0,0,0
793,1765218643010,66,8136,-155,0,0,0,0,0
794,1765218643227,61,8165,-164,0,0,0,0,0
795,1765218643377,69,8138,-163,0,0,0,0,0
796,1765218643460,54,8162,-164,0,0,0,0,0
797,1765218643709,66,8168,-168,0,0,0,0,0
798,1765218643827,71,8154,-173,0,0,0,0,0
799,1765218643860,62,8150,-172,0,0,0,0,0
800,1765218644182,66,8150,-151,0,0,0,0,0
801,1765218644189,59,8161,-162,0,0,0,0,0
802,1765218644411,53,8153,-166,0,0,0,0,0
803,1765218644592,68,8165,-164,0,0,0,0,0
804,1765218644859,60,8140,-167,0,0,0,0,0
805,1765218644978,60,8164,-167,0,0,0,0,0
806,1765218645177,59,8132,-168,0,0,0,0,0
807,1765218645293,57,8164,-150,0,0,0,0,0
808,1765218645559,59,8165,-147,0,0,0,0,0
809,1765218645661,73,8148,-158,0,0,0,0,0
810,1765218645708,62,8165,-154,0,0,0,0,0
811,1765218645827,46,8152,-177,0,0,0,0,0
812,1765218646009,80,8140,-162,0,0,0,0,0
813,1765218646310,65,8155,-172,0,0,0,0,0
814,1765218646444,57,8166,-169,0,0,0,0,0
815,1765218646609,47,8122,-192,0,0,0,0,0
816,1765218646744,48,8147,-226,0,0,0,0,0
817,1765218646927,75,8186,-168,0,0,0,0,0
818,1765218647110,52,8086,-162,0,0,0,0,0
819,1765218647276,15,8223,-192,0,0,0,0,0
820,1765218647442,79,8163,-184,0,0,0,0,0
821,1765218647610,62,8161,-160,0,0,0,0,0
822,1765218647826,63,8163,-201,0,0,0,0,0
823,1765218648095,38,8123,-183,0,0,0,0,0
824,1765218648275,78,8132,-190,0,0,0,0,0
825,1765218648376,81,8138,-192,0,0,0,0,0
826,1765218648576,22,8175,-175,0,0,0,0,0
827,1765218648743,68,8146,-149,0,0,0,0,0
828,1765218648959,66,8165,-192,0,0,0,0,0
829,1765218649026,44,8196,-137,0,0,0,0,0
830,1765218649259,93,8130,-124,0,0,0,0,0
831,1765218649375,76,8113,-119,0,0,0,0,0
832,1765218649560,56,8066,-161,0,0,0,0,0
833,1765218649777,54,8248,-194,0,0,0,0,0
834,1765218650008,76,8166,-170,0,0,0,0,0
835,1765218650143,28,8272,-196,0,0,0,0,0
836,1765218650344,36,8144,-194,0,0,0,0,0
837,1765218650477,60,8146,-56,0,0,0,0,0
838,1765218650710,102,8069,-172,0,0,0,0,0
839,1765218650859,60,8140,-128,0,0,0,0,0
840,1765218651044,77,8168,-172,0,0,0,0,0
841,1765218651260,61,8144,-204,0,0,0,0,0
842,1765218651459,65,8220,-243,0,0,0,0,0
843,1765218651591,39,8094,-236,0,0,0,0,0
844,1765218651809,68,8204,-106,0,0,0,0,0
845,1765218651876,96,8146,-52,0,0,0,0,0
846,1765218652062,174,8258,-185,0,0,0,0,0
847,1765218652294,6,8240,-166,0,0,0,0,0
848,1765218652460,-48,8138,-167,0,0,0,0,0
849,1765218652592,150,8098,-146,0,0,0,0,0
850,1765218652642,67,8197,-249,0,0,0,0,0
851,1765218652709,77,8172,-173,0,0,0,0,0
852,1765218653027,72,8160,-116,0,0,0,0,0
853,1765218653227,120,8115,-193,0,0,0,0,0
854,1765218653409,28,8204,-177,0,0,0,0,0
855,1765218653526,56,8091,-252,0,0,0,0,0
856,1765218653693,68,8112,-207,0,0,0,0,0
857,1765218654110,80,8104,-150,0,0,0,0,0
858,1765218654208,53,8203,-144,0,0,0,0,0
859,1765218654410,65,8167,-169,0,0,0,0,0
860,1765218654610,650,8928,1605,0,0,0,0,0
861,1765218654843,1185,7362,1107,0,0,0,0,0
862,1765218655116,451,8849,2956,0,0,0,0,0
863,1765218655226,-347,9698,1450,0,0,0,0,0
864,1765218655377,438,5789,2331,0,0,0,0,0
865,1765218655561,506,4615,2394,0,0,0,0,0
866,1765218655810,805,8102,2956,0,0,0,0,0
867,1765218656260,371,8544,3200,0,0,0,0,0
868,1765218656443,-988,8982,-2068,0,0,0,0,0
869,1765218656677,1330,6238,-78,0,0,0,0,0
870,1765218656827,-132,9649,-420,0,0,0,0,0
871,1765218656993,1402,7354,-1274,0,0,0,0,0
872,1765218657060,425,7846,-666,0,0,0,0,0
873,1765218657293,72,7683,-409,0,0,0,0,0
874,1765218657377,-238,8451,-910,0,0,0,0,0
875,1765218657610,116,8410,-482,0,0,0,0,0
876,1765218657760,-854,6762,-800,0,0,0,0,0
877,1765218658076,-389,9295,-760,0,0,0,0,0
878,1765218658226,536,6769,-443,0,0,0,0,0
879,1765218658442,-1118,8756,-1262,0,0,0,0,0
880,1765218658525,-81,8224,-836,0,0,0,0,0
881,1765218658759,-523,8107,-1176,0,0,0,0,0
882,1765218658943,-176,7526,-361,0,0,0,0,0
883,1765218659141,-360,7953,-513,0,0,0,0,0
884,1765218659291,-682,8607,-896,0,0,0,0,0
885,1765218659525,-350,8104,-913,0,0,0,0,0
886,1765218659842,-243,7159,-554,0,0,0,0,0
887,1765218659925,-556,9445,-739,0,0,0,0,0
888,1765218660143,-614,8036,-932,0,0,0,0,0
889,1765218660208,374,7907,-679,0,0,0,0,0
890,1765218660275,-650,9037,-1085,0,0,0,0,0
891,1765218660558,-149,7337,-810,0,0,0,0,0
892,1765218660661,-445,8091,-486,0,0,0,0,0
893,1765218660929,-344,-10660,-728,0,0,0,0,0
894,1765218660994,-77,8542,-548,0,0,0,0,0
895,1765218662025,118,7810,-229,0,0,0,0,0
896,1765218662159,-285,8160,-799,0,0,0,0,0
897,1765218662308,114,7137,-694,0,0,0,0,0
898,1765218662460,192,9225,-866,0,0,0,0,0
899,1765218662642,-103,8286,-651,0,0,0,0,0
900,1765218663209,7,7982,-733,0,0,0,0,0
901,1765218663292,412,8317,-650,0,0,0,0,0
902,1765218663376,336,7900,-663,0,0,0,0,0
903,1765218663592,-73,7586,-853,0,0,0,0,0
904,1765218663941,239,7732,-624,0,0,0,0,0
905,1765218664058,36,8112,-388,0,0,0,0,0
906,1765218664258,-122,8628,-787,0,0,0,0,0
907,1765218665008,68,8073,-495,0,0,0,0,0
908,1765218665076,24386,8308,-543,0,0,0,0,0
909,1765218665477,53,7985,-617,0,0,0,0,0
910,1765218665609,227,7936,-621,0,0,0,0,0
911,1765218665776,56,8110,-646,0,0,0,0,0
912,1765218665908,80,8086,-574,0,0,0,0,0
913,1765218666075,74,8008,-540,0,0,0,0,0
914,1765218666458,48,8181,-654,0,0,0,0,0
915,1765218666658,94,8192,-647,0,0,0,0,0
916,1765218666775,34,8102,-596,0,0,0,0,0
917,1765218667149,55,8155,-417,0,0,0,0,0
918,1765218667292,77,8122,-407,0,0,0,0,0
919,1765218667409,92,8126,-350,0,0,0,0,0
920,1765218667824,12062,27322,-21788,0,0,0,0,0
921,1765218669025,94,8164,-235,0,0,0,0,0
922,1765218669191,80,6611,16287,0,0,0,0,0
923,1765218669610,78,7137,23881,0,0,0,0,0
924,1765218669758,77,8135,-214,0,0,0,0,0
925,1765218670042,96,8144,-237,0,0,0,0,0
926,1765218670158,97,8150,-201,0,0,0,0,0
927,1765218670241,94,8151,-217,0,0,0,0,0
928,1765218670459,76,8165,-218,0,0,0,0,0
929,1765218670558,76,-8247,-28,0,0,0,0,0
930,1765218674657,68,4560,-11364,0,0,0,0,0
931,1765218676091,91,8168,-252,0,0,0,0,0
932,1765218677224,80,8164,-244,0,0,0,0,0
933,1765218677474,102,8122,-256,0,0,0,0,0
934,1765218677642,79,-24600,-104,0,0,0,0,0
935,1765218677942,78,8148,-210,0,0,0,0,0
936,1765218678408,109,8173,-223,0,0,0,0,0
937,1765218679026,87,8155,-231,0,0,0,0,0
938,1765218679175,81,8148,-182,0,0,0,0,0
939,1765218680024,97,8157,-242,0,0,0,0,0
940,1765218682275,96,-11302,16333,0,0,0,0,0
941,1765218682758,85,8142,-261,0,0,0,0,0
942,1765218683059,101,8148,-177,0,0,0,0,0
943,1765218683443,95,8168,-211,0,0,0,0,0
944,1765218683508,96,8179,-203,0,0,0,0,0
945,1765218683742,80,8101,-248,0,0,0,0,0
946,1765218683876,91,8168,-248,0,0,0,0,0
947,1765218684458,71,8146,-300,0,0,0,0,0
948,1765218685309,84,8651,-13828,0,0,0,0,0
949,1765218686409,102,8146,-239,0,0,0,0,0
950,1765218688593,77,8114,-283,0,0,0,0,0
951,1765218693294,98,8142,-266,0,0,0,0,0
952,1765218695358,116,23263,-20928,0,0,0,0,0
953,1765218697377,86,8157,-248,0,0,0,0,0
954,1765218699991,89,8129,-243,0,0,0,0,0
955,1765218700543,92,8139,-228,0,0,0,0,0
956,1765218700608,92,8152,-210,0,0,0,0,0
957,1765218700892,82,-24630,-82,0,0,0,0,0
958,1765218701076,84,8156,-213,0,0,0,0,0
959,1765218701391,86,8136,-216,0,0,0,0,0
960,1765218701509,83,8144,-197,0,0,0,0,0
961,1765218701659,24,23256,-21786,0,0,0,0,0
962,1765218703075,80,24536,-19498,0,0,0,0,0
963,1765218705443,87,8140,-214,0,0,0,0,0
964,1765218706725,82,5090,-19488,0,0,0,0,0
965,1765218707541,90,8140,32564,0,0,0,0,0
966,1765218708809,98,5084,-18656,0,0,0,0,0
967,1765218711343,77,29382,-12944,0,0,0,0,0
968,1765218714026,97,24491,-1287,0,0,0,0,0
969,1765218716341,108,8408,-31825,0,0,0,0,0
970,1765218716492,77,15820,-177,0,0,0,0,0
971,1765218718358,221,27549,27670,0,0,0,0,0
972,1765218719760,10,8426,582,0,0,0,0,0
973,1765218720941,-1096,2466,9935,0,0,0,0,0
974,1765218723876,104,5805,29025,0,0,0,0,0
975,1765218726259,-7461,7648,-1780,0,0,0,0,0
976,1765218729675,-1956,8218,788,0,0,0,0,0
977,1765218730543,1819,17376,-12251,0,0,0,0,0
978,1765218731226,2133,7568,-574,0,0,0,0,0
979,1765218731543,2252,9388,-1056,0,0,0,0,0
980,1765218732143,1934,4370,17418,0,0,0,0,0
981,1765218732825,1384,-6969,32626,0,0,0,0,0
982,1765218733576,1200,8026,-436,0,0,0,0,0
983,1765218735376,3058,-25408,16077,0,0,0,0,0
984,1765218737575,-1442,27565,-8010,0,0,0,0,0
985,1765218738826,-3106,-22411,240,0,0,0,0,0
986,1765218739325,-3984,7499,-1994,0,0,0,0,0
987,1765218739607,27677,27298,9861,0,0,0,0,0
988,1765218740526,-5342,2362,15945,0,0,0,0,0
989,1765218741942,-1259,-20286,-383,0,0,0,0,0
990,1765218743293,520,8032,78,0,0,0,0,0
991,1765218744175,-1359,9882,-122,0,0,0,0,0
992,1765218744609,1574,7821,420,0,0,0,0,0
993,1765218747226,3021,14678,-21764,0,0,0,0,0
994,1765218747308,3190,8070,-727,0,0,0,0,0
995,1765218748159,-1970,7688,80,0,0,0,0,0
996,1765218748342,-2146,9425,-1516,0,0,0,0,0
997,1765218748741,-2080,8806,-981,0,0,0,0,0
998,1765218749091,-17412,9035,-15574,0,0,0,0,0
999,1765218749325,-877,7324,-2552,0,0,0,0,0
1000,1765218749392,-777,7338,-2924,0,0,0,0,0
1001,1765218749458,-214,8639,-2658,0,0,0,0,0
1002,1765218749592,-348,7379,-2062,0,0,0,0,0
1003,1765218750109,-506,10368,29755,0,0,0,0,0
1004,1765218750524,-920,29672,-25867,0,0,0,0,0
1005,1765218750675,-672,5726,-1480,0,0,0,0,0
1006,1765218751192,-540,8313,-1669,0,0,0,0,0
1007,1765218751340,-744,8083,-2296,0,0,0,0,0
1008,1765218751859,-553,8146,-2088,0,0,0,0,0
1009,1765218752025,-476,8094,77,0,0,0,0,0
1010,1765218752274,-478,8108,-451,0,0,0,0,0
1011,1765218752408,-516,8078,-778,0,0,0,0,0
1012,1765218752758,-550,8028,-592,0,0,0,0,0
1013,1765218752842,-585,8174,-488,0,0,0,0,0
1014,1765218753075,-550,8058,-670,0,0,0,0,0
1015,1765218753192,-554,8162,-572,0,0,0,0,0
1016,1765218753408,-553,8092,-578,0,0,0,0,0
1017,1765218753491,-560,8070,-602,0,0,0,0,0
1018,1765218753942,-554,8056,-598,0,0,0,0,0
1019,1765218754142,-566,8109,-563,0,0,0,0,0
1020,1765218754607,-548,8109,-563,0,0,0,0,0
1021,1765218754775,-562,8086,-598,0,0,0,0,0
1022,1765218754942,-559,8120,-573,0,0,0,0,0
1023,1765218755309,-565,8131,-584,0,0,0,0,0
1024,1765218756824,-490,8138,-559,0,0,0,0,0
1025,1765218756908,-573,8078,-595,0,0,0,0,0
1026,1765218756991,-546,8084,-576,0,0,0,0,0
1027,1765218757509,-570,8058,-635,0,0,0,0,0
1028,1765218757791,-520,8139,-574,0,0,0,0,0
1029,1765218758458,-538,5002,-2795,0,0,0,0,0
1030,1765218759108,-544,8103,-574,0,0,0,0,0
1031,1765218759192,-532,8105,-550,0,0,0,0,0
1032,1765218759525,-571,8092,-573,0,0,0,0,0
1033,1765218759676,-541,8115,-594,0,0,0,0,0
1034,1765218759858,-555,8092,-593,0,0,0,0,0
1035,1765218760225,-542,8084,-593,0,0,0,0,0
1036,1765218760342,-549,8088,-564,0,0,0,0,0
1037,1765218760592,-555,8134,-604,0,0,0,0,0
1038,1765218760758,-568,8072,-541,0,0,0,0,0
1039,1765218761641,-568,8068,-575,0,0,0,0,0
1040,1765218761708,-537,8082,-587,0,0,0,0,0
1041,1765218762091,-562,8124,-594,0,0,0,0,0
1042,1765218762391,-562,8088,-584,0,0,0,0,0
1043,1765218762457,-566,8110,-575,0,0,0,0,0
1044,1765218762524,-541,8105,-561,0,0,0,0,0
1045,1765218762624,-565,8121,-600,0,0,0,0,0
1046,1765218762825,-559,8070,-582,0,0,0,0,0
1047,1765218762958,-558,8126,-576,0,0,0,0,0
1048,1765218763142,-563,8106,-582,0,0,0,0,0
1049,1765218763958,-566,8014,-632,0,0,0,0,0
1050,1765218764342,-545,-18530,21966,0,0,0,0,0
1051,1765218764408,-558,8051,-535,0,0,0,0,0
1052,1765218764892,-578,7952,-704,0,0,0,0,0
1053,1765218765158,-591,8087,-805,0,0,0,0,0
1054,1765218765324,-512,8058,-608,0,0,0,0,0
1055,1765218765457,-572,8158,-526,0,0,0,0,0
1056,1765218765875,-560,8128,-535,0,0,0,0,0
1057,1765218766307,-570,8076,-554,0,0,0,0,0
1058,1765218767491,-580,8068,-605,0,0,0,0,0
1059,1765218767523,-581,8146,-613,0,0,0,0,0
1060,1765218768675,-566,8128,-561,0,0,0,0,0
1061,1765218768908,-548,24468,-22496,0,0,0,0,0
1062,1765218769008,-20593,8185,-593,0,0,0,0,0
1063,1765218769475,-558,8116,-580,0,0,0,0,0
1064,1765218770040,-516,8112,-627,0,0,0,0,0
1065,1765218770590,15777,-25414,-17816,0,0,0,0,0
1066,1765218771341,-534,-16960,-3657,0,0,0,0,0
1067,1765218790842,-562,8078,-590,0,0,0,0,0
1068,1765218790907,-523,8088,-586,0,0,0,0,0
1069,1765218791574,-544,8096,-586,0,0,0,0,0
1070,1765218791657,-556,8090,-570,0,0,0,0,0
1071,1765218792206,-554,8088,-556,0,0,0,0,0
1072,1765218792325,-556,8115,-591,0,0,0,0,0
1073,1765218793059,-480,8154,-560,0,0,0,0,0
1074,1765218793208,-548,8100,-562,0,0,0,0,0
1075,1765218794225,-538,8082,-574,0,0,0,0,0
1076,1765218795474,-554,2451,9995,0,0,0,0,0
1077,1765218797608,-541,8123,-590,0,0,0,0,0
1078,1765218797691,-542,8096,-590,0,0,0,0,0
1079,1765218797908,-560,8102,-557,0,0,0,0,0
1080,1765218798173,-553,8084,-570,0,0,0,0,0
1081,1765218798325,-545,8104,-569,0,0,0,0,0
1082,1765218798391,-550,8108,-580,0,0,0,0,0
1083,1765218798642,-569,8106,-585,0,0,0,0,0
1084,1765218798707,-558,8082,-603,0,0,0,0,0
1085,1765218798892,-550,8108,-588,0,0,0,0,0
1086,1765218799091,-555,8080,-584,0,0,0,0,0
1087,1765218799291,-556,8097,-580,0,0,0,0,0
1088,1765218799473,-558,8088,-575,0,0,0,0,0
1089,1765218799558,-564,8103,-579,0,0,0,0,0
1090,1765218799791,-548,8094,-582,0,0,0,0,0
1091,1765218800225,-532,8039,-572,0,0,0,0,0
1092,1765218800325,-558,8128,-598,0,0,0,0,0
1093,1765218800508,-562,8045,-577,0,0,0,0,0
1094,1765218801208,-561,8110,-574,0,0,0,0,0
1095,1765218801324,-698,8092,-682,0,0,0,0,0
1096,1765218801441,-618,8066,-639,0,0,0,0,0
1097,1765218801689,-474,8093,-622,0,0,0,0,0
1098,1765218802058,-608,8087,-601,0,0,0,0,0
1099,1765218802191,-524,8090,-583,0,0,0,0,0
1100,1765218802391,-549,8156,-577,0,0,0,0,0
1101,1765218802774,-558,8121,-600,0,0,0,0,0
1102,1765218802841,-542,8066,-630,0,0,0,0,0
1103,1765218803074,-565,8120,-560,0,0,0,0,0
1104,1765218803224,-555,8110,-570,0,0,0,0,0
1105,1765218803524,-546,8086,-568,0,0,0,0,0
1106,1765218803625,-564,8071,-554,0,0,0,0,0
1107,1765218803808,-550,8096,-583,0,0,0,0,0
1108,1765218803940,-540,8101,-592,0,0,0,0,0
1109,1765218804174,-571,8090,-599,0,0,0,0,0
1110,1765218804258,-566,8109,-604,0,0,0,0,0
1111,1765218804641,-562,8130,-588,0,0,0,0,0
1112,1765218804741,-566,8092,-577,0,0,0,0,0
1113,1765218805006,-542,8097,-591,0,0,0,0,0
1114,1765218805125,-548,8102,-577,0,0,0,0,0
1115,1765218805342,-562,8112,-593,0,0,0,0,0
1116,1765218805425,-560,8109,-593,0,0,0,0,0
1117,1765218805657,-552,8088,-576,0,0,0,0,0
1118,1765218805791,-556,8102,-570,0,0,0,0,0
1119,1765218805975,-574,8096,-586,0,0,0,0,0
1120,1765218806108,-551,8110,-565,0,0,0,0,0
1121,1765218806491,-556,8104,-592,0,0,0,0,0
1122,1765218806723,-572,8093,-619,0,0,0,0,0
1123,1765218806841,-549,8151,-550,0,0,0,0,0
1124,1765218807054,-558,8092,-558,0,0,0,0,0
1125,1765218807212,-545,8066,-655,0,0,0,0,0
1126,1765218807274,-552,8130,-604,0,0,0,0,0
1127,1765218807525,-592,8103,-563,0,0,0,0,0
1128,1765218807657,-503,8162,-549,0,0,0,0,0
1129,1765218807791,-596,8060,-608,0,0,0,0,0
1130,1765218807941,-594,8098,-578,0,0,0,0,0
1131,1765218808275,-546,8094,-612,0,0,0,0,0
1132,1765218808491,-532,8078,-552,0,0,0,0,0
1133,1765218808691,-563,8141,-572,0,0,0,0,0
1134,1765218808825,-578,8109,-579,0,0,0,0,0
1135,1765218809058,-549,8109,-580,0,0,0,0,0
1136,1765218809142,-524,8088,-558,0,0,0,0,0
1137,1765218809391,-589,8090,-606,0,0,0,0,0
1138,1765218809525,-544,8172,-578,0,0,0,0,0
1139,1765218809658,-580,8042,-580,0,0,0,0,0
1140,1765218809808,-534,8114,-560,0,0,0,0,0
1141,1765218810258,-578,8118,-575,0,0,0,0,0
1142,1765218810358,-576,8096,-593,0,0,0,0,0
1143,1765218810541,-530,8099,-580,0,0,0,0,0
1144,1765218810675,-553,8093,-574,0,0,0,0,0
1145,1765218810825,-590,8074,-596,0,0,0,0,0
1146,1765218811006,-531,8107,-581,0,0,0,0,0
1147,1765218811208,-542,8127,-592,0,0,0,0,0
1148,1765218811342,-555,8104,-594,0,0,0,0,0
1149,1765218811441,-577,8077,-574,0,0,0,0,0
1150,1765218811741,-558,8089,-588,0,0,0,0,0
1151,1765218812008,-582,8085,-580,0,0,0,0,0
1152,1765218812158,-550,8109,-585,0,0,0,0,0
1153,1765218812325,-546,8110,-578,0,0,0,0,0
1154,1765218812576,-563,8106,-593,0,0,0,0,0
1155,1765218812791,-552,8112,-580,0,0,0,0,0
1156,1765218812924,-553,8092,-578,0,0,0,0,0
1157,1765218813108,-566,8102,-573,0,0,0,0,0
1158,1765218813208,-561,8089,-590,0,0,0,0,0
1159,1765218813325,-554,8115,-584,0,0,0,0,0
1160,1765218813641,-562,8089,-573,0,0,0,0,0
1161,1765218813758,-566,8121,-584,0,0,0,0,0
1162,1765218813842,-568,8104,-591,0,0,0,0,0
1163,1765218814057,-531,8135,-552,0,0,0,0,0
1164,1765218814141,-552,8073,-580,0,0,0,0,0
1165,1765218814508,-583,8132,-562,0,0,0,0,0
1166,1765218814608,-530,8096,-572,0,0,0,0,0
1167,1765218814808,-542,8102,-593,0,0,0,0,0
1168,1765218814891,-588,8104,-597,0,0,0,0,0
1169,1765218814991,-592,8064,-578,0,0,0,0,0
1170,1765218815175,-552,8094,-578,0,0,0,0,0
1171,1765218815391,-536,8114,-577,0,0,0,0,0
1172,1765218815607,-571,8078,-597,0,0,0,0,0
1173,1765218816191,-551,8113,-581,0,0,0,0,0
1174,1765218816408,-552,8100,-578,0,0,0,0,0
1175,1765218816524,-564,8098,-586,0,0,0,0,0
1176,1765218816707,-560,8092,-592,0,0,0,0,0
1177,1765218816892,-554,8124,-584,0,0,0,0,0
1178,1765218816990,-559,8101,-574,0,0,0,0,0
1179,1765218817291,-555,8090,-586,0,0,0,0,0
1180,1765218817458,-562,8101,-580,0,0,0,0,0
1181,1765218817608,-554,8106,-584,0,0,0,0,0
1182,1765218817758,-544,8092,-588,0,0,0,0,0
1183,1765218817875,-554,8094,-590,0,0,0,0,0
1184,1765218818075,-557,8113,-593,0,0,0,0,0
1185,1765218818291,-566,8094,-580,0,0,0,0,0
1186,1765218818424,-550,8080,-570,0,0,0,0,0
1187,1765218818641,-564,8070,-584,0,0,0,0,0
1188,1765218818724,-586,8103,-561,0,0,0,0,0
1189,1765218818925,-560,8106,-589,0,0,0,0,0
1190,1765218819375,-570,8080,-582,0,0,0,0,0
1191,1765218819478,-569,8104,-607,0,0,0,0,0
1192,1765218819658,-564,8105,-586,0,0,0,0,0
1193,1765218819874,-536,8140,-574,0,0,0,0,0
1194,1765218819941,-543,8089,-578,0,0,0,0,0
1195,1765218820191,-598,8086,-604,0,0,0,0,0
1196,1765218820275,-548,8122,-610,0,0,0,0,0
1197,1765218820358,-551,8100,-584,0,0,0,0,0
1198,1765218820457,-540,8106,-582,0,0,0,0,0
1199,1765218820641,-562,8088,-579,0,0,0,0,0
1200,1765218820741,-566,8108,-582,0,0,0,0,0
1201,1765218821175,-541,8095,-582,0,0,0,0,0
1202,1765218821392,-557,8112,-579,0,0,0,0,0
1203,1765218821458,-567,8100,-585,0,0,0,0,0
1204,1765218821574,-559,8083,-593,0,0,0,0,0
1205,1765218821674,-548,8100,-630,0,0,0,0,0
1206,1765218821858,-572,8096,-572,0,0,0,0,0
1207,1765218822007,-534,8161,-524,0,0,0,0,0
1208,1765218822207,-588,8243,-604,0,0,0,0,0
1209,1765218822358,-484,7997,-589,0,0,0,0,0
1210,1765218822508,-566,8126,-640,0,0,0,0,0
1211,1765218822641,-603,8103,-610,0,0,0,0,0
1212,1765218822807,-581,8148,-522,0,0,0,0,0
1213,1765218823108,-532,8108,-519,0,0,0,0,0
1214,1765218823174,-559,8058,-615,0,0,0,0,0
1215,1765218823425,-616,8194,-718,0,0,0,0,0
1216,1765218823574,-561,8053,-589,0,0,0,0,0
1217,1765218823758,-502,8166,-553,0,0,0,0,0
1218,1765218823908,-554,8108,-496,0,0,0,0,0
1219,1765218824025,-486,8154,-517,0,0,0,0,0
1220,1765218824257,-495,8060,-572,0,0,0,0,0
1221,1765218824324,-657,8111,-615,0,0,0,0,0
1222,1765218825007,-504,7952,-544,0,0,0,0,0
1223,1765218825091,-596,8154,-580,0,0,0,0,0
1224,1765218825257,-578,8104,-602,0,0,0,0,0
1225,1765218825441,-569,8046,-646,0,0,0,0,0
1226,1765218825675,-554,8187,-567,0,0,0,0,0
1227,1765218825791,-584,8299,-626,0,0,0,0,0
1228,1765218825824,-553,8031,-560,0,0,0,0,0
1229,1765218825908,-640,8131,-622,0,0,0,0,0
1230,1765218826141,-524,8143,-632,0,0,0,0,0
1231,1765218826641,-556,8122,-565,0,0,0,0,0
1232,1765218826891,-566,8109,-636,0,0,0,0,0
1233,1765218826941,-543,8095,-597,0,0,0,0,0
1234,1765218827091,32226,5551,24009,0,0,0,0,0
1235,1765218827341,-583,8093,-587,0,0,0,0,0
1236,1765218827491,-545,8115,-594,0,0,0,0,0
1237,1765218827641,-546,8086,-594,0,0,0,0,0
1238,1765218827775,-554,8102,-571,0,0,0,0,0
1239,1765218828191,-565,8080,-589,0,0,0,0,0
1240,1765218828391,-541,8100,-575,0,0,0,0,0
1241,1765218828508,-558,8093,-567,0,0,0,0,0
1242,1765218828708,-562,8103,-571,0,0,0,0,0
1243,1765218829191,-570,8074,-559,0,0,0,0,0
1244,1765218829307,-570,8146,-637,0,0,0,0,0
1245,1765218829625,-547,8108,-576,0,0,0,0,0
1246,1765218829875,-568,8110,-596,0,0,0,0,0
1247,1765218830088,-550,8121,-593,0,0,0,0,0
1248,1765218830357,-569,8146,-621,0,0,0,0,0
1249,1765218830458,-568,8066,-630,0,0,0,0,0
1250,1765218830674,-539,8110,-590,0,0,0,0,0
1251,1765218831023,-556,8092,-568,0,0,0,0,0
1252,1765218831108,-554,8143,-628,0,0,0,0,0
1253,1765218831341,-550,8060,-599,0,0,0,0,0
1254,1765218831474,-560,8087,-579,0,0,0,0,0
1255,1765218831791,-544,8108,-571,0,0,0,0,0
1256,1765218831857,-576,8117,-585,0,0,0,0,0
1257,1765218832207,-557,8117,-581,0,0,0,0,0
1258,1765218832541,-555,8050,-586,0,0,0,0,0
1259,1765218832675,-556,8103,-528,0,0,0,0,0
1260,1765218832857,-563,8060,-580,0,0,0,0,0
1261,1765218832958,-554,8127,-669,0,0,0,0,0
1262,1765218833408,-550,8072,-570,0,0,0,0,0
1263,1765218833591,-557,8116,-590,0,0,0,0,0
1264,1765218833707,-556,8106,-594,0,0,0,0,0
1265,1765218834074,-548,8108,-606,0,0,0,0,0
1266,1765218834240,-560,8086,-574,0,0,0,0,0
1267,1765218834407,-556,8104,-578,0,0,0,0,0
1268,1765218834541,-520,8074,-565,0,0,0,0,0
1269,1765218835542,-582,8148,-563,0,0,0,0,0
1270,1765218836757,-573,8102,-598,0,0,0,0,0
1271,1765218836974,-556,8104,-580,0,0,0,0,0
1272,1765218837124,-563,8096,-593,0,0,0,0,0
1273,1765218837808,-558,8093,-581,0,0,0,0,0
1274,1765218837940,-569,8106,-589,0,0,0,0,0
1275,1765218838107,-549,8100,-594,0,0,0,0,0
1276,1765218838558,-550,8112,-594,0,0,0,0,0
1277,1765218838658,-559,8091,-565,0,0,0,0,0
1278,1765218838857,-551,29356,21973,0,0,0,0,0
1279,1765218838974,-561,8092,-589,0,0,0,0,0
1280,1765218839174,-546,8098,-572,0,0,0,0,0
1281,1765218839508,-572,8096,-574,0,0,0,0,0
1282,1765218839657,-569,8101,-584,0,0,0,0,0
1283,1765218839741,-543,8115,-581,0,0,0,0,0
1284,1765218840023,-575,8102,-587,0,0,0,0,0
1285,1765218840174,-551,8090,-590,0,0,0,0,0
1286,1765218840409,-564,8089,-583,0,0,0,0,0
1287,1765218840507,-568,8119,-597,0,0,0,0,0
1288,1765218840708,-550,8087,-574,0,0,0,0,0
1289,1765218840841,-566,8104,-598,0,0,0,0,0
1290,1765218841091,-543,8096,-560,0,0,0,0,0
1291,1765218841174,-578,8089,-585,0,0,0,0,0
1292,1765218841557,-543,8084,-581,0,0,0,0,0
1293,1765218841791,-566,8108,-588,0,0,0,0,0
1294,1765218841924,-576,8118,-590,0,0,0,0,0
1295,1765218842058,-536,8135,-577,0,0,0,0,0
1296,1765218842275,-623,8053,-612,0,0,0,0,0
1297,1765218842758,-572,8118,-616,0,0,0,0,0
1298,1765218842874,-578,8112,-575,0,0,0,0,0
1299,1765218843057,-549,8082,-597,0,0,0,0,0
1300,1765218843207,-534,8094,-569,0,0,0,0,0
1301,1765218843390,-572,8098,-588,0,0,0,0,0
1302,1765218843624,-552,8094,-568,0,0,0,0,0
1303,1765218843807,-554,8099,-566,0,0,0,0,0
1304,1765218843941,-570,8112,-578,0,0,0,0,0
1305,1765218844124,-564,8090,-592,0,0,0,0,0
1306,1765218844241,-550,8094,-600,0,0,0,0,0
1307,1765218844641,-561,8086,-606,0,0,0,0,0
1308,1765218844724,-531,8119,-604,0,0,0,0,0
1309,1765218844941,-560,8087,-553,0,0,0,0,0
1310,1765218845357,-564,8062,-560,0,0,0,0,0
1311,1765218845674,-541,8057,-582,0,0,0,0,0
1312,1765218845790,-571,8108,-586,0,0,0,0,0
1313,1765218845858,-572,8100,-596,0,0,0,0,0
1314,1765218846108,-545,8112,-602,0,0,0,0,0
1315,1765218846241,-556,8120,-611,0,0,0,0,0
1316,1765218846341,-575,8113,-598,0,0,0,0,0
1317,1765218846525,-559,8050,-574,0,0,0,0,0
1318,1765218846657,-569,8148,-608,0,0,0,0,0
1319,1765218846908,-538,8082,-562,0,0,0,0,0
1320,1765218846957,-544,8106,-584,0,0,0,0,0
1321,1765218847257,-582,8091,-582,0,0,0,0,0
1322,1765218847340,-540,8115,-579,0,0,0,0,0
1323,1765218847690,-573,-26710,-729,0,0,0,0,0
1324,1765218848041,-553,8076,-592,0,0,0,0,0
1325,1765218848124,-557,8087,-578,0,0,0,0,0
1326,1765218848158,-566,8122,-593,0,0,0,0,0
1327,1765218848241,-576,8126,-583,0,0,0,0,0
1328,1765218848441,-538,8076,-592,0,0,0,0,0
1329,1765218849241,-532,8138,-605,0,0,0,0,0
1330,1765218849474,-554,8394,6047,0,0,0,0,0
1331,1765218849690,-560,8110,-616,0,0,0,0,0
1332,1765218849974,-564,8124,-571,0,0,0,0,0
1333,1765218850091,-555,8052,-2061,0,0,0,0,0
1334,1765218850157,-557,8066,-595,0,0,0,0,0
1335,1765218850390,-530,8178,-644,0,0,0,0,0
1336,1765218850825,-530,8172,-634,0,0,0,0,0
1337,1765218850924,-613,8025,-588,0,0,0,0,0
1338,1765218851307,-548,8094,-608,0,0,0,0,0
1339,1765218851374,-566,8096,-590,0,0,0,0,0
1340,1765218851624,-578,8113,-606,0,0,0,0,0
1341,1765218851724,-546,8086,-599,0,0,0,0,0
1342,1765218851807,-536,8088,-595,0,0,0,0,0
1343,1765218851957,-546,8077,-575,0,0,0,0,0
1344,1765218852108,-580,8107,-586,0,0,0,0,0
1345,1765218852457,-584,8108,-613,0,0,0,0,0
1346,1765218852641,-540,8102,-573,0,0,0,0,0
1347,1765218852874,-556,8130,-572,0,0,0,0,0
1348,1765218853341,-570,8139,-601,0,0,0,0,0
1349,1765218853707,-596,8082,-579,0,0,0,0,0
1350,1765218853841,-526,8135,-560,0,0,0,0,0
1351,1765218854008,-557,8107,-617,0,0,0,0,0
1352,1765218854124,-613,8057,-630,0,0,0,0,0
1353,1765218854190,-580,8082,-622,0,0,0,0,0
1354,1765218854291,-578,8112,-602,0,0,0,0,0
1355,1765218854590,-546,8148,-588,0,0,0,0,0
1356,1765218854657,-617,8088,-586,0,0,0,0,0
1357,1765218854774,-634,8141,-578,0,0,0,0,0
1358,1765218854925,-548,8078,-495,0,0,0,0,0
1359,1765218855057,-542,8085,-632,0,0,0,0,0
1360,1765218855191,-555,8151,-598,0,0,0,0,0
1361,1765218855407,-643,8110,-602,0,0,0,0,0
1362,1765218855574,-547,8120,-568,0,0,0,0,0
1363,1765218855741,-486,8129,-590,0,0,0,0,0
1364,1765218855990,-563,8094,-566,0,0,0,0,0
1365,1765218856057,-568,8065,-574,0,0,0,0,0
1366,1765218856274,-554,8145,-583,0,0,0,0,0
1367,1765218856474,-559,8083,-578,0,0,0,0,0
1368,1765218856707,-548,8114,-538,0,0,0,0,0
1369,1765218856974,-549,8047,-558,0,0,0,0,0
1370,1765218857190,-552,8106,-591,0,0,0,0,0
1371,1765218857274,-567,8159,-563,0,0,0,0,0
1372,1765218857491,-554,8072,-554,0,0,0,0,0
1373,1765218857607,-535,8114,-562,0,0,0,0,0
1374,1765218857758,-598,8126,-587,0,0,0,0,0
1375,1765218857774,-601,8107,-606,0,0,0,0,0
1376,1765218857989,-567,8084,-578,0,0,0,0,0
1377,1765218858074,-550,8110,-588,0,0,0,0,0
1378,1765218858358,-556,8110,-566,0,0,0,0,0
1379,1765218858491,-566,8121,-583,0,0,0,0,0
1380,1765218858674,-556,8096,-582,0,0,0,0,0
1381,1765218858774,-557,8095,-580,0,0,0,0,0
1382,1765218859141,-556,8108,-580,0,0,0,0,0
1383,1765218859290,-550,8095,-587,0,0,0,0,0
1384,1765218859490,-558,8094,-582,0,0,0,0,0
1385,1765218859624,-564,8115,-583,0,0,0,0,0
1386,1765218859839,-550,8099,-586,0,0,0,0,0
1387,1765218860057,-548,8106,-587,0,0,0,0,0
1388,1765218860374,-559,8105,-596,0,0,0,0,0
1389,1765218860524,-564,8098,-591,0,0,0,0,0
1390,1765218860658,-564,8096,-580,0,0,0,0,0
1391,1765218861057,-553,8080,-562,0,0,0,0,0
1392,1765218861157,-572,8095,-581,0,0,0,0,0
1393,1765218861357,-546,8104,-610,0,0,0,0,0
1394,1765218861474,-553,8082,-612,0,0,0,0,0
1395,1765218861607,-551,8125,-578,0,0,0,0,0
1396,1765218861840,-563,8068,-570,0,0,0,0,0
1397,1765218862074,-560,8097,-604,0,0,0,0,0
1398,1765218862208,-548,8104,-593,0,0,0,0,0
1399,1765218862308,-556,8106,-596,0,0,0,0,0
1400,1765218862507,-563,8081,-577,0,0,0,0,0
1401,1765218862891,-560,8101,-572,0,0,0,0,0
1402,1765218862989,-558,8108,-583,0,0,0,0,0
1403,1765218863224,-565,8110,-586,0,0,0,0,0
1404,1765218863358,-555,8096,-574,0,0,0,0,0
1405,1765218863573,-564,8093,-586,0,0,0,0,0
1406,1765218863724,-558,8108,-587,0,0,0,0,0
1407,1765218863890,-541,8085,-585,0,0,0,0,0
1408,1765218864024,-553,8103,-572,0,0,0,0,0
1409,1765218864140,-553,8083,-575,0,0,0,0,0
1410,1765218864391,-562,8102,-592,0,0,0,0,0
1411,1765218864474,-558,8089,-596,0,0,0,0,0
1412,1765218864623,-565,8104,-571,0,0,0,0,0
1413,1765218864824,-550,8095,-618,0,0,0,0,0
1414,1765218864957,-555,8097,-609,0,0,0,0,0
1415,1765218865375,-559,8131,-549,0,0,0,0,0
1416,1765218865573,-538,8090,-587,0,0,0,0,0
1417,1765218865707,-578,8095,-636,0,0,0,0,0
1418,1765218865857,-563,8113,-568,0,0,0,0,0
1419,1765218865990,-560,8082,-577,0,0,0,0,0
1420,1765218866257,-560,8130,-594,0,0,0,0,0
1421,1765218866324,-561,8090,-601,0,0,0,0,0
1422,1765218866540,-554,8085,-582,0,0,0,0,0
1423,1765218866691,-557,8111,-630,0,0,0,0,0
1424,1765218866990,-554,8106,-557,0,0,0,0,0
1425,1765218867141,-558,8107,-579,0,0,0,0,0
1426,1765218867207,-545,8091,-606,0,0,0,0,0
1427,1765218867441,-568,8094,-584,0,0,0,0,0
1428,1765218867557,-568,8123,-564,0,0,0,0,0
1429,1765218867707,-556,8110,-606,0,0,0,0,0
1430,1765218867891,-559,8095,-581,0,0,0,0,0
1431,1765218868090,-558,8082,-592,0,0,0,0,0
1432,1765218868190,-553,8121,-556,0,0,0,0,0
1433,1765218868374,-538,8097,-574,0,0,0,0,0
1434,1765218868640,-573,8084,-600,0,0,0,0,0
1435,1765218868891,-556,8068,-594,0,0,0,0,0
1436,1765218869007,-566,8062,-597,0,0,0,0,0
1437,1765218869140,-543,8134,-582,0,0,0,0,0
1438,1765218869307,-566,8083,-601,0,0,0,0,0
1439,1765218869507,-566,8100,-565,0,0,0,0,0
1440,1765218869655,-562,8095,-561,0,0,0,0,0
1441,1765218869773,-520,8092,-594,0,0,0,0,0
1442,1765218869991,-584,8116,-619,0,0,0,0,0
1443,1765218870056,-580,8108,-578,0,0,0,0,0
1444,1765218870224,-530,8097,-620,0,0,0,0,0
1445,1765218870507,-581,8106,-588,0,0,0,0,0
1446,1765218870705,-558,8097,-573,0,0,0,0,0
1447,1765218870874,-570,8098,-592,0,0,0,0,0
1448,1765218870940,-535,8153,-563,0,0,0,0,0
1449,1765218871207,-540,8062,-580,0,0,0,0,0
1450,1765218871306,-595,8084,-646,0,0,0,0,0
1451,1765218871523,-566,8108,-589,0,0,0,0,0
1452,1765218871657,-544,8104,-622,0,0,0,0,0
1453,1765218871857,-562,8088,-581,0,0,0,0,0
1454,1765218872257,-553,8114,-597,0,0,0,0,0
1455,1765218872374,-566,8104,-597,0,0,0,0,0
1456,1765218872607,-552,8094,-580,0,0,0,0,0
1457,1765218872739,-560,8092,-590,0,0,0,0,0
1458,1765218872823,-566,8118,-592,0,0,0,0,0
1459,1765218873057,-562,8086,-579,0,0,0,0,0
1460,1765218873206,-560,8106,-584,0,0,0,0,0
1461,1765218873341,-545,8109,-576,0,0,0,0,0
1462,1765218873474,-566,8097,-580,0,0,0,0,0
1463,1765218873790,-557,8104,-601,0,0,0,0,0
1464,1765218873907,-546,8084,-583,0,0,0,0,0
1465,1765218874074,-577,8108,-584,0,0,0,0,0
1466,1765218874208,-565,8080,-588,0,0,0,0,0
1467,1765218874391,-544,8110,-583,0,0,0,0,0
1468,1765218874590,-561,8107,-581,0,0,0,0,0
1469,1765218874707,-565,8091,-590,0,0,0,0,0
1470,1765218874907,-551,8101,-584,0,0,0,0,0
1471,1765218875056,-551,8118,-583,0,0,0,0,0
1472,1765218875257,-556,8102,-593,0,0,0,0,0
1473,1765218875506,-554,8097,-579,0,0,0,0,0
1474,1765218875657,-551,8116,-605,0,0,0,0,0
1475,1765218875789,-552,8055,-593,0,0,0,0,0
1476,1765218876006,-574,8138,-581,0,0,0,0,0
1477,1765218876089,-546,8099,-582,0,0,0,0,0
1478,1765218876341,-553,8070,-594,0,0,0,0,0
1479,1765218876474,-570,8103,-589,0,0,0,0,0
1480,1765218876557,-563,8086,-590,0,0,0,0,0
1481,1765218876773,-564,8100,-588,0,0,0,0,0
1482,1765218876874,-564,8108,-576,0,0,0,0,0
1483,1765218877257,-545,8109,-589,0,0,0,0,0
1484,1765218877488,-568,8102,-572,0,0,0,0,0
1485,1765218877557,-557,8110,-590,0,0,0,0,0
1486,1765218877740,-543,8075,-588,0,0,0,0,0
1487,1765218877957,-576,8110,-598,0,0,0,0,0
1488,1765218878122,-573,8105,-576,0,0,0,0,0
1489,1765218878257,-546,8102,-566,0,0,0,0,0
1490,1765218878307,-561,8114,-625,0,0,0,0,0
1491,1765218878388,-570,8080,-624,0,0,0,0,0
1492,1765218878624,-556,8098,-557,0,0,0,0,0
1493,1765218878874,-544,8100,-586,0,0,0,0,0
1494,1765218879023,-582,8072,-620,0,0,0,0,0
1495,1765218879124,-558,8117,-575,0,0,0,0,0
1496,1765218879357,-549,8105,-570,0,0,0,0,0
1497,1765218879423,-577,8082,-586,0,0,0,0,0
1498,1765218879574,-562,8095,-588,0,0,0,0,0
1499,1765218879807,-546,8086,-582,0,0,0,0,0
1500,1765218879956,-556,8121,-578,0,0,0,0,0
1501,1765218880106,-584,8094,-601,0,0,0,0,0
1502,1765218880241,-562,8092,-588,0,0,0,0,0
1503,1765218880424,-551,8108,-582,0,0,0,0,0
1504,1765218880659,-563,8117,-606,0,0,0,0,0
1505,1765218880823,-547,8100,-578,0,0,0,0,0
1506,1765218880973,-556,8108,-613,0,0,0,0,0
1507,1765218881157,-576,8098,-588,0,0,0,0,0
1508,1765218881323,-549,8095,-567,0,0,0,0,0
1509,1765218881457,-529,8073,-568,0,0,0,0,0
1510,1765218881691,-582,8130,-638,0,0,0,0,0
1511,1765218881758,-583,8099,-627,0,0,0,0,0
1512,1765218881989,-522,8094,-569,0,0,0,0,0
1513,1765218882123,-573,8113,-574,0,0,0,0,0
1514,1765218882306,-556,8062,-573,0,0,0,0,0
1515,1765218882473,-569,8117,-608,0,0,0,0,0
1516,1765218882623,-537,8113,-627,0,0,0,0,0
1517,1765218882740,-572,8065,-599,0,0,0,0,0
1518,1765218882907,-568,8104,-543,0,0,0,0,0
1519,1765218883040,-536,8129,-582,0,0,0,0,0
1520,1765218883357,-570,8115,-583,0,0,0,0,0
1521,1765218883540,-553,8127,-546,0,0,0,0,0
1522,1765218883656,-550,8101,-622,0,0,0,0,0
1523,1765218883940,-565,8103,-574,0,0,0,0,0
1524,1765218884156,-556,8104,-521,0,0,0,0,0
1525,1765218884372,-546,8105,-524,0,0,0,0,0
1526,1765218884556,-567,8091,-646,0,0,0,0,0
1527,1765218884707,-540,8102,-582,0,0,0,0,0
1528,1765218884841,-544,8120,-551,0,0,0,0,0
1529,1765218885257,-552,8054,-610,0,0,0,0,0
1530,1765218885340,-548,8112,-595,0,0,0,0,0
1531,1765218885539,-548,8156,-555,0,0,0,0,0
1532,1765218885623,-539,8098,-570,0,0,0,0,0
1533,1765218885724,-452,8108,-487,0,0,0,0,0
1534,1765218885806,-470,7978,-525,0,0,0,0,0
1535,1765218886089,-672,8263,-654,0,0,0,0,0
1536,1765218886290,-554,8053,-586,0,0,0,0,0
1537,1765218886506,-555,8128,-598,0,0,0,0,0
1538,1765218886571,-548,8118,-572,0,0,0,0,0
1539,1765218886807,-557,8077,-563,0,0,0,0,0
1540,1765218886857,-550,8085,-523,0,0,0,0,0
1541,1765218886989,-532,8041,-504,0,0,0,0,0
1542,1765218887172,-582,8132,-570,0,0,0,0,0
1543,1765218887273,-581,8099,-715,0,0,0,0,0
1544,1765218887474,-574,8087,-690,0,0,0,0,0
1545,1765218887507,-546,8078,-536,0,0,0,0,0
1546,1765218887674,-549,8119,-550,0,0,0,0,0
1547,1765218887939,-554,8111,-563,0,0,0,0,0
1548,1765218888157,-560,8119,-580,0,0,0,0,0
1549,1765218888273,-549,8100,-574,0,0,0,0,0
1550,1765218888439,-555,8096,-571,0,0,0,0,0
1551,1765218888590,-563,8115,-582,0,0,0,0,0
1552,1765218888857,-560,8110,-569,0,0,0,0,0
1553,1765218888940,-566,8116,-557,0,0,0,0,0
1554,1765218889157,-562,8096,-581,0,0,0,0,0
1555,1765218889241,-548,8102,-636,0,0,0,0,0
1556,1765218889357,-557,8165,-562,0,0,0,0,0
1557,1765218889473,-556,8116,-559,0,0,0,0,0
1558,1765218889706,-566,8090,-644,0,0,0,0,0
1559,1765218889957,-564,8140,-541,0,0,0,0,0
1560,1765218890123,-553,8112,-617,0,0,0,0,0
1561,1765218890241,-573,8060,-681,0,0,0,0,0
1562,1765218890424,-558,8089,-572,0,0,0,0,0
1563,1765218890607,-557,8177,-561,0,0,0,0,0
1564,1765218890824,-561,8059,-562,0,0,0,0,0
1565,1765218890891,-572,8090,-580,0,0,0,0,0
1566,1765218891174,-546,8153,-540,0,0,0,0,0
1567,1765218891322,-560,7985,-650,0,0,0,0,0
1568,1765218891572,-558,8178,-537,0,0,0,0,0
1569,1765218891806,-563,8094,-483,0,0,0,0,0
1570,1765218891907,-520,8012,-516,0,0,0,0,0
1571,1765218892090,-544,8168,-581,0,0,0,0,0
1572,1765218892190,-618,8121,-699,0,0,0,0,0
1573,1765218892541,-551,8126,-514,0,0,0,0,0
1574,1765218892606,-554,8085,-767,0,0,0,0,0
1575,1765218892839,-549,8090,-560,0,0,0,0,0
1576,1765218892955,-556,8150,-713,0,0,0,0,0
1577,1765218893074,-579,8096,-602,0,0,0,0,0
1578,1765218893340,-552,8138,-514,0,0,0,0,0
1579,1765218893557,-565,8109,-717,0,0,0,0,0
1580,1765218893723,-552,8234,-566,0,0,0,0,0
1581,1765218893906,-556,8157,-564,0,0,0,0,0
1582,1765218894057,-581,7920,-552,0,0,0,0,0
1583,1765218894290,-601,8046,-466,0,0,0,0,0
1584,1765218894440,-590,8152,-626,0,0,0,0,0
1585,1765218894608,-513,8216,-693,0,0,0,0,0
1586,1765218894739,-618,8090,-617,0,0,0,0,0
1587,1765218894805,-627,8006,-840,0,0,0,0,0
1588,1765218894873,-545,8199,-536,0,0,0,0,0
1589,1765218895174,-571,8196,-484,0,0,0,0,0
1590,1765218895389,-621,8052,-716,0,0,0,0,0
1591,1765218895556,-564,8008,-259,0,0,0,0,0
1592,1765218895674,-560,8124,-265,0,0,0,0,0
1593,1765218895873,-424,8068,-299,0,0,0,0,0
1594,1765218896257,-550,8056,-1005,0,0,0,0,0
1595,1765218896356,-618,8281,-925,0,0,0,0,0
1596,1765218896626,-608,7969,-1018,0,0,0,0,0
1597,1765218896855,-457,8180,-508,0,0,0,0,0
1598,1765218897006,-541,8033,-484,0,0,0,0,0
1599,1765218897173,-602,8140,-416,0,0,0,0,0
1600,1765218897374,-586,8120,-414,0,0,0,0,0
1601,1765218897507,-544,8118,-472,0,0,0,0,0
1602,1765218897706,-563,8115,-436,0,0,0,0,0
1603,1765218897856,-564,8093,-420,0,0,0,0,0
1604,1765218898039,-554,8043,-718,0,0,0,0,0
1605,1765218898140,-599,8130,-751,0,0,0,0,0
1606,1765218898458,-625,7972,-967,0,0,0,0,0
1607,1765218898572,-572,8040,-546,0,0,0,0,0
1608,1765218898757,-559,8040,-583,0,0,0,0,0
1609,1765218898872,-621,8189,-766,0,0,0,0,0
1610,1765218899139,-526,8025,-631,0,0,0,0,0
1611,1765218899350,-548,8077,-634,0,0,0,0,0
1612,1765218899407,-562,8112,-555,0,0,0,0,0
1613,1765218899589,-625,8104,-557,0,0,0,0,0
1614,1765218899741,-532,8096,-538,0,0,0,0,0
1615,1765218899958,-586,8122,-543,0,0,0,0,0
1616,1765218900191,-624,8089,-574,0,0,0,0,0
1617,1765218900323,-518,8094,-632,0,0,0,0,0
1618,1765218900423,-539,8120,-558,0,0,0,0,0
1619,1765218900506,-551,8092,-588,0,0,0,0,0
1620,1765218900706,-633,8096,-675,0,0,0,0,0
1621,1765218900857,-554,8092,-589,0,0,0,0,0
1622,1765218901057,-554,8092,-590,0,0,0,0,0
1623,1765218901157,-596,8112,-546,0,0,0,0,0
1624,1765218901391,-568,8098,-555,0,0,0,0,0
1625,1765218901458,-558,8108,-556,0,0,0,0,0
1626,1765218901890,-571,8103,-605,0,0,0,0,0
1627,1765218902139,-585,8108,-563,0,0,0,0,0
1628,1765218902224,-581,8082,-552,0,0,0,0,0
1629,1765218902424,-570,8113,-553,0,0,0,0,0
1630,1765218902589,-586,8095,-595,0,0,0,0,0
1631,1765218902839,-573,8090,-610,0,0,0,0,0
1632,1765218902990,-601,8085,-573,0,0,0,0,0
1633,1765218903139,-590,8141,-553,0,0,0,0,0
1634,1765218903372,-571,8079,-576,0,0,0,0,0
1635,1765218903590,-581,8112,-572,0,0,0,0,0
1636,1765218903724,-572,8094,-610,0,0,0,0,0
1637,1765218903941,-573,8121,-592,0,0,0,0,0
1638,1765218904021,-558,8101,-554,0,0,0,0,0
1639,1765218904223,-588,8101,-545,0,0,0,0,0
1640,1765218904424,-569,8104,-566,0,0,0,0,0
1641,1765218904607,-578,8102,-626,0,0,0,0,0
1642,1765218904724,-580,8093,-601,0,0,0,0,0
1643,1765218904805,-566,8090,-556,0,0,0,0,0
1644,1765218904873,-596,8104,-565,0,0,0,0,0
1645,1765218905156,-586,8126,-625,0,0,0,0,0
1646,1765218905889,-560,8096,-566,0,0,0,0,0
1647,1765218906290,-568,8085,-619,0,0,0,0,0
1648,1765218906891,-573,8108,-554,0,0,0,0,0
1649,1765218907024,-571,8087,-591,0,0,0,0,0
1650,1765218907241,-547,8096,-590,0,0,0,0,0
1651,1765218907390,-563,8108,-571,0,0,0,0,0
1652,1765218907523,-576,8121,-562,0,0,0,0,0
1653,1765218907723,-584,8070,-594,0,0,0,0,0
1654,1765218907905,-562,8140,-596,0,0,0,0,0
1655,1765218908071,-590,8072,-592,0,0,0,0,0
1656,1765218908189,-567,8159,-595,0,0,0,0,0
1657,1765218908456,-579,8117,-586,0,0,0,0,0
1658,1765218908674,-584,8124,-573,0,0,0,0,0
1659,1765218908842,-587,8090,-631,0,0,0,0,0
1660,1765218909023,-570,8092,-582,0,0,0,0,0
1661,1765218909156,-551,8118,-623,0,0,0,0,0
1662,1765218909222,-572,8107,-611,0,0,0,0,0
1663,1765218909740,-573,8071,-583,0,0,0,0,0
1664,1765218909922,-606,8089,-656,0,0,0,0,0
1665,1765218910172,-557,8091,-558,0,0,0,0,0
1666,1765218910290,-578,8134,-542,0,0,0,0,0
1667,1765218910673,-600,8115,-588,0,0,0,0,0
1668,1765218910978,-602,8138,-572,0,0,0,0,0
1669,1765218911005,-530,8072,-544,0,0,0,0,0
1670,1765218911090,-575,8051,-627,0,0,0,0,0
1671,1765218911174,-535,8107,-570,0,0,0,0,0
1672,1765218911388,-591,8120,-577,0,0,0,0,0
1673,1765218911523,-599,8058,-551,0,0,0,0,0
1674,1765218911724,-576,8123,-568,0,0,0,0,0
1675,1765218911940,-573,8104,-559,0,0,0,0,0
1676,1765218912140,-575,8096,-582,0,0,0,0,0
1677,1765218912290,-575,8103,-590,0,0,0,0,0
1678,1765218912508,-586,8106,-564,0,0,0,0,0
1679,1765218912639,-569,8108,-587,0,0,0,0,0
1680,1765218912856,-584,8098,-577,0,0,0,0,0
1681,1765218912989,-580,8108,-570,0,0,0,0,0
1682,1765218913207,-580,8091,-574,0,0,0,0,0
1683,1765218913407,-580,8109,-579,0,0,0,0,0
1684,1765218913591,-576,8100,-572,0,0,0,0,0
1685,1765218913722,-569,8100,-578,0,0,0,0,0
1686,1765218913941,-571,8095,-577,0,0,0,0,0
1687,1765218914024,-570,8102,-572,0,0,0,0,0
1688,1765218914223,-580,8095,-561,0,0,0,0,0
1689,1765218914457,-575,8103,-589,0,0,0,0,0
1690,1765218914622,-570,8098,-571,0,0,0,0,0
1691,1765218914739,-580,8112,-573,0,0,0,0,0
1692,1765218914840,-585,8108,-570,0,0,0,0,0
1693,1765218914924,-578,8110,-574,0,0,0,0,0
1694,1765218915206,-571,8102,-570,0,0,0,0,0
1695,1765218915590,-564,8097,-584,0,0,0,0,0
1696,1765218915706,-568,8102,-575,0,0,0,0,0
1697,1765218915889,-580,8106,-583,0,0,0,0,0
1698,1765218916241,-570,8102,-579,0,0,0,0,0
1699,1765218916324,-580,8098,-579,0,0,0,0,0
1700,1765218916557,-581,8099,-576,0,0,0,0,0
1701,1765218916705,-581,8114,-546,0,0,0,0,0
1702,1765218916773,-551,8112,-576,0,0,0,0,0
1703,1765218917056,-598,8106,-602,0,0,0,0,0
1704,1765218917240,-600,8114,-558,0,0,0,0,0
1705,1765218917373,-578,8104,-554,0,0,0,0,0
1706,1765218917474,-579,8108,-551,0,0,0,0,0
1707,1765218917757,-578,8100,-584,0,0,0,0,0
1708,1765218917807,-572,8092,-609,0,0,0,0,0
1709,1765218917957,-606,8119,-580,0,0,0,0,0
1710,1765218918174,-540,8094,-580,0,0,0,0,0
1711,1765218918273,-476,8097,-533,0,0,0,0,0
1712,1765218918624,-595,8105,-568,0,0,0,0,0
1713,1765218918874,-542,8116,-569,0,0,0,0,0
1714,1765218918958,-586,8118,-565,0,0,0,0,0
1715,1765218919273,-556,8051,-536,0,0,0,0,0
1716,1765218919390,-545,8103,-558,0,0,0,0,0
1717,1765218919624,-592,8192,-600,0,0,0,0,0
1718,1765218919723,-604,8067,-607,0,0,0,0,0
1719,1765218919855,-569,8095,-564,0,0,0,0,0
1720,1765218920005,-578,8101,-590,0,0,0,0,0
1721,1765218920139,-582,8096,-606,0,0,0,0,0
1722,1765218920623,-558,8078,-572,0,0,0,0,0
1723,1765218920790,-572,8098,-550,0,0,0,0,0
1724,1765218920907,-609,8126,-544,0,0,0,0,0
1725,1765218921024,-570,8073,-565,0,0,0,0,0
1726,1765218921158,-557,8104,-574,0,0,0,0,0
1727,1765218921340,-586,8105,-581,0,0,0,0,0
1728,1765218921506,-583,8105,-595,0,0,0,0,0
1729,1765218921756,-562,8132,-601,0,0,0,0,0
1730,1765218921838,-594,8134,-598,0,0,0,0,0
1731,1765218922136,-586,8072,-561,0,0,0,0,0
1732,1765218922240,-560,8081,-540,0,0,0,0,0
1733,1765218922874,-574,8105,-526,0,0,0,0,0
1734,1765218922990,-571,8082,-665,0,0,0,0,0
1735,1765218923191,-580,8102,-689,0,0,0,0,0
1736,1765218923323,-583,8111,-644,0,0,0,0,0
1737,1765218923457,-586,6065,30160,0,0,0,0,0
1738,1765218923741,-564,8091,-668,0,0,0,0,0
1739,1765218923856,-582,8115,-678,0,0,0,0,0
1740,1765218924191,-599,8102,-624,0,0,0,0,0
1741,1765218924325,-572,8107,-629,0,0,0,0,0
1742,1765218924523,-570,8102,-612,0,0,0,0,0
1743,1765218924590,-573,8099,-596,0,0,0,0,0
1744,1765218924690,-583,8109,-606,0,0,0,0,0
1745,1765218924889,-578,8106,-599,0,0,0,0,0
1746,1765218925024,-570,8096,-592,0,0,0,0,0
1747,1765218925274,-581,8100,-568,0,0,0,0,0
1748,1765218925438,-569,8094,-572,0,0,0,0,0
1749,1765218925540,-582,8111,-575,0,0,0,0,0
1750,1765218925724,-571,8098,-574,0,0,0,0,0
1751,1765218925824,-576,8083,-576,0,0,0,0,0
1752,1765218926041,-588,8110,-608,0,0,0,0,0
1753,1765218926190,-600,8090,-590,0,0,0,0,0
1754,1765218926324,-574,8106,-588,0,0,0,0,0
1755,1765218926589,-570,8108,-599,0,0,0,0,0
1756,1765218926640,-574,8103,-603,0,0,0,0,0
1757,1765218926922,-575,8098,-574,0,0,0,0,0
1758,1765218927090,-578,8107,-572,0,0,0,0,0
1759,1765218927274,-580,8095,-570,0,0,0,0,0
1760,1765218927374,-574,8101,-560,0,0,0,0,0
1761,1765218927540,-574,8108,-559,0,0,0,0,0
1762,1765218927691,-572,8098,-573,0,0,0,0,0
1763,1765218927907,-578,8100,-566,0,0,0,0,0
1764,1765218928106,-573,8104,-545,0,0,0,0,0
1765,1765218928224,-579,8114,-563,0,0,0,0,0
1766,1765218928424,-597,8108,-595,0,0,0,0,0
1767,1765218928523,-568,8112,-586,0,0,0,0,0
1768,1765218928789,-565,8094,-579,0,0,0,0,0
1769,1765218928856,-585,8100,-577,0,0,0,0,0
1770,1765218928940,-576,8106,-564,0,0,0,0,0
1771,1765218929073,-572,8094,-569,0,0,0,0,0
1772,1765218929224,-567,8097,-581,0,0,0,0,0
1773,1765218929673,-573,8090,-574,0,0,0,0,0
1774,1765218929821,-582,8101,-563,0,0,0,0,0
1775,1765218929972,-580,8099,-584,0,0,0,0,0
1776,1765218930357,-576,8110,-572,0,0,0,0,0
1777,1765218930489,-554,8094,-554,0,0,0,0,0
1778,1765218930674,-581,8106,-576,0,0,0,0,0
1779,1765218930806,-588,8110,-546,0,0,0,0,0
1780,1765218931056,-566,8084,-552,0,0,0,0,0
1781,1765218931306,-565,8116,-601,0,0,0,0,0
1782,1765218931490,-630,8158,-642,0,0,0,0,0
1783,1765218931590,-554,8142,-576,0,0,0,0,0
1784,1765218931790,-564,8028,-579,0,0,0,0,0
1785,1765218932006,-600,8162,-550,0,0,0,0,0
1786,1765218932191,-559,8108,-558,0,0,0,0,0
1787,1765218932290,-578,8102,-558,0,0,0,0,0
1788,1765218932490,-588,8111,-572,0,0,0,0,0
1789,1765218932939,-574,8085,-579,0,0,0,0,0
1790,1765218933057,-587,8104,-586,0,0,0,0,0
1791,1765218933303,-574,8101,-592,0,0,0,0,0
1792,1765218933303,-586,8096,-592,0,0,0,0,0
1793,1765218933373,-576,8093,-607,0,0,0,0,0
1794,1765218933607,-569,8086,-584,0,0,0,0,0
1795,1765218933740,-590,8134,-560,0,0,0,0,0
1796,1765218933939,-576,8080,-603,0,0,0,0,0
1797,1765218934057,-588,8121,-597,0,0,0,0,0
1798,1765218934273,-586,8103,-566,0,0,0,0,0
1799,1765218934506,-579,8077,-522,0,0,0,0,0
1800,1765218934722,-579,8116,-536,0,0,0,0,0
1801,1765218934805,-551,8078,-550,0,0,0,0,0
1802,1765218935057,-582,8102,-560,0,0,0,0,0
1803,1765218935190,-584,8105,-526,0,0,0,0,0
1804,1765218935374,-569,8106,-576,0,0,0,0,0
1805,1765218936255,-583,8099,-568,0,0,0,0,0
1806,1765218936657,-577,8086,-588,0,0,0,0,0
1807,1765218936790,-590,8098,-586,0,0,0,0,0
1808,1765218936988,-575,8095,-576,0,0,0,0,0
1809,1765218937040,-591,8122,-575,0,0,0,0,0
1810,1765218937507,-575,8104,-583,0,0,0,0,0
1811,1765218937923,-584,8091,-575,0,0,0,0,0
1812,1765218938105,-583,8110,-580,0,0,0,0,0
1813,1765218938273,-573,8090,-564,0,0,0,0,0
1814,1765218938473,-563,8104,-582,0,0,0,0,0
1815,1765218938540,-575,8103,-575,0,0,0,0,0
1816,1765218938808,-588,8101,-572,0,0,0,0,0
1817,1765218939106,-580,8103,-574,0,0,0,0,0
1818,1765218939255,-589,8094,-574,0,0,0,0,0
1819,1765218939706,-584,8102,-591,0,0,0,0,0
1820,1765218939887,-571,8100,-574,0,0,0,0,0
1821,1765218940005,-567,8116,-560,0,0,0,0,0
1822,1765218940172,-566,8090,-578,0,0,0,0,0
1823,1765218940387,-574,8107,-548,0,0,0,0,0
1824,1765218941106,-575,8099,-530,0,0,0,0,0
1825,1765218941690,-571,8105,-598,0,0,0,0,0
1826,1765218941823,-578,8097,-602,0,0,0,0,0
1827,1765218942389,-580,8107,-592,0,0,0,0,0
1828,1765218942538,-568,8100,-571,0,0,0,0,0
1829,1765218942988,-574,8103,-556,0,0,0,0,0
1830,1765218943172,-574,8109,-571,0,0,0,0,0
1831,1765218943357,-576,8101,-580,0,0,0,0,0
1832,1765218943490,-561,8112,-589,0,0,0,0,0
1833,1765218943672,-572,8098,-573,0,0,0,0,0
1834,1765218943889,-583,8096,-578,0,0,0,0,0
1835,1765218944056,-570,8104,-591,0,0,0,0,0
1836,1765218944205,-580,8100,-579,0,0,0,0,0
1837,1765218944356,-580,8108,-580,0,0,0,0,0
1838,1765218944808,-585,8116,-564,0,0,0,0,0
1839,1765218944992,-566,8096,-547,0,0,0,0,0
1840,1765218945108,-558,8099,-558,0,0,0,0,0
1841,1765218945175,-564,8102,-563,0,0,0,0,0
1842,1765218945274,-586,8096,-561,0,0,0,0,0
1843,1765218945508,-565,8102,-569,0,0,0,0,0
1844,1765218945767,-580,8094,-584,0,0,0,0,0
1845,1765218945791,-580,8102,-575,0,0,0,0,0
1846,1765218945857,-576,8098,-580,0,0,0,0,0
1847,1765218945939,-578,8113,-576,0,0,0,0,0
1848,1765218946624,-582,8088,-579,0,0,0,0,0
1849,1765218946773,-574,8101,-586,0,0,0,0,0
1850,1765218946924,-562,8095,-572,0,0,0,0,0
1851,1765218947124,-570,8097,-574,0,0,0,0,0
1852,1765218947341,-580,8104,-570,0,0,0,0,0
1853,1765218947473,-579,8102,-574,0,0,0,0,0
1854,1765218947640,-570,8101,-576,0,0,0,0,0
1855,1765218947708,-580,8095,-580,0,0,0,0,0
1856,1765218947774,-591,8098,-578,0,0,0,0,0
1857,1765218948089,-567,8108,-569,0,0,0,0,0
1858,1765218948241,-575,8097,-570,0,0,0,0,0
1859,1765218948440,-592,8089,-573,0,0,0,0,0
1860,1765218948522,-576,8098,-570,0,0,0,0,0
1861,1765218948805,-541,8102,-574,0,0,0,0,0
1862,1765218948940,-570,8092,-588,0,0,0,0,0
1863,1765218949124,-594,8069,-579,0,0,0,0,0
1864,1765218949240,-552,8143,-542,0,0,0,0,0
1865,1765218949506,-577,8092,-564,0,0,0,0,0
1866,1765218949673,-620,8092,-542,0,0,0,0,0
1867,1765218949939,-555,8085,-584,0,0,0,0,0
1868,1765218950022,-566,8112,-588,0,0,0,0,0
1869,1765218950238,-578,8122,-554,0,0,0,0,0
1870,1765218950372,-606,8102,-580,0,0,0,0,0
1871,1765218950623,-528,8078,-596,0,0,0,0,0
1872,1765218950706,-557,8159,-575,0,0,0,0,0
1873,1765218950872,-580,8054,-595,0,0,0,0,0
1874,1765218951073,-574,8148,-580,0,0,0,0,0
1875,1765218951355,-568,8096,-580,0,0,0,0,0
1876,1765218951555,-575,8121,-618,0,0,0,0,0
1877,1765218951789,-570,8112,-579,0,0,0,0,0
1878,1765218951872,-560,8100,-544,0,0,0,0,0
1879,1765218952239,-592,8101,-571,0,0,0,0,0
1880,1765218952389,-559,8100,-574,0,0,0,0,0
1881,1765218952537,-569,8106,-585,0,0,0,0,0
1882,1765218952690,-560,8082,-582,0,0,0,0,0
1883,1765218952890,-574,8118,-545,0,0,0,0,0
1884,1765218953123,-582,8066,-552,0,0,0,0,0
1885,1765218953421,-574,8106,-598,0,0,0,0,0
1886,1765218953589,-570,8080,-624,0,0,0,0,0
1887,1765218953706,-596,8084,-645,0,0,0,0,0
1888,1765218953906,-571,8127,-607,0,0,0,0,0
1889,1765218953923,-581,8098,-592,0,0,0,0,0
1890,1765218954140,-565,8126,-597,0,0,0,0,0
1891,1765218954256,-572,8087,-610,0,0,0,0,0
1892,1765218954423,-566,8082,-600,0,0,0,0,0
1893,1765218954540,-592,8068,-621,0,0,0,0,0
1894,1765218954640,-539,8110,-588,0,0,0,0,0
1895,1765218954907,-569,8055,-554,0,0,0,0,0
1896,1765218955057,-595,8095,-533,0,0,0,0,0
1897,1765218955306,-561,8086,-523,0,0,0,0,0
1898,1765218955424,-590,8132,-517,0,0,0,0,0
1899,1765218955623,-567,8086,-530,0,0,0,0,0
1900,1765218955823,-560,8094,-498,0,0,0,0,0
1901,1765218956039,-571,8116,-519,0,0,0,0,0
1902,1765218956124,-581,8074,-572,0,0,0,0,0
1903,1765218956322,-574,8077,-629,0,0,0,0,0
1904,1765218956404,-580,8050,-538,0,0,0,0,0
1905,1765218956521,-577,8129,-564,0,0,0,0,0
1906,1765218956809,-582,8083,-586,0,0,0,0,0
1907,1765218956922,-552,8108,-560,0,0,0,0,0
1908,1765218956991,-580,8121,-541,0,0,0,0,0
1909,1765218957223,-570,8108,-530,0,0,0,0,0
1910,1765218957289,-579,8091,-560,0,0,0,0,0
1911,1765218957522,-566,8106,-588,0,0,0,0,0
1912,1765218957671,-584,8102,-604,0,0,0,0,0
1913,1765218957873,-552,8100,-566,0,0,0,0,0
1914,1765218957973,-578,8111,-566,0,0,0,0,0
1915,1765218958172,-605,8112,-547,0,0,0,0,0
1916,1765218958255,-577,8070,-568,0,0,0,0,0
1917,1765218958338,-568,8084,-503,0,0,0,0,0
1918,1765218958523,-584,8079,-498,0,0,0,0,0
1919,1765218958638,-575,8140,-536,0,0,0,0,0
1920,1765218958821,-554,8077,-578,0,0,0,0,0
1921,1765218958939,-562,8094,-598,0,0,0,0,0
1922,1765218958989,-568,8093,-534,0,0,0,0,0
1923,1765218959172,-571,8109,-569,0,0,0,0,0
1924,1765218959305,-574,8109,-587,0,0,0,0,0
1925,1765218959473,-575,8108,-615,0,0,0,0,0
1926,1765218959606,-580,8089,-635,0,0,0,0,0
1927,1765218959655,-563,8098,-588,0,0,0,0,0
1928,1765218959806,-600,8076,-632,0,0,0,0,0
1929,1765218959956,-582,8100,-595,0,0,0,0,0
1930,1765218960107,-564,8096,-590,0,0,0,0,0
1931,1765218960239,-580,8110,-564,0,0,0,0,0
1932,1765218960456,-572,8029,-605,0,0,0,0,0
1933,1765218960605,-599,8158,-594,0,0,0,0,0
1934,1765218960739,-534,8112,-534,0,0,0,0,0
1935,1765218960887,-578,8046,-555,0,0,0,0,0
1936,1765218961106,-587,8122,-627,0,0,0,0,0
1937,1765218961238,-614,8056,-589,0,0,0,0,0
1938,1765218961388,15751,6841,-20768,0,0,0,0,0
1939,1765218961539,-548,8109,15722,0,0,0,0,0
1940,1765218961890,-580,8091,-552,0,0,0,0,0
1941,1765218962040,-554,8091,-560,0,0,0,0,0
1942,1765218962190,-567,8125,-591,0,0,0,0,0
1943,1765218962340,-528,8130,-543,0,0,0,0,0
1944,1765218962423,-618,8053,-610,0,0,0,0,0
1945,1765218962639,-581,8135,-613,0,0,0,0,0
1946,1765218962756,-605,8083,-593,0,0,0,0,0
1947,1765218962922,-561,8065,-598,0,0,0,0,0
1948,1765218963059,-591,8111,-607,0,0,0,0,0
1949,1765218963240,-589,8130,-553,0,0,0,0,0
1950,1765218963388,-500,8096,-544,0,0,0,0,0
1951,1765218963539,-542,8170,-569,0,0,0,0,0
1952,1765218963722,-638,8069,-604,0,0,0,0,0
1953,1765218963857,-608,8127,-592,0,0,0,0,0
1954,1765218964025,-540,8130,-547,0,0,0,0,0
1955,1765218964157,-561,8073,-533,0,0,0,0,0
1956,1765218964355,-591,8143,-544,0,0,0,0,0
1957,1765218964473,-563,8099,-547,0,0,0,0,0
1958,1765218964707,-531,8118,-585,0,0,0,0,0
1959,1765218964756,-575,8126,-603,0,0,0,0,0
1960,1765218965005,-653,8072,-653,0,0,0,0,0
1961,1765218965089,-536,8064,-566,0,0,0,0,0
1962,1765218965338,-596,8081,-566,0,0,0,0,0
1963,1765218965472,-569,8069,-568,0,0,0,0,0
1964,1765218965624,-561,8131,-560,0,0,0,0,0
1965,1765218965822,-623,-19036,6045,0,0,0,0,0
1966,1765218965822,-556,8112,-563,0,0,0,0,0
1967,1765218965940,-555,8106,-582,0,0,0,0,0
1968,1765218966172,-600,8099,-572,0,0,0,0,0
1969,1765218966239,-575,8094,-592,0,0,0,0,0
1970,1765218966488,-552,8105,-590,0,0,0,0,0
1971,1765218966590,-578,8079,-571,0,0,0,0,0
1972,1765218966790,-572,8129,-594,0,0,0,0,0
1973,1765218966923,-570,8095,-585,0,0,0,0,0
1974,1765218967623,-572,8086,-580,0,0,0,0,0
1975,1765218967722,-571,8108,-585,0,0,0,0,0
1976,1765218967973,-576,6540,-30966,0,0,0,0,0
1977,1765218968319,-574,8117,-538,0,0,0,0,0
1978,1765218968407,-583,8065,-608,0,0,0,0,0
1979,1765218968574,-576,8120,-638,0,0,0,0,0
1980,1765218968756,-606,8063,-615,0,0,0,0,0
1981,1765218968889,-525,8068,-660,0,0,0,0,0
1982,1765218969090,-555,8150,-636,0,0,0,0,0
1983,1765218969189,-639,8055,-465,0,0,0,0,0
1984,1765218969457,-549,8053,-530,0,0,0,0,0
1985,1765218969524,-612,8160,-531,0,0,0,0,0
1986,1765218969740,-579,8104,-554,0,0,0,0,0
1987,1765218970073,-570,8132,-593,0,0,0,0,0
1988,1765218970221,-575,8076,-588,0,0,0,0,0
1989,1765218970373,-569,8111,-597,0,0,0,0,0
1990,1765218970555,-570,8105,-577,0,0,0,0,0
1991,1765218970657,-576,8090,-597,0,0,0,0,0
1992,1765218970907,-576,8097,-574,0,0,0,0,0
1993,1765218970988,-580,8106,-579,0,0,0,0,0
1994,1765218971223,-563,8094,-578,0,0,0,0,0
1995,1765218971306,-572,8095,-580,0,0,0,0,0
1996,1765218971555,-571,8075,-637,0,0,0,0,0
1997,1765218971674,-589,8115,-624,0,0,0,0,0
1998,1765218971840,-567,8088,-528,0,0,0,0,0
1999,1765218972023,-538,8094,-484,0,0,0,0,0
2000,1765218972157,-589,8098,-538,0,0,0,0,0
2001,1765218972390,-561,8050,-517,0,0,0,0,0
2002,1765218972456,-568,8135,-566,0,0,0,0,0
2003,1765218972690,-576,8079,-614,0,0,0,0,0
2004,1765218972823,-573,8040,-633,0,0,0,0,0
2005,1765218973023,-576,8093,-620,0,0,0,0,0
2006,1765218973139,-556,8106,-574,0,0,0,0,0
2007,1765218973323,-590,8086,-527,0,0,0,0,0
2008,1765218973508,-570,8112,-530,0,0,0,0,0
2009,1765218973840,-592,8097,-569,0,0,0,0,0
2010,1765218973938,-564,8104,-604,0,0,0,0,0
2011,1765218974174,-566,8092,-596,0,0,0,0,0
2012,1765218974273,-588,8082,-576,0,0,0,0,0
2013,1765218974422,-582,8106,-575,0,0,0,0,0
2014,1765218974557,-566,8123,-556,0,0,0,0,0
2015,1765218974788,-572,8080,-564,0,0,0,0,0
2016,1765218974956,-568,8102,-585,0,0,0,0,0
2017,1765218975156,-573,-8296,-20190,0,0,0,0,0
2018,1765218975290,-585,8121,-576,0,0,0,0,0
2019,1765218975490,-583,8097,-582,0,0,0,0,0
2020,1765218975673,-577,8105,-583,0,0,0,0,0
2021,1765218975973,-571,8100,-570,0,0,0,0,0
2022,1765218976107,-570,8110,-573,0,0,0,0,0
2023,1765218976255,-576,8093,-576,0,0,0,0,0
2024,1765218976406,-582,8102,-570,0,0,0,0,0
2025,1765218976657,-580,8104,-588,0,0,0,0,0
2026,1765218976790,-584,8092,-556,0,0,0,0,0
2027,1765218976956,-578,8120,-580,0,0,0,0,0
2028,1765218977090,-584,8108,-572,0,0,0,0,0
2029,1765218977523,-573,8076,-608,0,0,0,0,0
2030,1765218977722,-578,8110,-594,0,0,0,0,0
2031,1765218977823,-580,8110,-579,0,0,0,0,0
2032,1765218978073,-575,8102,-568,0,0,0,0,0
2033,1765218978222,-576,8100,-542,0,0,0,0,0
2034,1765218978473,-579,8092,-555,0,0,0,0,0
2035,1765218978540,-577,8129,-562,0,0,0,0,0
2036,1765218978773,-560,8074,-548,0,0,0,0,0
2037,1765218978923,-594,8132,-571,0,0,0,0,0
2038,1765218979206,-574,8050,-586,0,0,0,0,0
2039,1765218979356,-580,8086,-580,0,0,0,0,0
2040,1765218979688,-570,8098,-566,0,0,0,0,0
2041,1765218979704,-569,8118,-576,0,0,0,0,0
2042,1765218980073,-574,8124,-586,0,0,0,0,0
2043,1765218980256,-568,8084,-564,0,0,0,0,0
2044,1765218980372,-583,8102,-552,0,0,0,0,0
2045,1765218980807,-569,8092,-588,0,0,0,0,0
2046,1765218980987,-585,8092,-592,0,0,0,0,0
2047,1765218981189,-577,8110,-570,0,0,0,0,0
2048,1765218981290,-574,8107,-581,0,0,0,0,0
2049,1765218981489,-580,8084,-566,0,0,0,0,0
2050,1765218981656,-562,8103,-583,0,0,0,0,0
2051,1765218981889,-599,8087,-581,0,0,0,0,0
2052,1765218981973,-547,8082,-493,0,0,0,0,0
2053,1765218982190,-594,8114,-581,0,0,0,0,0
2054,1765218982639,-564,8061,-583,0,0,0,0,0
2055,1765218982722,-541,8050,-565,0,0,0,0,0
2056,1765218982939,-549,8201,-520,0,0,0,0,0
2057,1765218983057,-581,8106,-606,0,0,0,0,0
2058,1765218983306,-578,8104,-570,0,0,0,0,0
2059,1765218983390,-554,8096,-540,0,0,0,0,0
2060,1765218983623,-596,8089,-554,0,0,0,0,0
2061,1765218983740,-571,8124,-571,0,0,0,0,0
2062,1765218983923,-572,8064,-564,0,0,0,0,0
2063,1765218984123,-566,8130,-574,0,0,0,0,0
2064,1765218984339,-579,8093,-560,0,0,0,0,0
2065,1765218984490,-568,8100,-538,0,0,0,0,0
2066,1765218984690,-549,8097,-549,0,0,0,0,0
2067,1765218984823,-582,8095,-587,0,0,0,0,0
2068,1765218985021,-572,8086,-580,0,0,0,0,0
2069,1765218985206,-577,8116,-573,0,0,0,0,0
2070,1765218985357,-594,8101,-576,0,0,0,0,0
2071,1765218985490,-570,8086,-572,0,0,0,0,0
2072,1765218985523,-574,8080,-584,0,0,0,0,0
2073,1765218985623,-565,8113,-572,0,0,0,0,0
2074,1765218985939,-588,8100,-571,0,0,0,0,0
2075,1765218986057,-564,8095,-581,0,0,0,0,0
2076,1765218986189,-549,8096,-667,0,0,0,0,0
2077,1765218986356,-687,8100,-460,0,0,0,0,0
2078,1765218986523,-546,8136,-507,0,0,0,0,0
2079,1765218986690,-496,8074,-639,0,0,0,0,0
2080,1765218986823,-598,8032,-526,0,0,0,0,0
2081,1765218987056,-543,8124,-554,0,0,0,0,0
2082,1765218987140,-553,8173,-578,0,0,0,0,0
2083,1765218987556,-588,8105,-564,0,0,0,0,0
2084,1765218987791,-532,8092,-530,0,0,0,0,0
2085,1765218987873,-633,8080,-590,0,0,0,0,0
2086,1765218988539,-547,8096,-584,0,0,0,0,0
2087,1765218988656,-577,8105,-610,0,0,0,0,0
2088,1765218988756,-601,8090,-580,0,0,0,0,0
2089,1765218988954,-564,8103,-562,0,0,0,0,0
2090,1765218989206,-564,8109,-548,0,0,0,0,0
2091,1765218989438,-576,8101,-547,0,0,0,0,0
2092,1765218989521,-574,8108,-554,0,0,0,0,0
2093,1765218989722,-571,8104,-567,0,0,0,0,0
2094,1765218989889,-587,8103,-576,0,0,0,0,0
2095,1765218990122,-574,8103,-586,0,0,0,0,0
2096,1765218990239,-578,8097,-586,0,0,0,0,0
2097,1765218990556,-584,8096,-579,0,0,0,0,0
2098,1765218990639,-570,8103,-585,0,0,0,0,0
2099,1765218990821,-579,8090,-573,0,0,0,0,0
2100,1765218991040,-568,8088,-590,0,0,0,0,0
2101,1765218991290,-571,8098,-568,0,0,0,0,0
2102,1765218991423,-588,8115,-573,0,0,0,0,0
2103,1765218991606,-585,8093,-580,0,0,0,0,0
2104,1765218991822,-568,8080,-580,0,0,0,0,0
2105,1765218991906,-572,8118,-595,0,0,0,0,0
2106,1765218992123,-576,8106,-553,0,0,0,0,0
2107,1765218992240,-565,8081,-558,0,0,0,0,0
2108,1765218992306,-569,8101,-575,0,0,0,0,0
2109,1765218992523,-580,8087,-572,0,0,0,0,0
2110,1765218992588,-578,8104,-614,0,0,0,0,0
2111,1765218993072,-587,8148,-591,0,0,0,0,0
2112,1765218993289,-568,8090,-560,0,0,0,0,0
2113,1765218993372,-572,8074,-542,0,0,0,0,0
2114,1765218993638,-579,8082,-559,0,0,0,0,0
2115,1765218993805,-594,8100,-562,0,0,0,0,0
2116,1765218993988,-572,8102,-588,0,0,0,0,0
2117,1765218994205,-585,8112,-582,0,0,0,0,0
2118,1765218994338,-566,8106,-578,0,0,0,0,0
2119,1765218994505,-562,8094,-576,0,0,0,0,0
2120,1765218994771,-585,8094,-588,0,0,0,0,0
2121,1765218994988,-586,8100,-602,0,0,0,0,0
2122,1765218995088,-566,8103,-576,0,0,0,0,0
2123,1765218995271,-577,8088,-581,0,0,0,0,0
2124,1765218995338,-573,8105,-604,0,0,0,0,0
2125,1765218995437,-578,8105,-611,0,0,0,0,0
2126,1765218995656,-588,8074,-604,0,0,0,0,0
2127,1765218995771,-584,8101,-581,0,0,0,0,0
2128,1765218995888,-578,8100,-594,0,0,0,0,0
2129,1765218995971,-572,8113,-570,0,0,0,0,0
2130,1765218996170,-583,8105,-560,0,0,0,0,0
2131,1765218996256,-573,8098,-559,0,0,0,0,0
2132,1765218996939,-578,8089,-578,0,0,0,0,0
2133,1765218997024,-579,8096,-582,0,0,0,0,0
2134,1765218997373,-567,8109,-562,0,0,0,0,0
2135,1765218997605,-579,8092,-580,0,0,0,0,0
2136,1765218997722,-568,8091,-577,0,0,0,0,0
2137,1765218997791,-572,8097,-578,0,0,0,0,0
2138,1765218997856,-575,8096,-572,0,0,0,0,0
2139,1765218998089,-576,8095,-570,0,0,0,0,0
2140,1765218998523,-564,8099,-578,0,0,0,0,0
2141,1765218998605,-580,8103,-574,0,0,0,0,0
2142,1765218998822,-576,8098,-576,0,0,0,0,0
2143,1765218998939,-575,8092,-582,0,0,0,0,0
2144,1765218999205,-577,8106,-572,0,0,0,0,0
2145,1765218999273,-570,8110,-581,0,0,0,0,0
2146,1765218999520,-576,8079,-569,0,0,0,0,0
2147,1765218999655,-570,8141,-552,0,0,0,0,0
2148,1765218999804,-593,8139,-542,0,0,0,0,0
2149,1765219000041,-592,8103,-602,0,0,0,0,0
