index,date,GYRO_X,GYRO_Y,GYRO_Z,1,2,3,4,5
0,1765218499677,9,-6,0,0,0,0,0,0
1,1765218499911,40,17,-11,0,0,0,0,0
2,1765218500211,-40,18,17,0,0,0,0,0
3,1765218500261,102,165,-61,0,0,0,0,0
4,1765218500527,-25,167,-15,0,0,0,0,0
5,1765218500644,5,172,-27,0,0,0,0,0
6,1765218500909,-6,230,-25,0,0,0,0,0
7,1765218500993,2,212,-51,0,0,0,0,0
8,1765218501060,-3,226,-15,0,0,0,0,0
9,1765218501227,-29,227,-27,0,0,0,0,0
10,1765218501343,-13,242,23,0,0,0,0,0
11,1765218501660,3,215,-20,0,0,0,0,0
12,1765218501809,-57,-343,25,0,0,0,0,0
13,1765218502043,14,-350,-21,0,0,0,0,0
14,1765218502160,-33,-389,27,0,0,0,0,0
15,1765218502377,19,-490,77,0,0,0,0,0
16,1765218502510,-1,-435,27,0,0,0,0,0
17,1765218502743,55,-441,-45,0,0,0,0,0
18,1765218502860,72,-462,-13,0,0,0,0,0
19,1765218503076,-108,-513,-16219,0,0,0,0,0
20,1765218503310,-23,-559,39,0,0,0,0,0
21,1765218503510,161,-526,4,0,0,0,0,0
22,1765218503543,34,-556,74,0,0,0,0,0
23,1765218503661,-7,-560,-11,0,0,0,0,0
24,1765218503893,12,-545,-1,0,0,0,0,0
25,1765218503943,81,-524,-17,0,0,0,0,0
26,1765218504260,20,-509,-59,0,0,0,0,0
27,1765218504360,-5,-496,15,0,0,0,0,0
28,1765218504576,79,-758,9,0,0,0,0,0
29,1765218504677,-36,-507,72,0,0,0,0,0
30,1765218505026,60,-496,25,0,0,0,0,0
31,1765218505126,68,-505,59,0,0,0,0,0
32,1765218505326,20,-463,55,0,0,0,0,0
33,1765218505460,39,-439,15,0,0,0,0,0
34,1765218505660,48,-467,41,0,0,0,0,0
35,1765218505793,8,-415,35,0,0,0,0,0
36,1765218506026,49,-422,18,0,0,0,0,0
37,1765218506160,14,-390,-3,0,0,0,0,0
38,1765218506376,27,-380,4,0,0,0,0,0
39,1765218506610,55,-386,38,0,0,0,0,0
40,1765218506877,-39,-321,35,0,0,0,0,0
41,1765218506943,50,-319,39,0,0,0,0,0
42,1765218507160,-14,-291,28,0,0,0,0,0
43,1765218507526,23,-187,4,0,0,0,0,0
44,1765218507643,21,-161,-2,0,0,0,0,0
45,1765218507876,9,-127,6,0,0,0,0,0
46,1765218508010,11,-17,-6,0,0,0,0,0
47,1765218508076,7,-15,1,0,0,0,0,0
48,1765218508377,18,1,9,0,0,0,0,0
49,1765218508528,2,-1,-4,0,0,0,0,0
50,1765218508727,3,-9,-2,0,0,0,0,0
51,1765218508794,8,-11,-1,0,0,0,0,0
52,1765218509061,9,-10,-1,0,0,0,0,0
53,1765218509194,7,-10,-1,0,0,0,0,0
54,1765218509427,8,-10,-1,0,0,0,0,0
55,1765218509493,9,-9,-2,0,0,0,0,0
56,1765218509744,7,-11,-1,0,0,0,0,0
57,1765218509880,8,-11,-2,0,0,0,0,0
58,1765218510177,6,-9,-1,0,0,0,0,0
59,1765218510244,11,-13,2,0,0,0,0,0
60,1765218510613,10,-8,-1,0,0,0,0,0
61,1765218510777,8,-14,-2,0,0,0,0,0
62,1765218510912,9,-5,0,0,0,0,0,0
63,1765218511294,8,-18,-3,0,0,0,0,0
64,1765218511344,7,-12,-1,0,0,0,0,0
65,1765218511660,8,-10,-3,0,0,0,0,0
66,1765218511793,5,-19,0,0,0,0,0,0
67,1765218512027,-2,-10,3,0,0,0,0,0
68,1765218512093,6,-9,1,0,0,0,0,0
69,1765218512493,17,-14,6,0,0,0,0,0
70,1765218512695,14,-18,5,0,0,0,0,0
71,1765218512794,11,-13,1,0,0,0,0,0
72,1765218513143,15,-18,3,0,0,0,0,0
73,1765218513460,16,-12,-12,0,0,0,0,0
74,1765218513527,23,-11,-2,0,0,0,0,0
75,1765218513593,13,-8,-9,0,0,0,0,0
76,1765218513677,7,-2,-14,0,0,0,0,0
77,1765218513893,15,-16,-29,0,0,0,0,0
78,1765218514076,12,-15,-3,0,0,0,0,0
79,1765218514276,-5,-6,-17,0,0,0,0,0
80,1765218514377,11,-8,-2,0,0,0,0,0
81,1765218514610,3,-19,6,0,0,0,0,0
82,1765218514677,9,-16,-7,0,0,0,0,0
83,1765218514827,11,-19,12,0,0,0,0,0
84,1765218515126,2,-5,3,0,0,0,0,0
85,1765218515293,-5,-6,-7,0,0,0,0,0
86,1765218515510,3,-8,-10,0,0,0,0,0
87,1765218515577,10,-12,2,0,0,0,0,0
88,1765218515809,7,-12,-1,0,0,0,0,0
89,1765218515960,7,-11,-12,0,0,0,0,0
90,1765218516161,1,-2,0,0,0,0,0,0
91,1765218516260,14,-18,-1,0,0,0,0,0
92,1765218516493,8,-9,1,0,0,0,0,0
93,1765218516694,7,-7,0,0,0,0,0,0
94,1765218516877,10,-13,-7,0,0,0,0,0
95,1765218517009,9,-9,-2,0,0,0,0,0
96,1765218517209,8,-10,4,0,0,0,0,0
97,1765218517343,17,-13,-2,0,0,0,0,0
98,1765218517429,6,-5,3,0,0,0,0,0
99,1765218517693,13,-15,-6,0,0,0,0,0
100,1765218517794,7,-9,-5,0,0,0,0,0
101,1765218517944,5,-5,-8,0,0,0,0,0
102,1765218518110,18,-8,-9,0,0,0,0,0
103,1765218518244,4,-14,-1,0,0,0,0,0
104,1765218518460,16,-6,-2,0,0,0,0,0
105,1765218518676,11,-12,-15,0,0,0,0,0
106,1765218518844,4,-17,0,0,0,0,0,0
107,1765218518993,4,-6,5,0,0,0,0,0
108,1765218519276,6,-12,-1,0,0,0,0,0
109,1765218519510,8,-9,-1,0,0,0,0,0
110,1765218519609,10,-11,-1,0,0,0,0,0
111,1765218519960,4,-12,-51,0,0,0,0,0
112,1765218520028,10,-7,-2,0,0,0,0,0
113,1765218520343,8,-9,-1,0,0,0,0,0
114,1765218520460,8,-7,1,0,0,0,0,0
115,1765218520610,4,-3,-3,0,0,0,0,0
116,1765218520760,7,-9,-3,0,0,0,0,0
117,1765218521077,5,24,-3,0,0,0,0,0
118,1765218521643,8,1,1,0,0,0,0,0
119,1765218521860,-8,-15,-1,0,0,0,0,0
120,1765218522059,22,-3,-9,0,0,0,0,0
121,1765218522326,8,-12,-1,0,0,0,0,0
122,1765218522427,6,-11,1,0,0,0,0,0
123,1765218522644,8,-8203,-2,0,0,0,0,0
124,1765218522726,9,-2,-1,0,0,0,0,0
125,1765218522860,7,-2,-1,0,0,0,0,0
126,1765218523109,8,-1,-1,0,0,0,0,0
127,1765218523178,8,-4,-3,0,0,0,0,0
128,1765218523410,7,1,-1,0,0,0,0,0
129,1765218523527,5,1,-1,0,0,0,0,0
130,1765218523593,10,-1,-1,0,0,0,0,0
131,1765218523893,6,0,-1,0,0,0,0,0
132,1765218524193,2,10,-1,0,0,0,0,0
133,1765218524310,10,3,0,0,0,0,0,0
134,1765218524493,13,13,-6,0,0,0,0,0
135,1765218524643,-12,13,-4,0,0,0,0,0
136,1765218524776,-5,-35,-8,0,0,0,0,0
137,1765218524994,19,-76,-2,0,0,0,0,0
138,1765218525059,13,-70,7,0,0,0,0,0
139,1765218525426,14,-185,14,0,0,0,0,0
140,1765218525676,28,-191,9,0,0,0,0,0
141,1765218525793,17,-204,21,0,0,0,0,0
142,1765218525926,12,-291,18,0,0,0,0,0
143,1765218526110,-1,-313,17,0,0,0,0,0
144,1765218526210,22,-342,33,0,0,0,0,0
145,1765218526461,27,-331,-7,0,0,0,0,0
146,1765218526578,29,-327,18,0,0,0,0,0
147,1765218526677,-1,-303,19,0,0,0,0,0
148,1765218526877,-6,-311,39,0,0,0,0,0
149,1765218526976,70,-348,18,0,0,0,0,0
150,1765218527311,17,-255,-7,0,0,0,0,0
151,1765218527460,24,-237,6,0,0,0,0,0
152,1765218527710,18,-228,8,0,0,0,0,0
153,1765218527809,27,-150,-7,0,0,0,0,0
154,1765218527876,20,-149,18,0,0,0,0,0
155,1765218528110,10,-133,6,0,0,0,0,0
156,1765218528227,16,-115,3,0,0,0,0,0
157,1765218528560,7,-78,5,0,0,0,0,0
158,1765218528676,20,-55,-5,0,0,0,0,0
159,1765218528860,7,-41,1,0,0,0,0,0
160,1765218528993,-2,-18,2,0,0,0,0,0
161,1765218529260,5,-18,-6,0,0,0,0,0
162,1765218529543,46,-19,-1,0,0,0,0,0
163,1765218529644,9,-55,11,0,0,0,0,0
164,1765218529761,2,-65,0,0,0,0,0,0
165,1765218530010,-9,-29,0,0,0,0,0,0
166,1765218530093,19,-46,6,0,0,0,0,0
167,1765218530243,-4,32,-3,0,0,0,0,0
168,1765218530443,3,93,-14,0,0,0,0,0
169,1765218530559,10,80,-33,0,0,0,0,0
170,1765218530810,39,134,-52,0,0,0,0,0
171,1765218530828,29,63,-16,0,0,0,0,0
172,1765218531061,12,23,-7,0,0,0,0,0
173,1765218531211,9,43,-4,0,0,0,0,0
174,1765218531378,13,11,4,0,0,0,0,0
175,1765218531544,14,-1,3,0,0,0,0,0
176,1765218531661,6,-21,-1,0,0,0,0,0
177,1765218531894,3,3,-4,0,0,0,0,0
178,1765218531978,6,-8,3,0,0,0,0,0
179,1765218532160,9,-14,-1,0,0,0,0,0
180,1765218532327,8,-11,-2,0,0,0,0,0
181,1765218532627,7,-10,-256,0,0,0,0,0
182,1765218532676,7,-10,1,0,0,0,0,0
183,1765218532744,6,-10,-2,0,0,0,0,0
184,1765218532860,9,-12,-1,0,0,0,0,0
185,1765218533044,7,-10,-1,0,0,0,0,0
186,1765218533193,7,-10,-1,0,0,0,0,0
187,1765218533394,7,-9,-2,0,0,0,0,0
188,1765218533531,7,-14,0,0,0,0,0,0
189,1765218533727,8,-8,-2,0,0,0,0,0
190,1765218533828,7,-11,0,0,0,0,0,0
191,1765218534010,8,-10,-1,0,0,0,0,0
192,1765218534261,5,-10,0,0,0,0,0,0
193,1765218534478,8,-11,-1,0,0,0,0,0
194,1765218534627,7,-10,0,0,0,0,0,0
195,1765218534761,9,-8,-2,0,0,0,0,0
196,1765218534909,8,-10,-1,0,0,0,0,0
197,1765218535144,8,-10,-1,0,0,0,0,0
198,1765218535294,7,-11,-1,0,0,0,0,0
199,1765218535361,8,-8,-1,0,0,0,0,0
200,1765218535595,8,-10,-1,0,0,0,0,0
201,1765218535811,8,-11,0,0,0,0,0,0
202,1765218536111,9,-10,-2,0,0,0,0,0
203,1765218536328,9,-9,-1,0,0,0,0,0
204,1765218536394,7,-9,-1,0,0,0,0,0
205,1765218536460,7,-11,-1,0,0,0,0,0
206,1765218536527,8,-10,0,0,0,0,0,0
207,1765218536794,7,-10,-1,0,0,0,0,0
208,1765218536910,8,-10,-1,0,0,0,0,0
209,1765218537098,8,-10,-1,0,0,0,0,0
210,1765218537230,8,-10,-1,0,0,0,0,0
211,1765218537429,8,-10,0,0,0,0,0,0
212,1765218537661,6,-9,-1,0,0,0,0,0
213,1765218537828,7,-10,0,0,0,0,0,0
214,1765218537961,6,-11,-1,0,0,0,0,0
215,1765218538144,10,-11,-1,0,0,0,0,0
216,1765218538262,5,-10,-1,0,0,0,0,0
217,1765218538310,8,-11,-1,0,0,0,0,0
218,1765218538378,7,-11,-1,0,0,0,0,0
219,1765218538661,8,-9,-1,0,0,0,0,0
220,1765218538744,6,-9,-1,0,0,0,0,0
221,1765218539060,7,-10,-1,0,0,0,0,0
222,1765218539361,7,-11,-1,0,0,0,0,0
223,1765218539445,8,-9,-1,0,0,0,0,0
224,1765218539577,9,-10,-1,0,0,0,0,0
225,1765218539795,9,-11,-1,0,0,0,0,0
226,1765218539911,8,-10,0,0,0,0,0,0
227,1765218540144,8,-11,0,0,0,0,0,0
228,1765218540262,10,-9,-3,0,0,0,0,0
229,1765218540494,6,-10,-2,0,0,0,0,0
230,1765218540561,9,-11,-2,0,0,0,0,0
231,1765218540945,9,-10,0,0,0,0,0,0
232,1765218541261,8,-11,0,0,0,0,0,0
233,1765218541310,9,-9,-1,0,0,0,0,0
234,1765218541395,17,-17,1,0,0,0,0,0
235,1765218541476,4,-7,0,0,0,0,0,0
236,1765218541694,6,-8,-2,0,0,0,0,0
237,1765218541845,8,-11,-1,0,0,0,0,0
238,1765218542010,9,-9,1,0,0,0,0,0
239,1765218542143,8,-8,-1,0,0,0,0,0
240,1765218542343,8,-11,-1,0,0,0,0,0
241,1765218542443,6,-11,0,0,0,0,0,0
242,1765218542860,6,-12,-2,0,0,0,0,0
243,1765218543010,4,-8,-2,0,0,0,0,0
244,1765218543161,9,-10,-3,0,0,0,0,0
245,1765218543309,10,-10,-2,0,0,0,0,0
246,1765218543527,7,-7,0,0,0,0,0,0
247,1765218543662,2,-2,-1,0,0,0,0,0
248,1765218543877,9,-18,1,0,0,0,0,0
249,1765218544027,6,-12,-2,0,0,0,0,0
250,1765218544227,8,-10,0,0,0,0,0,0
251,1765218544464,6,-12,-1,0,0,0,0,0
252,1765218544643,6,-9,-2,0,0,0,0,0
253,1765218544777,7,-9,-1,0,0,0,0,0
254,1765218544994,9,-9,-1,0,0,0,0,0
255,1765218545077,8,-10,-2,0,0,0,0,0
256,1765218545159,8,-10,-2,0,0,0,0,0
257,1765218545260,8,-11,0,0,0,0,0,0
258,1765218545476,6,-10,-1,0,0,0,0,0
259,1765218545660,7,-11,-2,0,0,0,0,0
260,1765218545826,8,-11,0,0,0,0,0,0
261,1765218545893,7,-10,0,0,0,0,0,0
262,1765218546209,8,-11,-1,0,0,0,0,0
263,1765218546359,8,-8,-1,0,0,0,0,0
264,1765218546544,9,-10,-2,0,0,0,0,0
265,1765218546644,7,-11,-1,0,0,0,0,0
266,1765218546861,7,-9,0,0,0,0,0,0
267,1765218546978,7,-9,0,0,0,0,0,0
268,1765218547178,7,-10,-2,0,0,0,0,0
269,1765218547344,7,-9,-1,0,0,0,0,0
270,1765218547511,8,-8,-5,0,0,0,0,0
271,1765218547711,7,-9,-2,0,0,0,0,0
272,1765218547894,8,-11,-1,0,0,0,0,0
273,1765218548078,8,-11,0,0,0,0,0,0
274,1765218548227,5,-11,0,0,0,0,0,0
275,1765218548378,7,-10,-4,0,0,0,0,0
276,1765218548494,6,-11,-2,0,0,0,0,0
277,1765218548777,7,-10,0,0,0,0,0,0
278,1765218548844,6,-9,-2,0,0,0,0,0
279,1765218548910,7,-8,0,0,0,0,0,0
280,1765218548961,9,-10,-4,0,0,0,0,0
281,1765218549193,9,-11,0,0,0,0,0,0
282,1765218549328,7,-9,-1,0,0,0,0,0
283,1765218549711,8,-10,-1,0,0,0,0,0
284,1765218549944,9,-11,-1,0,0,0,0,0
285,1765218550044,7,-10,-1,0,0,0,0,0
286,1765218550210,8,-10,0,0,0,0,0,0
287,1765218550378,8,-10,0,0,0,0,0,0
288,1765218550594,7,-11,0,0,0,0,0,0
289,1765218550711,8,-10,0,0,0,0,0,0
290,1765218550745,5,-10,0,0,0,0,0,0
291,1765218550827,7,-9,-1,0,0,0,0,0
292,1765218551061,8,-10,-1,0,0,0,0,0
293,1765218551293,7,-11,-1,0,0,0,0,0
294,1765218551443,8,-10,-3,0,0,0,0,0
295,1765218551559,9,-12,-4,0,0,0,0,0
296,1765218551777,7,-10,-1,0,0,0,0,0
297,1765218551859,7,-9,-1,0,0,0,0,0
298,1765218552011,8,-10,1,0,0,0,0,0
299,1765218552261,6,-10,-1,0,0,0,0,0
300,1765218552410,9,-11,-1,0,0,0,0,0
301,1765218552561,7,-10,-1,0,0,0,0,0
302,1765218552694,7,-9,-1,0,0,0,0,0
303,1765218552961,8,-9,-1,0,0,0,0,0
304,1765218553128,8,-11,-2,0,0,0,0,0
305,1765218553311,7,-10,-1,0,0,0,0,0
306,1765218553444,7,-9,0,0,0,0,0,0
307,1765218553627,8,-8,-1,0,0,0,0,0
308,1765218553776,7,-9,-1,0,0,0,0,0
309,1765218553861,8,-10,1,0,0,0,0,0
310,1765218554144,7,-10,0,0,0,0,0,0
311,1765218554211,6,-11,-3,0,0,0,0,0
312,1765218554428,7,-9,-1,0,0,0,0,0
313,1765218554561,7,-16,1,0,0,0,0,0
314,1765218554627,7,-9,-2,0,0,0,0,0
315,1765218554927,7,-10,0,0,0,0,0,0
316,1765218555060,5,-11,-1,0,0,0,0,0
317,1765218555176,7,-9,-2,0,0,0,0,0
318,1765218555407,8,-9,-256,0,0,0,0,0
319,1765218555493,8,-11,-1,0,0,0,0,0
320,1765218555809,8,-11,0,0,0,0,0,0
321,1765218555977,4,-9,0,0,0,0,0,0
322,1765218556093,7,-9,0,0,0,0,0,0
323,1765218556292,6,-8,-2,0,0,0,0,0
324,1765218556376,7,-10,-1,0,0,0,0,0
325,1765218556594,7,-11,0,0,0,0,0,0
326,1765218556809,7,-8,-1,0,0,0,0,0
327,1765218556876,9,-10,-1,0,0,0,0,0
328,1765218557010,7,-10,-2,0,0,0,0,0
329,1765218557193,8,-10,-2,0,0,0,0,0
330,1765218557294,8,-11,0,0,0,0,0,0
331,1765218557728,9,-8,6,0,0,0,0,0
332,1765218557844,6,-9,-4,0,0,0,0,0
333,1765218558027,8,-12,-5,0,0,0,0,0
334,1765218558111,7,-11,-1,0,0,0,0,0
335,1765218558178,8,-9,-256,0,0,0,0,0
336,1765218558492,6,-9,0,0,0,0,0,0
337,1765218558610,7,-10,-3,0,0,0,0,0
338,1765218558877,6,-10,-1,0,0,0,0,0
339,1765218558961,8,-10,-1,0,0,0,0,0
340,1765218559194,7,-10,-1,0,0,0,0,0
341,1765218559311,6,-10,0,0,0,0,0,0
342,1765218559361,9,-11,-1,0,0,0,0,0
343,1765218559544,7,-9,-1,0,0,0,0,0
344,1765218559694,7,-9,-1,0,0,0,0,0
345,1765218559861,6,-11,-1,0,0,0,0,0
346,1765218560110,7,-11,-2,0,0,0,0,0
347,1765218560361,9,-10,0,0,0,0,0,0
348,1765218560478,7,-11,-1,0,0,0,0,0
349,1765218560594,8,-9,-2,0,0,0,0,0
350,1765218560660,9,-12,-1,0,0,0,0,0
351,1765218560876,8,-9,-2,0,0,0,0,0
352,1765218560944,8,-9,-2,0,0,0,0,0
353,1765218561260,7,-12,0,0,0,0,0,0
354,1765218561327,7,-8,-2,0,0,0,0,0
355,1765218561544,8,-8,0,0,0,0,0,0
356,1765218561644,8,-12,-1,0,0,0,0,0
357,1765218561894,7,-9,-1,0,0,0,0,0
358,1765218561959,8,-10,-1,0,0,0,0,0
359,1765218562194,6,-9,-3,0,0,0,0,0
360,1765218562244,7,-10,-1,0,0,0,0,0
361,1765218562477,7,-10,-1,0,0,0,0,0
362,1765218562627,8,-9,-1,0,0,0,0,0
363,1765218562762,8,-10,-1,0,0,0,0,0
364,1765218562911,9,-10,-1,0,0,0,0,0
365,1765218563076,8,-9,0,0,0,0,0,0
366,1765218563311,8,-11,-1,0,0,0,0,0
367,1765218563411,7,-10,-1,0,0,0,0,0
368,1765218563627,8,-10,-1,0,0,0,0,0
369,1765218563810,9,-10,0,0,0,0,0,0
370,1765218563894,7,-10,-1,0,0,0,0,0
371,1765218564178,8,-10,-1,0,0,0,0,0
372,1765218564344,8,-11,-1,0,0,0,0,0
373,1765218564562,9,-10,-1,0,0,0,0,0
374,1765218564644,9,-9,-1,0,0,0,0,0
375,1765218564845,7,-9,-1,0,0,0,0,0
376,1765218564945,8,-10,1,0,0,0,0,0
377,1765218565077,8,-10,-2,0,0,0,0,0
378,1765218565327,7,-11,-2,0,0,0,0,0
379,1765218565377,7,-9,-1,0,0,0,0,0
380,1765218565544,7,-11,-2,0,0,0,0,0
381,1765218565744,8,-10,-2,0,0,0,0,0
382,1765218566026,7,-11,-1,0,0,0,0,0
383,1765218566111,7,-11,-1,0,0,0,0,0
384,1765218566178,8,-10,0,0,0,0,0,0
385,1765218566245,7,-11,-2,0,0,0,0,0
386,1765218566477,7,-10,-2,0,0,0,0,0
387,1765218566561,8,-9,-1,0,0,0,0,0
388,1765218566942,6,-10,-1,0,0,0,0,0
389,1765218567144,8,-11,-1,0,0,0,0,0
390,1765218567244,5,-10,0,0,0,0,0,0
391,1765218567427,10,-10,-2,0,0,0,0,0
392,1765218567677,7,-10,-2,0,0,0,0,0
393,1765218567927,8,-9,0,0,0,0,0,0
394,1765218567978,7,-11,0,0,0,0,0,0
395,1765218568060,8,-10,1,0,0,0,0,0
396,1765218568244,6,-10,-1,0,0,0,0,0
397,1765218568394,7,-11,-2,0,0,0,0,0
398,1765218568627,8,-10,-1,0,0,0,0,0
399,1765218568794,8,-11,0,0,0,0,0,0
400,1765218568961,7,-11,0,0,0,0,0,0
401,1765218569077,6,-10,0,0,0,0,0,0
402,1765218569528,7,-12,-2,0,0,0,0,0
403,1765218569692,8,-10,-1,0,0,0,0,0
404,1765218569826,9,-8,-256,0,0,0,0,0
405,1765218570126,7,-11,255,0,0,0,0,0
406,1765218570210,8,-10,-1,0,0,0,0,0
407,1765218570509,8,-12,-2,0,0,0,0,0
408,1765218570643,7,-11,-1,0,0,0,0,0
409,1765218570876,8,-11,-2,0,0,0,0,0
410,1765218570993,7,-10,-1,0,0,0,0,0
411,1765218571243,8,-11,-2,0,0,0,0,0
412,1765218571360,9,-11,-1,0,0,0,0,0
413,1765218571609,9,-10,-2,0,0,0,0,0
414,1765218571993,8,-11,-1,0,0,0,0,0
415,1765218572176,6,-10,-2,0,0,0,0,0
416,1765218572293,6,-9,-1,0,0,0,0,0
417,1765218572559,11,-10,0,0,0,0,0,0
418,1765218572643,8,-11,-2,0,0,0,0,0
419,1765218572942,7,-11,0,0,0,0,0,0
420,1765218573109,8,-11,-1,0,0,0,0,0
421,1765218573293,8,-10,-2,0,0,0,0,0
422,1765218573375,8,-11,-1,0,0,0,0,0
423,1765218573659,8,-10,-2,0,0,0,0,0
424,1765218573776,7,-9,-1,0,0,0,0,0
425,1765218574060,8,-11,0,0,0,0,0,0
426,1765218574278,7,-10,1,0,0,0,0,0
427,1765218574376,7,-9,-1,0,0,0,0,0
428,1765218574427,8,-8,0,0,0,0,0,0
429,1765218574593,7,-10,0,0,0,0,0,0
430,1765218574726,8,-12,-1,0,0,0,0,0
431,1765218574993,8,-9,0,0,0,0,0,0
432,1765218575059,6,-10,-1,0,0,0,0,0
433,1765218575259,7,-10,-1,0,0,0,0,0
434,1765218575392,7,-10,-1,0,0,0,0,0
435,1765218575593,10,-10,-2,0,0,0,0,0
436,1765218575776,9,-10,0,0,0,0,0,0
437,1765218575859,8,-10,0,0,0,0,0,0
438,1765218576093,8,-12,-2,0,0,0,0,0
439,1765218576242,9,-9,-1,0,0,0,0,0
440,1765218576476,7,-11,-2,0,0,0,0,0
441,1765218576726,6,-11,-1,0,0,0,0,0
442,1765218576826,8,-11,-1,0,0,0,0,0
443,1765218577010,8,-10,0,0,0,0,0,0
444,1765218577193,9,-10,-2,0,0,0,0,0
445,1765218577409,9,-10,0,0,0,0,0,0
446,1765218577493,6,-10,-2,0,0,0,0,0
447,1765218577676,6,-11,0,0,0,0,0,0
448,1765218577826,7,-12,-1,0,0,0,0,0
449,1765218578027,8,-9,-1,0,0,0,0,0
450,1765218578126,8,-11,-2,0,0,0,0,0
451,1765218578376,7,-9,0,0,0,0,0,0
452,1765218578542,8,-9,-1,0,0,0,0,0
453,1765218578726,10,-11,1,0,0,0,0,0
454,1765218578826,8,-8,-1,0,0,0,0,0
455,1765218578994,9,-9,0,0,0,0,0,0
456,1765218579276,7,-9,-1,0,0,0,0,0
457,1765218579475,6,-11,-2,0,0,0,0,0
458,1765218579644,9,-10,-1,0,0,0,0,0
459,1765218579759,7,-10,-1,0,0,0,0,0
460,1765218579976,9,-11,-1,0,0,0,0,0
461,1765218580359,7,-11,-2,0,0,0,0,0
462,1765218580460,8,-10,-1,0,0,0,0,0
463,1765218580726,6,-9,-1,0,0,0,0,0
464,1765218580926,8,-10,-1,0,0,0,0,0
465,1765218581093,7,-10,-1,0,0,0,0,0
466,1765218581276,7,-10,0,0,0,0,0,0
467,1765218581393,9,-9,-1,0,0,0,0,0
468,1765218581475,7,-11,-2,0,0,0,0,0
469,1765218581609,9,-10,-1,0,0,0,0,0
470,1765218581809,8,-11,-1,0,0,0,0,0
471,1765218581977,7,-11,-1,0,0,0,0,0
472,1765218582178,8,-8,0,0,0,0,0,0
473,1765218582260,9,-9,-2,0,0,0,0,0
474,1765218582544,8,-9,-2,0,0,0,0,0
475,1765218582910,7,-10,-1,0,0,0,0,0
476,1765218582993,7,-10,-1,0,0,0,0,0
477,1765218583227,7,-11,0,0,0,0,0,0
478,1765218583378,8,-9,0,0,0,0,0,0
479,1765218583610,8,-11,-2,0,0,0,0,0
480,1765218583694,8,-11,-1,0,0,0,0,0
481,1765218583943,8,-11,-2,0,0,0,0,0
482,1765218584176,7,-10,-1,0,0,0,0,0
483,1765218584377,6,-11,0,0,0,0,0,0
484,1765218584511,7,-10,-1,0,0,0,0,0
485,1765218584727,8,-9,-1,0,0,0,0,0
486,1765218584810,9,-11,0,0,0,0,0,0
487,1765218585077,6,-12,0,0,0,0,0,0
488,1765218585228,7,-8,-1,0,0,0,0,0
489,1765218585394,8,-10,0,0,0,0,0,0
490,1765218585509,6,-11,0,0,0,0,0,0
491,1765218585959,9,-10,0,0,0,0,0,0
492,1765218586144,9,-10,-2,0,0,0,0,0
493,1765218586260,7,-10,-2,0,0,0,0,0
494,1765218586460,8,-11,-1,0,0,0,0,0
495,1765218586693,9,-9,0,0,0,0,0,0
496,1765218586877,7,-11,-3,0,0,0,0,0
497,1765218586976,7,-11,-1,0,0,0,0,0
498,1765218587060,8,-11,-2,0,0,0,0,0
499,1765218587194,6,-9,0,0,0,0,0,0
500,1765218587377,8,-10,-2,0,0,0,0,0
501,1765218587811,8,-10,-1,0,0,0,0,0
502,1765218587960,8,-11,0,0,0,0,0,0
503,1765218588111,8,-11,0,0,0,0,0,0
504,1765218588511,7,-11,-2,0,0,0,0,0
505,1765218588577,7,-11,0,0,0,0,0,0
506,1765218588809,7,-11,-1,0,0,0,0,0
507,1765218588876,7,-12,0,0,0,0,0,0
508,1765218588942,6,-12,0,0,0,0,0,0
509,1765218589077,8,-10,-1,0,0,0,0,0
510,1765218589309,6,-9,0,0,0,0,0,0
511,1765218589677,8,-9,-1,0,0,0,0,0
512,1765218589777,8,-9,-1,0,0,0,0,0
513,1765218589978,8,-11,-1,0,0,0,0,0
514,1765218590144,7,-10,-2,0,0,0,0,0
515,1765218590294,7,-10,-1,0,0,0,0,0
516,1765218590444,8,-9,-1,0,0,0,0,0
517,1765218590644,7,-11,-1,0,0,0,0,0
518,1765218590860,7,-9,-1,0,0,0,0,0
519,1765218591161,7,-10,-1,0,0,0,0,0
520,1765218591277,7,-11,0,0,0,0,0,0
521,1765218591562,7,-11,-1,0,0,0,0,0
522,1765218591661,8,-11,-1,0,0,0,0,0
523,1765218591893,8,-11,-1,0,0,0,0,0
524,1765218591993,9,-10,-1,0,0,0,0,0
525,1765218592077,7,-10,-1,0,0,0,0,0
526,1765218592294,9,-9,0,0,0,0,0,0
527,1765218592361,8,-10,-1,0,0,0,0,0
528,1765218592694,8,-9,-1,0,0,0,0,0
529,1765218592927,7,-11,-1,0,0,0,0,0
530,1765218593079,8,-11,-1,0,0,0,0,0
531,1765218593210,8,-11,-2,0,0,0,0,0
532,1765218593311,7,-12,0,0,0,0,0,0
533,1765218593494,7,-10,-1,0,0,0,0,0
534,1765218593660,10,-10,0,0,0,0,0,0
535,1765218593827,8,-10,-1,0,0,0,0,0
536,1765218593944,7,-10,0,0,0,0,0,0
537,1765218594044,7,-10,0,0,0,0,0,0
538,1765218594244,8,-11,-1,0,0,0,0,0
539,1765218594728,9,-9,-1,0,0,0,0,0
540,1765218594843,8,-10,-1,0,0,0,0,0
541,1765218595027,8,-9,-2,0,0,0,0,0
542,1765218595145,9,-11,1,0,0,0,0,0
543,1765218595226,6,-10,-2,0,0,0,0,0
544,1765218595461,7,-10,-1,0,0,0,0,0
545,1765218595576,8,-11,-1,0,0,0,0,0
546,1765218595860,7,-10,0,0,0,0,0,0
547,1765218595944,6,-8,1,0,0,0,0,0
548,1765218596194,7,-13,0,0,0,0,0,0
549,1765218596477,7,-9,-1,0,0,0,0,0
550,1765218596661,7,-10,-1,0,0,0,0,0
551,1765218596777,7,-10,-1,0,0,0,0,0
552,1765218597027,7,-11,-1,0,0,0,0,0
553,1765218597127,9,-11,-2,0,0,0,0,0
554,1765218597360,8,-11,-2,0,0,0,0,0
555,1765218597427,7,-10,1,0,0,0,0,0
556,1765218597561,10,-11,-1,0,0,0,0,0
557,1765218597694,8,-11,-2,0,0,0,0,0
558,1765218597844,8,-12,-1,0,0,0,0,0
559,1765218598327,8,-9,0,0,0,0,0,0
560,1765218598498,8,-11,-1,0,0,0,0,0
561,1765218598628,9,-10,-2,0,0,0,0,0
562,1765218598727,5,-10,0,0,0,0,0,0
563,1765218598811,7,-9,-2,0,0,0,0,0
564,1765218599010,7,-12,-2,0,0,0,0,0
565,1765218599191,6,-9,-2,0,0,0,0,0
566,1765218599459,8,-11,-1,0,0,0,0,0
567,1765218599561,9,-11,1,0,0,0,0,0
568,1765218599760,8,-11,0,0,0,0,0,0
569,1765218600147,7,-10,-2,0,0,0,0,0
570,1765218600261,8,-11,-2,0,0,0,0,0
571,1765218600494,6,-10,0,0,0,0,0,0
572,1765218600627,7,-11,-1,0,0,0,0,0
573,1765218600793,6,-9,-1,0,0,0,0,0
574,1765218600942,7,-11,-1,0,0,0,0,0
575,1765218601142,7,-10,1,0,0,0,0,0
576,1765218601326,7,-11,0,0,0,0,0,0
577,1765218601427,7,-10,-2,0,0,0,0,0
578,1765218601694,8,-12,-1,0,0,0,0,0
579,1765218601911,6,-10,-3,0,0,0,0,0
580,1765218602077,7,-12,-2,0,0,0,0,0
581,1765218602227,9,-10,3,0,0,0,0,0
582,1765218602475,7,-13,-1,0,0,0,0,0
583,1765218602627,8,-8,-1,0,0,0,0,0
584,1765218602808,9,-10,-1,0,0,0,0,0
585,1765218602958,8,-11,-1,0,0,0,0,0
586,1765218603178,9,-10,-1,0,0,0,0,0
587,1765218603393,8,-9,0,0,0,0,0,0
588,1765218603561,9,-11,-256,0,0,0,0,0
589,1765218603695,7,-11,-2,0,0,0,0,0
590,1765218603927,6,-10,-1,0,0,0,0,0
591,1765218604027,8,-12,-1,0,0,0,0,0
592,1765218604260,7,-10,-1,0,0,0,0,0
593,1765218604377,8,-10,-2,0,0,0,0,0
594,1765218604611,6,-10,-1,0,0,0,0,0
595,1765218604676,6,-11,0,0,0,0,0,0
596,1765218605127,8,-10,-1,0,0,0,0,0
597,1765218605360,8,-11,-2,0,0,0,0,0
598,1765218605444,9,-10,-1,0,0,0,0,0
599,1765218605627,9,-11,-2,0,0,0,0,0
600,1765218605827,8,-10,0,0,0,0,0,0
601,1765218606044,7,-11,-2,0,0,0,0,0
602,1765218606111,7,-11,-2,0,0,0,0,0
603,1765218606328,9,-10,-1,0,0,0,0,0
604,1765218606494,5,-10,-1,0,0,0,0,0
605,1765218606794,8,-12,0,0,0,0,0,0
606,1765218606944,8,-10,0,0,0,0,0,0
607,1765218607094,7,-10,-1,0,0,0,0,0
608,1765218607227,8,-11,-2,0,0,0,0,0
609,1765218607628,7,-10,-2,0,0,0,0,0
610,1765218607760,9,-9,0,0,0,0,0,0
611,1765218607944,8,-9,-1,0,0,0,0,0
612,1765218608361,7,-11,-2,0,0,0,0,0
613,1765218608495,6,-11,-2,0,0,0,0,0
614,1765218608677,10,-9,0,0,0,0,0,0
615,1765218608711,8,-11,0,0,0,0,0,0
616,1765218608811,9,-10,0,0,0,0,0,0
617,1765218609044,8,-9,-1,0,0,0,0,0
618,1765218609193,8,-11,-1,0,0,0,0,0
619,1765218609427,9,-11,-1,0,0,0,0,0
620,1765218609527,9,-11,0,0,0,0,0,0
621,1765218609761,7,-10,-1,0,0,0,0,0
622,1765218609976,7,-10,-1,0,0,0,0,0
623,1765218610192,7,-10,-1,0,0,0,0,0
624,1765218610277,9,-9,-2,0,0,0,0,0
625,1765218610494,6,-11,-2,0,0,0,0,0
626,1765218610627,7,-10,-2,0,0,0,0,0
627,1765218610811,8,-11,-1,0,0,0,0,0
628,1765218610943,7,-10,-1,0,0,0,0,0
629,1765218611194,8,-13,0,0,0,0,0,0
630,1765218611327,7,-10,-1,0,0,0,0,0
631,1765218611479,8,-10,-1,0,0,0,0,0
632,1765218611694,8,-11,0,0,0,0,0,0
633,1765218611944,8,-11,-2,0,0,0,0,0
634,1765218612078,7,-8,-1,0,0,0,0,0
635,1765218612294,7,-11,-2,0,0,0,0,0
636,1765218612428,7,-9,-2,0,0,0,0,0
637,1765218612461,6,-11,-1,0,0,0,0,0
638,1765218612677,9,-11,-1,0,0,0,0,0
639,1765218612811,9,-12,-1,0,0,0,0,0
640,1765218613027,7,-9,-1,0,0,0,0,0
641,1765218613194,7,-11,-1,0,0,0,0,0
642,1765218613494,7,-11,-1,0,0,0,0,0
643,1765218613576,8,-10,-1,0,0,0,0,0
644,1765218613794,7,-10,-1,0,0,0,0,0
645,1765218613945,8,-11,-1,0,0,0,0,0
646,1765218614210,8,-10,-1,0,0,0,0,0
647,1765218614294,9,-11,0,0,0,0,0,0
648,1765218614361,8,-11,-1,0,0,0,0,0
649,1765218614493,6,-10,-2,0,0,0,0,0
650,1765218614661,7,-11,0,0,0,0,0,0
651,1765218614844,7,-9,-1,0,0,0,0,0
652,1765218615094,7,-12,-1,0,0,0,0,0
653,1765218615344,9,-9,-1,0,0,0,0,0
654,1765218615411,7,-11,-1,0,0,0,0,0
655,1765218615661,5,-10,-1,0,0,0,0,0
656,1765218615792,7,-10,-1,0,0,0,0,0
657,1765218616044,7,-10,-1,0,0,0,0,0
658,1765218616127,9,-12,-2,0,0,0,0,0
659,1765218616344,15,-11,0,0,0,0,0,0
660,1765218616477,5,-12,-1,0,0,0,0,0
661,1765218616794,11,-9,-2,0,0,0,0,0
662,1765218619642,8,-10,-2,0,0,0,0,0
663,1765218619826,8,-12,-1,0,0,0,0,0
664,1765218619944,8,-9,-1,0,0,0,0,0
665,1765218620160,8,-10,-2,0,0,0,0,0
666,1765218620244,8,-11,-1,0,0,0,0,0
667,1765218620494,7,-10,-1,0,0,0,0,0
668,1765218620561,7,-11,-1,0,0,0,0,0
669,1765218620793,8,-9,-1,0,0,0,0,0
670,1765218620895,8,-11,-2,0,0,0,0,0
671,1765218621027,8,-10,-2,0,0,0,0,0
672,1765218621227,7,-10,-1,0,0,0,0,0
673,1765218621410,9,-9,-2,0,0,0,0,0
674,1765218621510,8,-10,-1,0,0,0,0,0
675,1765218621711,7,-11,254,0,0,0,0,0
676,1765218621960,7,-10,-1,0,0,0,0,0
677,1765218622210,6,-11,-2,0,0,0,0,0
678,1765218622342,8,-11,0,0,0,0,0,0
679,1765218622494,8,-10,-1,0,0,0,0,0
680,1765218622644,9,-10,0,0,0,0,0,0
681,1765218623043,7,-11,-1,0,0,0,0,0
682,1765218623161,8,-11,0,0,0,0,0,0
683,1765218623343,6,-11,-1,0,0,0,0,0
684,1765218623777,8,-11,-1,0,0,0,0,0
685,1765218623877,8,-11,0,0,0,0,0,0
686,1765218624077,7,-10,-1,0,0,0,0,0
687,1765218624211,7,-11,-1,0,0,0,0,0
688,1765218624393,8,-10,-1,0,0,0,0,0
689,1765218624527,8,-10,-1,0,0,0,0,0
690,1765218624744,9,-12,-1,0,0,0,0,0
691,1765218624910,8,-10,-1,0,0,0,0,0
692,1765218625044,8,-10,0,0,0,0,0,0
693,1765218625294,7,-11,-2,0,0,0,0,0
694,1765218625477,6,-9,0,0,0,0,0,0
695,1765218625661,7,-10,-1,0,0,0,0,0
696,1765218625827,8,-10,-2,0,0,0,0,0
697,1765218625960,9,-10,-1,0,0,0,0,0
698,1765218626009,7,-10,-1,0,0,0,0,0
699,1765218626094,9,-12,-1,0,0,0,0,0
700,1765218626377,7,-11,0,0,0,0,0,0
701,1765218626477,9,-11,-2,0,0,0,0,0
702,1765218626810,6,-10,-1,0,0,0,0,0
703,1765218627045,8,-9,-1,0,0,0,0,0
704,1765218627161,7,-10,-1,0,0,0,0,0
705,1765218627293,9,-10,-2,0,0,0,0,0
706,1765218627510,8,-10,0,0,0,0,0,0
707,1765218627593,8,-11,-2,0,0,0,0,0
708,1765218627959,7,-10,-1,0,0,0,0,0
709,1765218628077,8,-9,-1,0,0,0,0,0
710,1765218628277,7,-10,-1,0,0,0,0,0
711,1765218628394,7,-9,-1,0,0,0,0,0
712,1765218628561,9,-12,-1,0,0,0,0,0
713,1765218628795,8,-9,-1,0,0,0,0,0
714,1765218629027,7,-11,-1,0,0,0,0,0
715,1765218629160,9,-11,-2,0,0,0,0,0
716,1765218629276,7,-10,-1,0,0,0,0,0
717,1765218629460,7,-9,-1,0,0,0,0,0
718,1765218629611,9,-10,-1,0,0,0,0,0
719,1765218629894,7,-10,-2,0,0,0,0,0
720,1765218629977,8,-11,-1,0,0,0,0,0
721,1765218630194,10,-11,-2,0,0,0,0,0
722,1765218630277,7,-10,-2,0,0,0,0,0
723,1765218630308,9,-11,-1,0,0,0,0,0
724,1765218630393,7,-9,-1,0,0,0,0,0
725,1765218630677,7,-12,-2,0,0,0,0,0
726,1765218630844,9,-10,-2,0,0,0,0,0
727,1765218631075,6,-11,-1,0,0,0,0,0
728,1765218631192,7,-10,-1,0,0,0,0,0
729,1765218631409,8,-10,0,0,0,0,0,0
730,1765218631575,7,-9,-1,0,0,0,0,0
731,1765218631809,8,-10,-1,0,0,0,0,0
732,1765218631876,8,-11,0,0,0,0,0,0
733,1765218632093,7,-10,-1,0,0,0,0,0
734,1765218632176,7,-12,-1,0,0,0,0,0
735,1765218632309,7,-11,-1,0,0,0,0,0
736,1765218632575,6,-10,0,0,0,0,0,0
737,1765218632692,10,-10,-1,0,0,0,0,0
738,1765218632776,6,-9,-1,0,0,0,0,0
739,1765218632993,6,-9,0,0,0,0,0,0
740,1765218633060,7,-11,0,0,0,0,0,0
741,1765218633312,7,-11,-2,0,0,0,0,0
742,1765218633494,8,-9,-1,0,0,0,0,0
743,1765218633693,9,-11,0,0,0,0,0,0
744,1765218633775,9,-11,-1,0,0,0,0,0
745,1765218633992,10,-11,-1,0,0,0,0,0
746,1765218634260,8,-12,-1,0,0,0,0,0
747,1765218634445,7,-10,-1,0,0,0,0,0
748,1765218634677,7,-11,-1,0,0,0,0,0
749,1765218634777,7,-11,-1,0,0,0,0,0
750,1765218634960,7,-10,-2,0,0,0,0,0
751,1765218635128,8,-10,0,0,0,0,0,0
752,1765218635377,7,-10,0,0,0,0,0,0
753,1765218635459,8,-10,-1,0,0,0,0,0
754,1765218635677,8,-11,0,0,0,0,0,0
755,1765218635861,8,-9,0,0,0,0,0,0
756,1765218636144,6,-11,-3,0,0,0,0,0
757,1765218636226,7,-10,-1,0,0,0,0,0
758,1765218636476,7,-11,-2,0,0,0,0,0
759,1765218636627,7,-10,-1,0,0,0,0,0
760,1765218636760,8,-12,0,0,0,0,0,0
761,1765218636942,8,-9,0,0,0,0,0,0
762,1765218637111,8,-11,0,0,0,0,0,0
763,1765218637326,7,-10,0,0,0,0,0,0
764,1765218637409,9,-12,-2,0,0,0,0,0
765,1765218637677,7,-9,-1,0,0,0,0,0
766,1765218637894,8,-12,0,0,0,0,0,0
767,1765218638111,8,-10,-1,0,0,0,0,0
768,1765218638261,6,-11,-1,0,0,0,0,0
769,1765218638377,8,-10,-1,0,0,0,0,0
770,1765218638561,9,-11,-1,0,0,0,0,0
771,1765218638760,8,-11,-1,0,0,0,0,0
772,1765218638977,9,-10,-2,0,0,0,0,0
773,1765218639045,8,-11,-1,0,0,0,0,0
774,1765218639260,9,-12,-2,0,0,0,0,0
775,1765218639726,9,-12,-2,0,0,0,0,0
776,1765218639795,8,-11,-1,0,0,0,0,0
777,1765218640028,7,-11,-1,0,0,0,0,0
778,1765218640160,8,-10,-2,0,0,0,0,0
779,1765218640343,7,-10,-1,0,0,0,0,0
780,1765218640493,7,-10,-1,0,0,0,0,0
781,1765218640711,7,-11,-1,0,0,0,0,0
782,1765218640877,6,-10,-1,0,0,0,0,0
783,1765218641044,7,-11,-2,0,0,0,0,0
784,1765218641294,8,-11,-1,0,0,0,0,0
785,1765218641527,8,-11,-1,0,0,0,0,0
786,1765218641610,8,-11,-2,0,0,0,0,0
787,1765218641860,5,-10,-1,0,0,0,0,0
788,1765218641994,7,-10,-1,0,0,0,0,0
789,1765218642193,7,-11,-255,0,0,0,0,0
790,1765218642311,9,-11,-1,0,0,0,0,0
791,1765218642526,7,-11,-2,0,0,0,0,0
792,1765218642658,8,-12,-1,0,0,0,0,0
793,1765218642810,8,-11,-1,0,0,0,0,0
794,1765218643043,8,-10,-2,0,0,0,0,0
795,1765218643394,8,-10,-1,0,0,0,0,0
796,1765218643511,7,-11,-2,0,0,0,0,0
797,1765218643727,7,-11,-1,0,0,0,0,0
798,1765218643893,9,-11,-1,0,0,0,0,0
799,1765218644188,7,-11,-2,0,0,0,0,0
800,1765218644225,7,-11,-1,0,0,0,0,0
801,1765218644477,8,-10,-1,0,0,0,0,0
802,1765218644710,8,-11,-2,0,0,0,0,0
803,1765218644877,8,-12,-1,0,0,0,0,0
804,1765218645044,7,-9,-1,0,0,0,0,0
805,1765218645211,7,-11,-1,0,0,0,0,0
806,1765218645310,7,-9,-1,0,0,0,0,0
807,1765218645593,6,-11,-1,0,0,0,0,0
808,1765218645726,8,-11,0,0,0,0,0,0
809,1765218645877,6,-11,0,0,0,0,0,0
810,1765218646009,8,-10,-1,0,0,0,0,0
811,1765218646327,7,-11,-2,0,0,0,0,0
812,1765218646461,7,-9,-1,0,0,0,0,0
813,1765218646660,8,-10,-1,0,0,0,0,0
814,1765218646760,7,-10,-1,0,0,0,0,0
815,1765218647144,9,-11,-3,0,0,0,0,0
816,1765218647344,7,-10,-3,0,0,0,0,0
817,1765218647460,8,-14,-1,0,0,0,0,0
818,1765218647643,8,-13,-1,0,0,0,0,0
819,1765218647844,8,-11,0,0,0,0,0,0
820,1765218648160,9,-11,-1,0,0,0,0,0
821,1765218648293,7,-9,-1,0,0,0,0,0
822,1765218648426,7,-11,0,0,0,0,0,0
823,1765218648576,9,-11,0,0,0,0,0,0
824,1765218648810,8,-10,-1,0,0,0,0,0
825,1765218648992,8,-11,-1,0,0,0,0,0
826,1765218649075,6,-10,-1,0,0,0,0,0
827,1765218649275,9,-11,-2,0,0,0,0,0
828,1765218649693,6,-10,-1,0,0,0,0,0
829,1765218649827,9,-9,-2,0,0,0,0,0
830,1765218650026,6,-13,-2,0,0,0,0,0
831,1765218650160,7,-8,-3,0,0,0,0,0
832,1765218650391,9,-12,-1,0,0,0,0,0
833,1765218650543,8,-12,-1,0,0,0,0,0
834,1765218650760,9,-11,254,0,0,0,0,0
835,1765218650859,8,-11,1,0,0,0,0,0
836,1765218651110,7,-10,0,0,0,0,0,0
837,1765218651343,8,-11,-2,0,0,0,0,0
838,1765218651510,7,-10,0,0,0,0,0,0
839,1765218651592,7,-10,-1,0,0,0,0,0
840,1765218651842,8,-11,254,0,0,0,0,0
841,1765218651927,6,-12,-1,0,0,0,0,0
842,1765218652127,8,-10,-3,0,0,0,0,0
843,1765218652294,10,-11,-4,0,0,0,0,0
844,1765218652525,7,-9,2,0,0,0,0,0
845,1765218652592,7,-12,2,0,0,0,0,0
846,1765218652675,7,-10,0,0,0,0,0,0
847,1765218652776,8,-13,-3,0,0,0,0,0
848,1765218653043,6,-7,-1,0,0,0,0,0
849,1765218653243,6,-12,-2,0,0,0,0,0
850,1765218653427,7,-9,0,0,0,0,0,0
851,1765218653592,11,-11,-2,0,0,0,0,0
852,1765218653759,6,-9,-3,0,0,0,0,0
853,1765218653943,10,-10,-2,0,0,0,0,0
854,1765218654127,7,-11,-1,0,0,0,0,0
855,1765218654291,8,-10,-1,0,0,0,0,0
856,1765218654427,9,-12,-1,0,0,0,0,0
857,1765218654510,5,35,-10,0,0,0,0,0
858,1765218654760,52,26,38,0,0,0,0,0
859,1765218654877,31,25,15,0,0,0,0,0
860,1765218655116,21,37,-31,0,0,0,0,0
861,1765218655243,148,60,-26,0,0,0,0,0
862,1765218655510,20,89,27,0,0,0,0,0
863,1765218655593,-122,13,48,0,0,0,0,0
864,1765218655877,-2,38,21,0,0,0,0,0
865,1765218655977,-4,34,-27,0,0,0,0,0
866,1765218656277,0,49,5,0,0,0,0,0
867,1765218656510,36,-10,-4,0,0,0,0,0
868,1765218656677,-63,-4,-6,0,0,0,0,0
869,1765218656876,74,-9,108,0,0,0,0,0
870,1765218657077,29,7,-27,0,0,0,0,0
871,1765218657344,-7,21,-19,0,0,0,0,0
872,1765218657410,30,-18,19,0,0,0,0,0
873,1765218657626,44,9,9,0,0,0,0,0
874,1765218657711,13,-15,-46,0,0,0,0,0
875,1765218657776,1,-55,5,0,0,0,0,0
876,1765218658094,42,-31,-11,0,0,0,0,0
877,1765218658293,8,-46,18,0,0,0,0,0
878,1765218658458,38,-61,25,0,0,0,0,0
879,1765218658591,4,-90,-22,0,0,0,0,0
880,1765218658776,-13,-45,-25,0,0,0,0,0
881,1765218658993,28,-64,0,0,0,0,0,0
882,1765218659159,62,-86,28,0,0,0,0,0
883,1765218659358,35,-98,-16,0,0,0,0,0
884,1765218659626,-2,-84,-38,0,0,0,0,0
885,1765218659858,23,-61,25,0,0,0,0,0
886,1765218659958,23,-82,-16,0,0,0,0,0
887,1765218660158,-37,-51,20,0,0,0,0,0
888,1765218660574,6,-52,20,0,0,0,0,0
889,1765218660742,44,-63,6,0,0,0,0,0
890,1765218660942,22,-66,7,0,0,0,0,0
891,1765218661143,-46,-52,4,0,0,0,0,0
892,1765218661474,-10,-23,3,0,0,0,0,0
893,1765218662042,-20,1,-19,0,0,0,0,0
894,1765218662175,-33,-12,-4,0,0,0,0,0
895,1765218662375,-7,-21,5,0,0,0,0,0
896,1765218663125,4,-41,34,0,0,0,0,0
897,1765218663209,2,-21,36,0,0,0,0,0
898,1765218663309,15,-19,8,0,0,0,0,0
899,1765218663409,19,-31,-1644,0,0,0,0,0
900,1765218663609,17,-18,-15,0,0,0,0,0
901,1765218663825,23,-35,10,0,0,0,0,0
902,1765218663975,7,-22,6,0,0,0,0,0
903,1765218664077,1,-24,2,0,0,0,0,0
904,1765218664291,22,-23,-1,0,0,0,0,0
905,1765218664808,1,-17,-6,0,0,0,0,0
906,1765218665025,7,-19,-5,0,0,0,0,0
907,1765218665125,12,-8,9,0,0,0,0,0
908,1765218665275,6,-10,-4,0,0,0,0,0
909,1765218665642,3,-12,-2,0,0,0,0,0
910,1765218665792,7,-6,-15,0,0,0,0,0
911,1765218665924,8,-11,-5,0,0,0,0,0
912,1765218666508,8,-10,-2,0,0,0,0,0
913,1765218666675,7,-11,-2,0,0,0,0,0
914,1765218666807,8,-11,-2,0,0,0,0,0
915,1765218667149,8,-9,0,0,0,0,0,0
916,1765218667358,6,-9,0,0,0,0,0,0
917,1765218667426,7,-12,0,0,0,0,0,0
918,1765218668158,7,-21254,9886,0,0,0,0,0
919,1765218668592,4,-10,-3,0,0,0,0,0
920,1765218669224,7,-10,-1,0,0,0,0,0
921,1765218669876,8,-12,-1,0,0,0,0,0
922,1765218670075,7,-10,-2,0,0,0,0,0
923,1765218670191,8,-10,255,0,0,0,0,0
924,1765218670292,6,-10,-2,0,0,0,0,0
925,1765218670591,9,-10,0,0,0,0,0,0
926,1765218671225,9,30711,-1,0,0,0,0,0
927,1765218672477,8,29686,1036,0,0,0,0,0
928,1765218673157,7,29687,-1165,0,0,0,0,0
929,1765218673993,8,-12,-1,0,0,0,0,0
930,1765218675491,7,-9,-2,0,0,0,0,0
931,1765218677959,8,-11,-1,0,0,0,0,0
932,1765218679041,8,-12,-1,0,0,0,0,0
933,1765218679241,8,-11,-1,0,0,0,0,0
934,1765218679475,8,-11,-1,0,0,0,0,0
935,1765218679774,7,-10,-1,0,0,0,0,0
936,1765218680508,7,27638,-8010,0,0,0,0,0
937,1765218680908,7,-10,0,0,0,0,0,0
938,1765218682441,7,32758,128,0,0,0,0,0
939,1765218682624,7,-12299,-20959,0,0,0,0,0
940,1765218682775,7,-11,-1,0,0,0,0,0
941,1765218683008,9,-11,0,0,0,0,0,0
942,1765218683458,9,-12,-1,0,0,0,0,0
943,1765218683575,8,-11,-1,0,0,0,0,0
944,1765218683759,7,-11,-2,0,0,0,0,0
945,1765218684624,2048,-18689,-19538,0,0,0,0,0
946,1765218685909,6,-11,-1,0,0,0,0,0
947,1765218686742,6,-10,-1,0,0,0,0,0
948,1765218690308,6,29686,1923,0,0,0,0,0
949,1765218691859,8,30708,30711,0,0,0,0,0
950,1765218692558,6,5110,-20167,0,0,0,0,0
951,1765218695827,7,-10,0,0,0,0,0,0
952,1765218697477,8,-12,-1,0,0,0,0,0
953,1765218700543,8,-12,-1,0,0,0,0,0
954,1765218703925,7,-2314,-1,0,0,0,0,0
955,1765218705109,7,30709,-1,0,0,0,0,0
956,1765218705709,7,-267,-3916,0,0,0,0,0
957,1765218706360,7,-11,-2,0,0,0,0,0
958,1765218707143,-30162,27325,-7646,0,0,0,0,0
959,1765218707474,8,30710,30719,0,0,0,0,0
960,1765218710742,8,-12554,-20302,0,0,0,0,0
961,1765218713526,-32249,-21122,-19906,0,0,0,0,0
962,1765218714209,143,29686,3909,0,0,0,0,0
963,1765218715658,-8146,-15471,11915,0,0,0,0,0
964,1765218716410,7,30708,-30592,0,0,0,0,0
965,1765218717493,21,25,-5,0,0,0,0,0
966,1765218719258,-1,176,-13,0,0,0,0,0
967,1765218719776,-31507,2497,9743,0,0,0,0,0
968,1765218723343,-20,-298,117,0,0,0,0,0
969,1765218725341,73,-829,151,0,0,0,0,0
970,1765218725942,99,15469,9871,0,0,0,0,0
971,1765218728676,69,-396,9,0,0,0,0,0
972,1765218731143,-240,-6490,1671,0,0,0,0,0
973,1765218731476,-26,460,2,0,0,0,0,0
974,1765218732909,-51,2492,-131,0,0,0,0,0
975,1765218733759,-18,434,-69,0,0,0,0,0
976,1765218735209,33,8637,19801,0,0,0,0,0
977,1765218737725,24,-212,30,0,0,0,0,0
978,1765218737892,-85,-285,-90,0,0,0,0,0
979,1765218741459,81,-19334,17422,0,0,0,0,0
980,1765218742025,-23,-132,-33,0,0,0,0,0
981,1765218742543,47,-421,2141,0,0,0,0,0
982,1765218745058,30661,4330,-29844,0,0,0,0,0
983,1765218745142,13,482,31599,0,0,0,0,0
984,1765218745825,-76,-13272,15682,0,0,0,0,0
985,1765218748591,20,14609,-21767,0,0,0,0,0
986,1765218749125,13,-46,12,0,0,0,0,0
987,1765218749342,34,-56,24,0,0,0,0,0
988,1765218749475,27,-29,16,0,0,0,0,0
989,1765218749692,29,-23,-6,0,0,0,0,0
990,1765218750925,-1,13,3,0,0,0,0,0
991,1765218751224,11,0,-21,0,0,0,0,0
992,1765218751358,2,-10,-5,0,0,0,0,0
993,1765218751574,15,2,-1,0,0,0,0,0
994,1765218751691,8,-4,5,0,0,0,0,0
995,1765218752042,8,-4,6,0,0,0,0,0
996,1765218752326,18,-15,4,0,0,0,0,0
997,1765218752425,4,-9,-1,0,0,0,0,0
998,1765218752559,3,-7,-2,0,0,0,0,0
999,1765218752776,11,-12,-1,0,0,0,0,0
1000,1765218752892,5,-10,-1,0,0,0,0,0
1001,1765218753092,9,-9,0,0,0,0,0,0
1002,1765218753224,5,-9,0,0,0,0,0,0
1003,1765218753441,9,-10,0,0,0,0,0,0
1004,1765218753508,6,-10,-1,0,0,0,0,0
1005,1765218753958,8,-9,-1,0,0,0,0,0
1006,1765218754192,6,-10,-1,0,0,0,0,0
1007,1765218754276,9,-10,-1,0,0,0,0,0
1008,1765218754623,5,-9,0,0,0,0,0,0
1009,1765218754842,8,-10,-2,0,0,0,0,0
1010,1765218754958,6,-9,-1,0,0,0,0,0
1011,1765218755043,6,-11,-1,0,0,0,0,0
1012,1765218755324,7,-11,0,0,0,0,0,0
1013,1765218756175,5,-9,-32760,0,0,0,0,0
1014,1765218756925,6,-9,0,0,0,0,0,0
1015,1765218757042,5,-12,0,0,0,0,0,0
1016,1765218757824,5,-10,-1,0,0,0,0,0
1017,1765218759127,6,-9,-1,0,0,0,0,0
1018,1765218759258,7,-10,-1,0,0,0,0,0
1019,1765218759541,7,-9,1,0,0,0,0,0
1020,1765218759724,6,-9,-1,0,0,0,0,0
1021,1765218759875,7,-10,-1,0,0,0,0,0
1022,1765218760058,8,-10,-1,0,0,0,0,0
1023,1765218760242,7,-8,0,0,0,0,0,0
1024,1765218760391,7,-10,-1,0,0,0,0,0
1025,1765218760609,6,-9,0,0,0,0,0,0
1026,1765218760824,6,-12,0,0,0,0,0,0
1027,1765218760959,8,-10,-137,0,0,0,0,0
1028,1765218761142,-30162,27197,-8010,0,0,0,0,0
1029,1765218761259,4,-24585,20560,0,0,0,0,0
1030,1765218761659,7,-10,0,0,0,0,0,0
1031,1765218761758,6,-9,0,0,0,0,0,0
1032,1765218761957,7,-10,0,0,0,0,0,0
1033,1765218762408,7,-12,-1,0,0,0,0,0
1034,1765218762557,5,-10,0,0,0,0,0,0
1035,1765218762692,7,-11,-2,0,0,0,0,0
1036,1765218762842,6,-11,-1,0,0,0,0,0
1037,1765218763025,7,-10,-1,0,0,0,0,0
1038,1765218763159,8,-10,-1,0,0,0,0,0
1039,1765218763308,7,-10,-1,0,0,0,0,0
1040,1765218763642,6,-10,-1,0,0,0,0,0
1041,1765218763825,9,-10,-2,0,0,0,0,0
1042,1765218764958,10,-10,-1,0,0,0,0,0
1043,1765218765041,8,-12,1,0,0,0,0,0
1044,1765218765158,7,-9,-1,0,0,0,0,0
1045,1765218765373,2,-10,-1,0,0,0,0,0
1046,1765218765457,4,-9,-1,0,0,0,0,0
1047,1765218765892,9,-12,-2,0,0,0,0,0
1048,1765218766324,7,-10,0,0,0,0,0,0
1049,1765218766491,6,-9,-1,0,0,0,0,0
1050,1765218766657,8,-11,-1,0,0,0,0,0
1051,1765218768724,7,-10,0,0,0,0,0,0
1052,1765218768757,9,-10,0,0,0,0,0,0
1053,1765218770091,5,-10,0,0,0,0,0,0
1054,1765218770491,6,-12,-2,0,0,0,0,0
1055,1765218770891,7,-9,-1,0,0,0,0,0
1056,1765218787558,3,-10,0,0,0,0,0,0
1057,1765218787741,9,-10,0,0,0,0,0,0
1058,1765218790842,7,-9,-1,0,0,0,0,0
1059,1765218791141,7,-9,-1,0,0,0,0,0
1060,1765218791590,7,-10,-1,0,0,0,0,0
1061,1765218791724,8,-9,-1,0,0,0,0,0
1062,1765218791891,6,-24586,-21816,0,0,0,0,0
1063,1765218792274,8,-9,0,0,0,0,0,0
1064,1765218793074,6,-9,-3,0,0,0,0,0
1065,1765218793275,6,-10,-1,0,0,0,0,0
1066,1765218794175,7,-10,-2,0,0,0,0,0
1067,1765218794258,8,-9,-1,0,0,0,0,0
1068,1765218794458,6,-10,-2,0,0,0,0,0
1069,1765218795025,8,-9,-1,0,0,0,0,0
1070,1765218795041,7,14837,-21655,0,0,0,0,0
1071,1765218796140,8,-266,-137,0,0,0,0,0
1072,1765218796924,9,-10,2,0,0,0,0,0
1073,1765218797491,5,-9,0,0,0,0,0,0
1074,1765218797625,7,-9,-1,0,0,0,0,0
1075,1765218797741,6,-11,-1,0,0,0,0,0
1076,1765218797924,7,-11,-1,0,0,0,0,0
1077,1765218798357,8,-10,-1,0,0,0,0,0
1078,1765218798442,9,-10,-1,0,0,0,0,0
1079,1765218798642,7,-11,-1,0,0,0,0,0
1080,1765218798774,5,-10,0,0,0,0,0,0
1081,1765218798925,8,-10,-1,0,0,0,0,0
1082,1765218799108,8,-11,-1,0,0,0,0,0
1083,1765218799341,5,-10,0,0,0,0,0,0
1084,1765218799492,7,-10,-256,0,0,0,0,0
1085,1765218799608,5,-12,0,0,0,0,0,0
1086,1765218799857,6,-10,-2,0,0,0,0,0
1087,1765218800041,2,-6,253,0,0,0,0,0
1088,1765218800241,4,-11,0,0,0,0,0,0
1089,1765218800391,6,-8,-2,0,0,0,0,0
1090,1765218800541,7,-11,-2,0,0,0,0,0
1091,1765218801025,8,-8,0,0,0,0,0,0
1092,1765218801224,9,-11,255,0,0,0,0,0
1093,1765218801341,8,-11,-1,0,0,0,0,0
1094,1765218801656,6,-13,3,0,0,0,0,0
1095,1765218801724,7,-14,-1,0,0,0,0,0
1096,1765218801908,8,-9,-2,0,0,0,0,0
1097,1765218802075,5,-11,-1,0,0,0,0,0
1098,1765218802241,9,-10,0,0,0,0,0,0
1099,1765218802408,3,-8,-2,0,0,0,0,0
1100,1765218802558,8,-12,-1,0,0,0,0,0
1101,1765218802791,4,-7,1,0,0,0,0,0
1102,1765218802908,7,-9,-2,0,0,0,0,0
1103,1765218803358,7,-10,0,0,0,0,0,0
1104,1765218803541,7,-10,-1,0,0,0,0,0
1105,1765218803692,7,-10,0,0,0,0,0,0
1106,1765218803842,6,-9,-1,0,0,0,0,0
1107,1765218803958,5,-11,-2,0,0,0,0,0
1108,1765218804225,8,-10,-2,0,0,0,0,0
1109,1765218804291,6,-11,0,0,0,0,0,0
1110,1765218804458,8,-10,0,0,0,0,0,0
1111,1765218804657,5,-9,0,0,0,0,0,0
1112,1765218804775,8,-9,-2,0,0,0,0,0
1113,1765218805141,8,-11,-2,0,0,0,0,0
1114,1765218805375,6,-10,-1,0,0,0,0,0
1115,1765218805458,8,-11,-1,0,0,0,0,0
1116,1765218805824,6,-10,-1,0,0,0,0,0
1117,1765218806041,7,-10,-1,0,0,0,0,0
1118,1765218806124,6,-10,-1,0,0,0,0,0
1119,1765218806491,9,-12,0,0,0,0,0,0
1120,1765218806774,8,-12,-2,0,0,0,0,0
1121,1765218806858,6,-11,-1,0,0,0,0,0
1122,1765218806925,6,-13,-1,0,0,0,0,0
1123,1765218807054,9,-10,-1,0,0,0,0,0
1124,1765218807224,5,-10,-1,0,0,0,0,0
1125,1765218807308,8,-10,0,0,0,0,0,0
1126,1765218807675,3,-7,-3,0,0,0,0,0
1127,1765218807841,11,-9,-2,0,0,0,0,0
1128,1765218807975,5,-11,1,0,0,0,0,0
1129,1765218808409,6,-10,-2,0,0,0,0,0
1130,1765218808558,5,-10,0,0,0,0,0,0
1131,1765218808708,8,-9,0,0,0,0,0,0
1132,1765218808758,8,-10,0,0,0,0,0,0
1133,1765218808841,7,-10,0,0,0,0,0,0
1134,1765218809075,8,-10,-2,0,0,0,0,0
1135,1765218809208,6,-9,1,0,0,0,0,0
1136,1765218809541,5,-8,0,0,0,0,0,0
1137,1765218809708,6,-9,0,0,0,0,0,0
1138,1765218809842,6,-11,0,0,0,0,0,0
1139,1765218810274,5,-11,-2,0,0,0,0,0
1140,1765218810424,5,-7,-1,0,0,0,0,0
1141,1765218810575,6,-10,-2,0,0,0,0,0
1142,1765218810708,7,-9,-1,0,0,0,0,0
1143,1765218810941,6,-11,-1,0,0,0,0,0
1144,1765218811024,7,-9,-1,0,0,0,0,0
1145,1765218811258,7,-11,-1,0,0,0,0,0
1146,1765218811391,7,-12,-1,0,0,0,0,0
1147,1765218811458,7,-12,-1,0,0,0,0,0
1148,1765218811758,6,-11,-2,0,0,0,0,0
1149,1765218812074,7,-9,-1,0,0,0,0,0
1150,1765218812175,7,-11,0,0,0,0,0,0
1151,1765218812391,6,-10,-2,0,0,0,0,0
1152,1765218812608,7,-9,-1,0,0,0,0,0
1153,1765218812858,9,-10,-1,0,0,0,0,0
1154,1765218812940,5,-11,255,0,0,0,0,0
1155,1765218813241,7,-11,-1,0,0,0,0,0
1156,1765218813342,7,-12,0,0,0,0,0,0
1157,1765218813657,7,-10,-1,0,0,0,0,0
1158,1765218813791,7,-10,0,0,0,0,0,0
1159,1765218813875,7,-10,-1,0,0,0,0,0
1160,1765218814074,6,-9,-1,0,0,0,0,0
1161,1765218814192,6,-8,0,0,0,0,0,0
1162,1765218814524,6,-10,0,0,0,0,0,0
1163,1765218814674,8,-11,1,0,0,0,0,0
1164,1765218814808,6,-10,-1,0,0,0,0,0
1165,1765218814924,6,-10,-1,0,0,0,0,0
1166,1765218814991,6,-10,-1,0,0,0,0,0
1167,1765218815208,7,-10,-1,0,0,0,0,0
1168,1765218815441,7,-12,-1,0,0,0,0,0
1169,1765218815658,7,-10,-1,0,0,0,0,0
1170,1765218815940,8,-10,-2,0,0,0,0,0
1171,1765218816141,7,-10,-1,0,0,0,0,0
1172,1765218816225,9,-10,-1,0,0,0,0,0
1173,1765218816475,7,-10,-1,0,0,0,0,0
1174,1765218816741,8,-10,-1,0,0,0,0,0
1175,1765218816941,6,-11,-2,0,0,0,0,0
1176,1765218817007,7,-10,-2,0,0,0,0,0
1177,1765218817308,7,-10,-1,0,0,0,0,0
1178,1765218817475,8,-10,-1,0,0,0,0,0
1179,1765218817657,5,-10,0,0,0,0,0,0
1180,1765218817774,8,-10,-1,0,0,0,0,0
1181,1765218817924,6,-9,0,0,0,0,0,0
1182,1765218818141,6,-10,-2,0,0,0,0,0
1183,1765218818291,7,-10,-2,0,0,0,0,0
1184,1765218818458,6,-10,-1,0,0,0,0,0
1185,1765218818657,6,-11,-1,0,0,0,0,0
1186,1765218818774,5,-12,-2,0,0,0,0,0
1187,1765218818958,8,-12,1,0,0,0,0,0
1188,1765218819425,7,-10,-2,0,0,0,0,0
1189,1765218819491,8,-10,0,0,0,0,0,0
1190,1765218819691,7,-11,-1,0,0,0,0,0
1191,1765218819891,8,-10,-1,0,0,0,0,0
1192,1765218820007,6,-11,-1,0,0,0,0,0
1193,1765218820208,5,-10,-1,0,0,0,0,0
1194,1765218820508,7,-9,-2,0,0,0,0,0
1195,1765218820791,7,-11,0,0,0,0,0,0
1196,1765218820992,6,-10,0,0,0,0,0,0
1197,1765218821209,6,-10,-1,0,0,0,0,0
1198,1765218821408,8,-10,-2,0,0,0,0,0
1199,1765218821491,6,-10,-1,0,0,0,0,0
1200,1765218821591,9,-11,-1,0,0,0,0,0
1201,1765218821724,8,-10,-1,0,0,0,0,0
1202,1765218821874,8,-11,-1,0,0,0,0,0
1203,1765218822041,5,-10,0,0,0,0,0,0
1204,1765218822258,11,-13,1,0,0,0,0,0
1205,1765218822358,6,-11,0,0,0,0,0,0
1206,1765218822541,7,-11,-1,0,0,0,0,0
1207,1765218822657,8,-10,-2,0,0,0,0,0
1208,1765218822741,8,-12,-2,0,0,0,0,0
1209,1765218822825,8,-11,-1,0,0,0,0,0
1210,1765218823124,8,-12,-1,0,0,0,0,0
1211,1765218823208,6,-10,-2,0,0,0,0,0
1212,1765218823491,9,-10,-3,0,0,0,0,0
1213,1765218823590,6,-9,1,0,0,0,0,0
1214,1765218823858,8,-11,1,0,0,0,0,0
1215,1765218823908,7,-9,-2,0,0,0,0,0
1216,1765218824058,6,-8,0,0,0,0,0,0
1217,1765218824291,6,-11,-4,0,0,0,0,0
1218,1765218824375,7,-10,-1,0,0,0,0,0
1219,1765218824807,6,-13,0,0,0,0,0,0
1220,1765218825024,9,-12,0,0,0,0,0,0
1221,1765218825157,9,-8,-1,0,0,0,0,0
1222,1765218825325,5,-13,-2,0,0,0,0,0
1223,1765218825458,7,-8,-1,0,0,0,0,0
1224,1765218825724,5,-12,0,0,0,0,0,0
1225,1765218825791,12,-13,-1,0,0,0,0,0
1226,1765218825874,5,-10,-2,0,0,0,0,0
1227,1765218825941,9,-9,2,0,0,0,0,0
1228,1765218826158,13,-9,0,0,0,0,0,0
1229,1765218826441,1,-9,-1,0,0,0,0,0
1230,1765218826608,4,-10,0,0,0,0,0,0
1231,1765218826675,7,-11,-2,0,0,0,0,0
1232,1765218826891,8,-9,0,0,0,0,0,0
1233,1765218826991,5,-10,0,0,0,0,0,0
1234,1765218827141,8,-9,-2,0,0,0,0,0
1235,1765218827558,8,-9,-1,0,0,0,0,0
1236,1765218827658,7,-10,-1,0,0,0,0,0
1237,1765218827724,8,-12,-2,0,0,0,0,0
1238,1765218827791,5,-9,-1,0,0,0,0,0
1239,1765218828258,6,30709,0,0,0,0,0,0
1240,1765218828424,8,-9,-1,0,0,0,0,0
1241,1765218828524,8,-10,0,0,0,0,0,0
1242,1765218828758,7,-10,0,0,0,0,0,0
1243,1765218828858,7,-11,-2,0,0,0,0,0
1244,1765218829208,9,-11,-1,0,0,0,0,0
1245,1765218829358,6,-11,0,0,0,0,0,0
1246,1765218829641,8,-10,0,0,0,0,0,0
1247,1765218829940,4,-9,1,0,0,0,0,0
1248,1765218830090,7,-9,-2,0,0,0,0,0
1249,1765218830378,7,-10,-2,0,0,0,0,0
1250,1765218830524,6,-11,-1,0,0,0,0,0
1251,1765218830691,6,-9,0,0,0,0,0,0
1252,1765218830824,7,-12,-1,0,0,0,0,0
1253,1765218831057,8,-10,0,0,0,0,0,0
1254,1765218831141,6,-11,0,0,0,0,0,0
1255,1765218831374,9,-9,-2,0,0,0,0,0
1256,1765218831491,6,-11,-1,0,0,0,0,0
1257,1765218831808,6,-9,-1,0,0,0,0,0
1258,1765218831908,9,-12,-1,0,0,0,0,0
1259,1765218832225,4,-10,-1,0,0,0,0,0
1260,1765218832441,4,-10,-1,0,0,0,0,0
1261,1765218832557,8,-9,-2,0,0,0,0,0
1262,1765218832691,6,-12,-2,0,0,0,0,0
1263,1765218832925,7,-10,-2,0,0,0,0,0
1264,1765218832991,8,-12,-1,0,0,0,0,0
1265,1765218833424,7,-11,0,0,0,0,0,0
1266,1765218833625,7,-11,-2,0,0,0,0,0
1267,1765218833725,9,-11,0,0,0,0,0,0
1268,1765218834124,6,-10,-1,0,0,0,0,0
1269,1765218834291,6,-10,-1,0,0,0,0,0
1270,1765218834424,6,-9,-1,0,0,0,0,0
1271,1765218834558,9,-55,0,0,0,0,0,0
1272,1765218835057,7,-8,-2,0,0,0,0,0
1273,1765218835491,5,-11,-2,0,0,0,0,0
1274,1765218835576,5,-11,-1,0,0,0,0,0
1275,1765218836691,6,-10,0,0,0,0,0,0
1276,1765218836988,6,-11,1,0,0,0,0,0
1277,1765218837041,5,-10,0,0,0,0,0,0
1278,1765218837457,6,-11,-1,0,0,0,0,0
1279,1765218837674,7,-11,0,0,0,0,0,0
1280,1765218837841,7,-11,-1,0,0,0,0,0
1281,1765218838156,8,-10,0,0,0,0,0,0
1282,1765218838724,7,-11,-1,0,0,0,0,0
1283,1765218839673,6,-9,-1,0,0,0,0,0
1284,1765218839807,7,-9,2048,0,0,0,0,0
1285,1765218840241,8,-11,-1,0,0,0,0,0
1286,1765218840424,6,-10,-1,0,0,0,0,0
1287,1765218840573,7,-9,-1,0,0,0,0,0
1288,1765218840758,6,-11,-2,0,0,0,0,0
1289,1765218840774,6,-10,-3,0,0,0,0,0
1290,1765218840908,8,-9,-256,0,0,0,0,0
1291,1765218841141,6,-10,-1,0,0,0,0,0
1292,1765218841241,7,-10,0,0,0,0,0,0
1293,1765218841391,6,-10,-1,0,0,0,0,0
1294,1765218841576,8,-10,0,0,0,0,0,0
1295,1765218841858,8,-10,-2,0,0,0,0,0
1296,1765218841941,6,-11,-1,0,0,0,0,0
1297,1765218842007,6,-10,-1,0,0,0,0,0
1298,1765218842091,5,-10,-2,0,0,0,0,0
1299,1765218842307,6,-8,-1,0,0,0,0,0
1300,1765218842407,8,-11,-1,0,0,0,0,0
1301,1765218842791,8,-11,-2,0,0,0,0,0
1302,1765218842941,7,-23050,5647,0,0,0,0,0
1303,1765218843074,6,-10,0,0,0,0,0,0
1304,1765218843675,7,-10,-1,0,0,0,0,0
1305,1765218843841,8,-10,0,0,0,0,0,0
1306,1765218843957,5,-10,-1,0,0,0,0,0
1307,1765218844174,7,-11,-1,0,0,0,0,0
1308,1765218844658,7,-9,-1,0,0,0,0,0
1309,1765218844791,6,-10,0,0,0,0,0,0
1310,1765218844941,7,-10,-2,0,0,0,0,0
1311,1765218845391,4,-9,-2,0,0,0,0,0
1312,1765218845674,6,-9,255,0,0,0,0,0
1313,1765218845790,7,-10,0,0,0,0,0,0
1314,1765218845924,6,-10,-2,0,0,0,0,0
1315,1765218846141,5,-10,-3,0,0,0,0,0
1316,1765218846408,8,-11,-1,0,0,0,0,0
1317,1765218846557,7,-9,-1,0,0,0,0,0
1318,1765218846724,4,-10,0,0,0,0,0,0
1319,1765218847007,7,-10,-1,0,0,0,0,0
1320,1765218847290,16456,24569,16217,0,0,0,0,0
1321,1765218847874,6,-11,0,0,0,0,0,0
1322,1765218848041,5,-11,-1,0,0,0,0,0
1323,1765218848174,7,-9,-2,0,0,0,0,0
1324,1765218848691,6,-10,-2,0,0,0,0,0
1325,1765218848957,12,-8,0,0,0,0,0,0
1326,1765218849141,0,-11,-1,0,0,0,0,0
1327,1765218849241,8,-10,-1,0,0,0,0,0
1328,1765218849524,6,-8,-2,0,0,0,0,0
1329,1765218849708,7,-11,-1,0,0,0,0,0
1330,1765218849874,7,-11,0,0,0,0,0,0
1331,1765218850189,5,-9,-1,0,0,0,0,0
1332,1765218850407,10,-8,-2050,0,0,0,0,0
1333,1765218850857,7,-10,-2,0,0,0,0,0
1334,1765218851324,7,-10,21862,0,0,0,0,0
1335,1765218851440,6,-9,-1,0,0,0,0,0
1336,1765218851657,7,-10,0,0,0,0,0,0
1337,1765218851824,8,-9,0,0,0,0,0,0
1338,1765218852108,8,-9,-1,0,0,0,0,0
1339,1765218852491,7,-11,-3,0,0,0,0,0
1340,1765218852707,7,-9,-4,0,0,0,0,0
1341,1765218853207,7,15349,16383,0,0,0,0,0
1342,1765218854041,6,-9,-1,0,0,0,0,0
1343,1765218854141,7,-10,-1,0,0,0,0,0
1344,1765218854240,7,-8,-1,0,0,0,0,0
1345,1765218854307,7,-11,-1,0,0,0,0,0
1346,1765218854607,6,-8,-2,0,0,0,0,0
1347,1765218854707,9,-14,1,0,0,0,0,0
1348,1765218854790,4,-13,0,0,0,0,0,0
1349,1765218854958,9,-8,-1,0,0,0,0,0
1350,1765218855074,4,-10,-1,0,0,0,0,0
1351,1765218855440,5,-12,0,0,0,0,0,0
1352,1765218855590,8,-11,-1,0,0,0,0,0
1353,1765218855791,6,-24588,-22424,0,0,0,0,0
1354,1765218855874,7,-8,-4,0,0,0,0,0
1355,1765218856007,7,-10,-1,0,0,0,0,0
1356,1765218856107,6,-10,0,0,0,0,0,0
1357,1765218856291,7,-10,-1,0,0,0,0,0
1358,1765218856524,6,-10,-256,0,0,0,0,0
1359,1765218856841,6,-9,-2,0,0,0,0,0
1360,1765218857040,8,-11,-1,0,0,0,0,0
1361,1765218857224,6,-11,-2,0,0,0,0,0
1362,1765218857290,6,-10,-1,0,0,0,0,0
1363,1765218857607,6,-10,-3,0,0,0,0,0
1364,1765218857824,7,-9,-1,0,0,0,0,0
1365,1765218858006,6,-11,-1,0,0,0,0,0
1366,1765218858491,7,-9,-1,0,0,0,0,0
1367,1765218858740,7,-11,0,0,0,0,0,0
1368,1765218858824,8,-10,-1,0,0,0,0,0
1369,1765218859158,7,-9,-1,0,0,0,0,0
1370,1765218859357,8,-11,-1,0,0,0,0,0
1371,1765218859507,6,-10,-1,0,0,0,0,0
1372,1765218859641,7,-10,-1,0,0,0,0,0
1373,1765218859873,6,-11,-256,0,0,0,0,0
1374,1765218860107,7,-10,-1,0,0,0,0,0
1375,1765218860273,7,-9,-1,0,0,0,0,0
1376,1765218860391,6,-10,-1,0,0,0,0,0
1377,1765218860590,6,-11,-2,0,0,0,0,0
1378,1765218860691,8,-9,-1,0,0,0,0,0
1379,1765218861074,7,-11,-1,0,0,0,0,0
1380,1765218861224,6,-11,-1,0,0,0,0,0
1381,1765218861374,9,-11,-1,0,0,0,0,0
1382,1765218861491,6,-11,-1,0,0,0,0,0
1383,1765218861641,6,-10,-2,0,0,0,0,0
1384,1765218861857,6,-10,-2,0,0,0,0,0
1385,1765218862224,7,-8,-2,0,0,0,0,0
1386,1765218862374,6,-9,0,0,0,0,0,0
1387,1765218862557,9,-9,0,0,0,0,0,0
1388,1765218862941,6,-10,-1,0,0,0,0,0
1389,1765218863005,7,-10,-1,0,0,0,0,0
1390,1765218863240,6,-10,0,0,0,0,0,0
1391,1765218863374,6,-10,-2,0,0,0,0,0
1392,1765218863641,7,-11,0,0,0,0,0,0
1393,1765218863740,7,-10,0,0,0,0,0,0
1394,1765218863939,6,-11,-1,0,0,0,0,0
1395,1765218864091,7,-10,0,0,0,0,0,0
1396,1765218864157,6,-11,0,0,0,0,0,0
1397,1765218864408,7,-11,0,0,0,0,0,0
1398,1765218864507,6,-11,-1,0,0,0,0,0
1399,1765218864691,7,-11,-1,0,0,0,0,0
1400,1765218864841,7,-10,0,0,0,0,0,0
1401,1765218865024,6,-10,-1,0,0,0,0,0
1402,1765218865441,8,-10,0,0,0,0,0,0
1403,1765218865590,7,-10,-2,0,0,0,0,0
1404,1765218865757,6,-11,-1,0,0,0,0,0
1405,1765218865924,5,-10,-1,0,0,0,0,0
1406,1765218866024,7,-10,-2,0,0,0,0,0
1407,1765218866274,7,-11,-2,0,0,0,0,0
1408,1765218866374,7,-10,-2,0,0,0,0,0
1409,1765218866572,9,-10,-1,0,0,0,0,0
1410,1765218866724,5,-9,-1,0,0,0,0,0
1411,1765218867024,7,-10,-2,0,0,0,0,0
1412,1765218867157,5,-11,-1,0,0,0,0,0
1413,1765218867274,6,-9,-2,0,0,0,0,0
1414,1765218867457,7,-10,-1,0,0,0,0,0
1415,1765218867607,7,-10,-1,0,0,0,0,0
1416,1765218867774,7,-10,-1,0,0,0,0,0
1417,1765218867907,6,-10,0,0,0,0,0,0
1418,1765218868157,5,-10,0,0,0,0,0,0
1419,1765218868207,5,-11,0,0,0,0,0,0
1420,1765218868424,7,-9,-2,0,0,0,0,0
1421,1765218868657,8,-12,-1,0,0,0,0,0
1422,1765218868891,6,-10,0,0,0,0,0,0
1423,1765218869024,6,-11,-1,0,0,0,0,0
1424,1765218869174,7,-10,-1,0,0,0,0,0
1425,1765218869323,5,-10,-2,0,0,0,0,0
1426,1765218869723,7,-10,-1,0,0,0,0,0
1427,1765218869773,8,-9,-2,0,0,0,0,0
1428,1765218870025,9,-8,-1,0,0,0,0,0
1429,1765218870107,6,-11,0,0,0,0,0,0
1430,1765218870391,8,-10,-1,0,0,0,0,0
1431,1765218870524,6,-10,0,0,0,0,0,0
1432,1765218870757,8,-8,0,0,0,0,0,0
1433,1765218870890,7,-11,0,0,0,0,0,0
1434,1765218870990,6,-10,0,0,0,0,0,0
1435,1765218871223,8,-11,-1,0,0,0,0,0
1436,1765218871373,6,-8,-1,0,0,0,0,0
1437,1765218871572,5,-10,-2,0,0,0,0,0
1438,1765218871657,6,-9,-1,0,0,0,0,0
1439,1765218871890,5,-10,-2,0,0,0,0,0
1440,1765218872322,8,-11,0,0,0,0,0,0
1441,1765218872388,5,-10,-1,0,0,0,0,0
1442,1765218872624,6,-9,-2,0,0,0,0,0
1443,1765218872739,7,-10,-2,0,0,0,0,0
1444,1765218872924,6,-10,-1,0,0,0,0,0
1445,1765218873076,8,-12,-1,0,0,0,0,0
1446,1765218873272,5,-10,-2,0,0,0,0,0
1447,1765218873408,7,-11,-2,0,0,0,0,0
1448,1765218873491,5,-10,-1,0,0,0,0,0
1449,1765218873807,5,-11,0,0,0,0,0,0
1450,1765218873924,7,-11,0,0,0,0,0,0
1451,1765218874143,6,-9,-1,0,0,0,0,0
1452,1765218874224,6,-11,0,0,0,0,0,0
1453,1765218874457,7,-10,0,0,0,0,0,0
1454,1765218874590,6,-11,-1,0,0,0,0,0
1455,1765218874757,8,-10,0,0,0,0,0,0
1456,1765218874924,7,-11,0,0,0,0,0,0
1457,1765218875124,7,-12,-1,0,0,0,0,0
1458,1765218875306,6,-9,-1,0,0,0,0,0
1459,1765218875557,7,-9,0,0,0,0,0,0
1460,1765218875673,7,-10,-2,0,0,0,0,0
1461,1765218875807,7,-9,-1,0,0,0,0,0
1462,1765218876042,5,-10,-1,0,0,0,0,0
1463,1765218876107,6,-10,-1,0,0,0,0,0
1464,1765218876357,7,-9,-1,0,0,0,0,0
1465,1765218876491,5,-9,0,0,0,0,0,0
1466,1765218876607,7,-8,-2,0,0,0,0,0
1467,1765218876789,6,-10,0,0,0,0,0,0
1468,1765218877074,6,-9,-1,0,0,0,0,0
1469,1765218877257,7,-11,0,0,0,0,0,0
1470,1765218877506,6,-10,-2,0,0,0,0,0
1471,1765218877624,6,-9,-2,0,0,0,0,0
1472,1765218877806,7,-10,-1,0,0,0,0,0
1473,1765218877973,6,-9,-1,0,0,0,0,0
1474,1765218878190,6,-9,0,0,0,0,0,0
1475,1765218878340,8,-9,-1,0,0,0,0,0
1476,1765218878440,6,-11,0,0,0,0,0,0
1477,1765218878640,6,-10,0,0,0,0,0,0
1478,1765218879074,7,-8,0,0,0,0,0,0
1479,1765218879140,7,-11,-1,0,0,0,0,0
1480,1765218879374,8,-11,-1,0,0,0,0,0
1481,1765218879474,6,-10,-1,0,0,0,0,0
1482,1765218879641,6,-9,-1,0,0,0,0,0
1483,1765218879824,6,-8,-1,0,0,0,0,0
1484,1765218880024,7,-10,-1,0,0,0,0,0
1485,1765218880123,8,-9,0,0,0,0,0,0
1486,1765218880157,5,-9,-1,0,0,0,0,0
1487,1765218880257,6,-10,0,0,0,0,0,0
1488,1765218880557,7,-11,-1,0,0,0,0,0
1489,1765218880723,6,-11,0,0,0,0,0,0
1490,1765218880890,8,-11,-1,0,0,0,0,0
1491,1765218880988,6,-11,-1,0,0,0,0,0
1492,1765218881224,7,-10,0,0,0,0,0,0
1493,1765218881323,5,-10,0,0,0,0,0,0
1494,1765218881372,6,-10,-1,0,0,0,0,0
1495,1765218881507,6,-11,-2,0,0,0,0,0
1496,1765218881707,6,-9,-1,0,0,0,0,0
1497,1765218881791,7,-10,0,0,0,0,0,0
1498,1765218882123,7,-9,-1,0,0,0,0,0
1499,1765218882374,8,-12,0,0,0,0,0,0
1500,1765218882507,10,-10,-1,0,0,0,0,0
1501,1765218882623,7,-10,0,0,0,0,0,0
1502,1765218882790,7,-11,-2,0,0,0,0,0
1503,1765218882924,9,-10,0,0,0,0,0,0
1504,1765218883158,6,-10,1,0,0,0,0,0
1505,1765218883223,5,-10,0,0,0,0,0,0
1506,1765218883390,7,-10,-1,0,0,0,0,0
1507,1765218883605,9,-10,0,0,0,0,0,0
1508,1765218883672,8,-10,0,0,0,0,0,0
1509,1765218884006,5,-10,-1,0,0,0,0,0
1510,1765218884206,8,-9,-2,0,0,0,0,0
1511,1765218884405,7,-10,-2,0,0,0,0,0
1512,1765218884457,8,-10,-1,0,0,0,0,0
1513,1765218884556,5,-10,0,0,0,0,0,0
1514,1765218884756,7,-11,-1,0,0,0,0,0
1515,1765218884857,5,-9,-2,0,0,0,0,0
1516,1765218885291,6,-11,-1,0,0,0,0,0
1517,1765218885374,7,-11,0,0,0,0,0,0
1518,1765218885572,7,-11,-1,0,0,0,0,0
1519,1765218885740,11,-12,-1,0,0,0,0,0
1520,1765218886006,2,-10,-4,0,0,0,0,0
1521,1765218886107,9,-10,-2,0,0,0,0,0
1522,1765218886224,4,-10,-1,0,0,0,0,0
1523,1765218886340,6,-10,0,0,0,0,0,0
1524,1765218886506,6,-10,-2,0,0,0,0,0
1525,1765218886638,8,-11,-1,0,0,0,0,0
1526,1765218886823,8,-9,-1,0,0,0,0,0
1527,1765218886889,8,-9,-1,0,0,0,0,0
1528,1765218887006,6,-10,-3,0,0,0,0,0
1529,1765218887224,6,-10,-1,0,0,0,0,0
1530,1765218887306,8,-10,0,0,0,0,0,0
1531,1765218887558,7,-9,-1,0,0,0,0,0
1532,1765218887740,6,-11,-1,0,0,0,0,0
1533,1765218887988,8,-11,-2,0,0,0,0,0
1534,1765218888173,7,-10,-1,0,0,0,0,0
1535,1765218888403,7,-10,-1,0,0,0,0,0
1536,1765218888473,7,-11,-1,0,0,0,0,0
1537,1765218888655,7,-10,-1,0,0,0,0,0
1538,1765218888908,5,-10,-2,0,0,0,0,0
1539,1765218888974,7,-11,-1,0,0,0,0,0
1540,1765218889191,7,-12,0,0,0,0,0,0
1541,1765218889357,7,-9,-2,0,0,0,0,0
1542,1765218889539,7,-10,0,0,0,0,0,0
1543,1765218889740,7,-10,0,0,0,0,0,0
1544,1765218889857,8,-9,-2,0,0,0,0,0
1545,1765218890006,5,-12,0,0,0,0,0,0
1546,1765218890157,6,-9,0,0,0,0,0,0
1547,1765218890274,5,-10,0,0,0,0,0,0
1548,1765218890457,7,-10,0,0,0,0,0,0
1549,1765218890541,8,-9,-1,0,0,0,0,0
1550,1765218890657,8,-10,-1,0,0,0,0,0
1551,1765218890857,8,-10,-1,0,0,0,0,0
1552,1765218890940,6,-12,0,0,0,0,0,0
1553,1765218891207,7,-10,-1,0,0,0,0,0
1554,1765218891340,7,-8,-3,0,0,0,0,0
1555,1765218891623,8,-10,-2,0,0,0,0,0
1556,1765218891824,8,-9,0,0,0,0,0,0
1557,1765218891973,5,-10,-1,0,0,0,0,0
1558,1765218892108,8,-12,-1,0,0,0,0,0
1559,1765218892256,9,-11,-2,0,0,0,0,0
1560,1765218892322,5,-10,-1,0,0,0,0,0
1561,1765218892557,7,-10,0,0,0,0,0,0
1562,1765218892674,8,-11,0,0,0,0,0,0
1563,1765218892855,7,-12,-1,0,0,0,0,0
1564,1765218892988,8,-10,-1,0,0,0,0,0
1565,1765218893140,5,-11,-1,0,0,0,0,0
1566,1765218893391,8,-10,-1,0,0,0,0,0
1567,1765218893624,6,-3,0,0,0,0,0,0
1568,1765218893723,-3,-8,1,0,0,0,0,0
1569,1765218893974,-7,-6,-2,0,0,0,0,0
1570,1765218894122,-2,-8,-3,0,0,0,0,0
1571,1765218894323,7,-10,-1,0,0,0,0,0
1572,1765218894440,7,-9,2,0,0,0,0,0
1573,1765218894656,6,-10,-1,0,0,0,0,0
1574,1765218894773,3,-12,0,0,0,0,0,0
1575,1765218894823,12,-14,-1,0,0,0,0,0
1576,1765218895090,2,-8,1,0,0,0,0,0
1577,1765218895190,6,-10,-2,0,0,0,0,0
1578,1765218895556,2,-10,-2,0,0,0,0,0
1579,1765218895706,0,-7,0,0,0,0,0,0
1580,1765218895889,4,-9,-1,0,0,0,0,0
1581,1765218896057,45,-18,3,0,0,0,0,0
1582,1765218896274,28,-11,-2,0,0,0,0,0
1583,1765218896423,14,-10,-4,0,0,0,0,0
1584,1765218896922,1,-8,0,0,0,0,0,0
1585,1765218897026,2,-11,-2,0,0,0,0,0
1586,1765218897240,2,-8,-2,0,0,0,0,0
1587,1765218897390,6,-8,-2,0,0,0,0,0
1588,1765218897574,4,-8,1,0,0,0,0,0
1589,1765218897723,8,-8,-2,0,0,0,0,0
1590,1765218897905,2,-9,-1,0,0,0,0,0
1591,1765218898091,22,-21,-3,0,0,0,0,0
1592,1765218898157,26,-23,-2,0,0,0,0,0
1593,1765218898458,15,-16,-3,0,0,0,0,0
1594,1765218898606,7,-9,-1,0,0,0,0,0
1595,1765218898823,6,-13,-1,0,0,0,0,0
1596,1765218898888,9,-8,-2,0,0,0,0,0
1597,1765218899156,4,-11,1,0,0,0,0,0
1598,1765218899350,5,-12,0,0,0,0,0,0
1599,1765218899474,5,-11,-4,0,0,0,0,0
1600,1765218899607,7,-10,-1,0,0,0,0,0
1601,1765218899990,5,-9,-1,0,0,0,0,0
1602,1765218900257,7,-10,1,0,0,0,0,0
1603,1765218900356,11,-9,0,0,0,0,0,0
1604,1765218900439,6,-9,1,0,0,0,0,0
1605,1765218900573,8,-11,-1,0,0,0,0,0
1606,1765218900739,6,-9,-1,0,0,0,0,0
1607,1765218900924,5,-10,-1,0,0,0,0,0
1608,1765218901108,7,-10,-2,0,0,0,0,0
1609,1765218901191,7,-11,-1,0,0,0,0,0
1610,1765218901407,6,-9,0,0,0,0,0,0
1611,1765218901689,6,-10,-1,0,0,0,0,0
1612,1765218901839,6,-9,0,0,0,0,0,0
1613,1765218901941,7,-10,-1,0,0,0,0,0
1614,1765218902139,7,-10,0,0,0,0,0,0
1615,1765218902290,7,-11,0,0,0,0,0,0
1616,1765218902475,7,-11,-2,0,0,0,0,0
1617,1765218902607,7,-11,-1,0,0,0,0,0
1618,1765218902839,5,-10,-1,0,0,0,0,0
1619,1765218902990,7,-11,-2,0,0,0,0,0
1620,1765218903173,5,-9,-1,0,0,0,0,0
1621,1765218903438,8,32756,-1,0,0,0,0,0
1622,1765218903657,8,-9,-1,0,0,0,0,0
1623,1765218903758,5,-10,-1,0,0,0,0,0
1624,1765218903972,7,-12,0,0,0,0,0,0
1625,1765218904139,7,-9,-1,0,0,0,0,0
1626,1765218904307,7,-11,0,0,0,0,0,0
1627,1765218904641,7,-9,-1,0,0,0,0,0
1628,1765218904740,7,-11,-1,0,0,0,0,0
1629,1765218904805,8,-9,-2,0,0,0,0,0
1630,1765218904940,7,-11,-1,0,0,0,0,0
1631,1765218905174,8,-9,-1,0,0,0,0,0
1632,1765218905906,8,-10,0,0,0,0,0,0
1633,1765218906106,7,-10,-1,0,0,0,0,0
1634,1765218906957,6,-12,0,0,0,0,0,0
1635,1765218907057,6,-10,-1,0,0,0,0,0
1636,1765218907291,5,-11,-2,0,0,0,0,0
1637,1765218907406,8,-11,0,0,0,0,0,0
1638,1765218907624,7,-10,0,0,0,0,0,0
1639,1765218907723,7,-11,1,0,0,0,0,0
1640,1765218908105,5,-11,-2,0,0,0,0,0
1641,1765218908256,7,-10,-1,0,0,0,0,0
1642,1765218908472,6,-11,-1,0,0,0,0,0
1643,1765218908741,6,-11,-1,0,0,0,0,0
1644,1765218908842,8,-10,-1,0,0,0,0,0
1645,1765218909089,5,-10,0,0,0,0,0,0
1646,1765218909222,6,-11,-1,0,0,0,0,0
1647,1765218909555,1547,-11,3,0,0,0,0,0
1648,1765218909791,6,-11,-1,0,0,0,0,0
1649,1765218909940,8,-8,-1,0,0,0,0,0
1650,1765218910323,6,-10,-1,0,0,0,0,0
1651,1765218910690,4,-12,-1,0,0,0,0,0
1652,1765218910989,4,-10,-1,0,0,0,0,0
1653,1765218911022,7,-10,-1,0,0,0,0,0
1654,1765218911107,8,-9,0,0,0,0,0,0
1655,1765218911240,6,-11,0,0,0,0,0,0
1656,1765218911406,6,-9,-1,0,0,0,0,0
1657,1765218911840,7,-9,0,0,0,0,0,0
1658,1765218912006,8,-10,-2,0,0,0,0,0
1659,1765218912157,7,-11,-1,0,0,0,0,0
1660,1765218912525,7,-11,0,0,0,0,0,0
1661,1765218912705,8,-12,-2,0,0,0,0,0
1662,1765218912856,102,-11,0,0,0,0,0,0
1663,1765218912923,7,-11,-1,0,0,0,0,0
1664,1765218913006,7,-11,-2,0,0,0,0,0
1665,1765218913242,7,-11,-1,0,0,0,0,0
1666,1765218913473,7,-11,-1,0,0,0,0,0
1667,1765218913655,8,-11,-1,0,0,0,0,0
1668,1765218913755,5,-10,-1,0,0,0,0,0
1669,1765218913974,5,-9,-1,0,0,0,0,0
1670,1765218914074,7,-11,0,0,0,0,0,0
1671,1765218914290,8,-11,-2,0,0,0,0,0
1672,1765218914472,5,-11,-1,0,0,0,0,0
1673,1765218914690,8,-10,-1,0,0,0,0,0
1674,1765218914774,6,-10,-1,0,0,0,0,0
1675,1765218914857,6,-11,0,0,0,0,0,0
1676,1765218914989,6,-11,-1,0,0,0,0,0
1677,1765218915223,8,-11,-2,0,0,0,0,0
1678,1765218915607,6,-11,0,0,0,0,0,0
1679,1765218915756,7,-10,0,0,0,0,0,0
1680,1765218915904,7,-10,-1,0,0,0,0,0
1681,1765218916289,6,-10,0,0,0,0,0,0
1682,1765218916357,8,-9,0,0,0,0,0,0
1683,1765218916590,6,-10,-1,0,0,0,0,0
1684,1765218916705,8,-11,0,0,0,0,0,0
1685,1765218916972,14,-79,-2,0,0,0,0,0
1686,1765218917089,5,-9,-2,0,0,0,0,0
1687,1765218917422,8,-10,-1,0,0,0,0,0
1688,1765218917757,8,-10,1,0,0,0,0,0
1689,1765218917874,6,-10,-1,0,0,0,0,0
1690,1765218917907,5,-12,0,0,0,0,0,0
1691,1765218918006,9,-9,0,0,0,0,0,0
1692,1765218918191,5,-11,0,0,0,0,0,0
1693,1765218918340,7,-10,-3,0,0,0,0,0
1694,1765218918691,7,-11,0,0,0,0,0,0
1695,1765218918907,7,-12,-1,0,0,0,0,0
1696,1765218918989,5,-11,1,0,0,0,0,0
1697,1765218919307,9,-12,-1,0,0,0,0,0
1698,1765218919407,7,-10,-3,0,0,0,0,0
1699,1765218919657,7,-9,-1,0,0,0,0,0
1700,1765218919756,7,-10,0,0,0,0,0,0
1701,1765218919855,7,-9,-1,0,0,0,0,0
1702,1765218920057,8,-11,-1,0,0,0,0,0
1703,1765218920155,5,-10,0,0,0,0,0,0
1704,1765218920391,8,-10,-1,0,0,0,0,0
1705,1765218920641,6,-9,0,0,0,0,0,0
1706,1765218920857,7,-10,-1,0,0,0,0,0
1707,1765218920940,7,-11,1,0,0,0,0,0
1708,1765218921041,7,-9,0,0,0,0,0,0
1709,1765218921223,8,-11,-1,0,0,0,0,0
1710,1765218921357,8,-10,-1,0,0,0,0,0
1711,1765218921539,6,-9,-1,0,0,0,0,0
1712,1765218921589,7,-10,-1,0,0,0,0,0
1713,1765218921774,6,-10,-1,0,0,0,0,0
1714,1765218921872,7,-10,0,0,0,0,0,0
1715,1765218922136,7,-10,-1,0,0,0,0,0
1716,1765218922172,7,-11,1,0,0,0,0,0
1717,1765218922657,7,-10,-1,0,0,0,0,0
1718,1765218922907,1545,-10,0,0,0,0,0,0
1719,1765218923025,8,-10,-2,0,0,0,0,0
1720,1765218923257,7,-12,-1,0,0,0,0,0
1721,1765218923340,7,-11,-1,0,0,0,0,0
1722,1765218923607,8,-10,1,0,0,0,0,0
1723,1765218923757,6,-10,-2,0,0,0,0,0
1724,1765218924241,7,-9,0,0,0,0,0,0
1725,1765218924390,7,-10,-1,0,0,0,0,0
1726,1765218924523,5,-10,-1,0,0,0,0,0
1727,1765218924640,6,-10,0,0,0,0,0,0
1728,1765218924707,8,-10,-1,0,0,0,0,0
1729,1765218924923,7,-9,0,0,0,0,0,0
1730,1765218925058,8,-9,0,0,0,0,0,0
1731,1765218925308,7,-10,-1,0,0,0,0,0
1732,1765218925438,7,-10,-2,0,0,0,0,0
1733,1765218925607,6,-10,-2,0,0,0,0,0
1734,1765218925740,7,-11,-1,0,0,0,0,0
1735,1765218925840,5,-9,-2,0,0,0,0,0
1736,1765218926073,8,-10,-1,0,0,0,0,0
1737,1765218926208,7,-11,-1,0,0,0,0,0
1738,1765218926390,6,-11,0,0,0,0,0,0
1739,1765218926607,8,-11,-1,0,0,0,0,0
1740,1765218926707,7,-10,0,0,0,0,0,0
1741,1765218926922,7,-11,0,0,0,0,0,0
1742,1765218927107,7,-10,0,0,0,0,0,0
1743,1765218927307,6,-11,0,0,0,0,0,0
1744,1765218927406,6,-11,0,0,0,0,0,0
1745,1765218927605,7,-10,1,0,0,0,0,0
1746,1765218927757,6,-11,-2,0,0,0,0,0
1747,1765218927975,6,-11,0,0,0,0,0,0
1748,1765218928124,8,-11,-2,0,0,0,0,0
1749,1765218928474,7,-11,21765,0,0,0,0,0
1750,1765218928590,8,-9,-1,0,0,0,0,0
1751,1765218928807,5,-10,-1,0,0,0,0,0
1752,1765218928955,6,-10,0,0,0,0,0,0
1753,1765218929123,7,-10,255,0,0,0,0,0
1754,1765218929256,6,-10,1,0,0,0,0,0
1755,1765218929706,7,-11,0,0,0,0,0,0
1756,1765218929888,7,-10,-1,0,0,0,0,0
1757,1765218929988,7,-10,-2,0,0,0,0,0
1758,1765218930390,7,-11,-1,0,0,0,0,0
1759,1765218930557,7,-10,-1,0,0,0,0,0
1760,1765218930674,4,-10,-1,0,0,0,0,0
1761,1765218930857,6,-11,-1,0,0,0,0,0
1762,1765218931122,8,-11,-1,0,0,0,0,0
1763,1765218931372,8,-11,-1,0,0,0,0,0
1764,1765218931506,7,-11,-1,0,0,0,0,0
1765,1765218931655,10,-12,-1,0,0,0,0,0
1766,1765218931807,7,-11,-1,0,0,0,0,0
1767,1765218932207,7,-11,-1,0,0,0,0,0
1768,1765218932357,8,-11,-1,0,0,0,0,0
1769,1765218932506,7,-9,-1,0,0,0,0,0
1770,1765218932955,6,-10,-1,0,0,0,0,0
1771,1765218933123,8,-11,-2,0,0,0,0,0
1772,1765218933303,6,-10,0,0,0,0,0,0
1773,1765218933322,7,-11,-2,0,0,0,0,0
1774,1765218933406,7,-12,0,0,0,0,0,0
1775,1765218933657,7,-11,-1,0,0,0,0,0
1776,1765218933788,6,-10,-1,0,0,0,0,0
1777,1765218933973,6,-10,-1,0,0,0,0,0
1778,1765218934072,7,-9,0,0,0,0,0,0
1779,1765218934323,7,-11,0,0,0,0,0,0
1780,1765218934771,7,-9,-1,0,0,0,0,0
1781,1765218934872,6,-11,-1,0,0,0,0,0
1782,1765218935057,6,-11,0,0,0,0,0,0
1783,1765218936041,7,-10,-1,0,0,0,0,0
1784,1765218936273,7,-11,0,0,0,0,0,0
1785,1765218936674,6,-10,-1,0,0,0,0,0
1786,1765218936840,6,-10,0,0,0,0,0,0
1787,1765218937005,6,-11,1,0,0,0,0,0
1788,1765218937040,7,-12,-2,0,0,0,0,0
1789,1765218937557,8,-11,0,0,0,0,0,0
1790,1765218937757,6,-11,-1,0,0,0,0,0
1791,1765218937990,8,-10,-1,0,0,0,0,0
1792,1765218938124,7,-11,-2,0,0,0,0,0
1793,1765218938490,6,-12,-1,0,0,0,0,0
1794,1765218938574,7,-10,0,0,0,0,0,0
1795,1765218939157,9,-10,-1,0,0,0,0,0
1796,1765218939256,6,-10,-1,0,0,0,0,0
1797,1765218939721,6,-9,-1,0,0,0,0,0
1798,1765218939922,7,-11,-1,0,0,0,0,0
1799,1765218940021,8,-10,-1,0,0,0,0,0
1800,1765218940239,7,-10,0,0,0,0,0,0
1801,1765218940439,7,-10,-1,0,0,0,0,0
1802,1765218940740,7,-24585,-1029,0,0,0,0,0
1803,1765218940823,8,13302,-19649,0,0,0,0,0
1804,1765218940973,8,-9,-1,0,0,0,0,0
1805,1765218941141,8,-11,1,0,0,0,0,0
1806,1765218941423,7,-10,-1,0,0,0,0,0
1807,1765218941555,8,-8,-1,0,0,0,0,0
1808,1765218941756,7,-11,-1,0,0,0,0,0
1809,1765218941839,7,-11,-4,0,0,0,0,0
1810,1765218942256,6,-10,0,0,0,0,0,0
1811,1765218942456,6,-11,0,0,0,0,0,0
1812,1765218942538,7,-10,-1,0,0,0,0,0
1813,1765218942705,7,-11,-1,0,0,0,0,0
1814,1765218942988,7,-11,-2,0,0,0,0,0
1815,1765218943240,8,-10,-2,0,0,0,0,0
1816,1765218943390,7,-9,-1,0,0,0,0,0
1817,1765218943540,7,-12,0,0,0,0,0,0
1818,1765218943706,7,-10,-1,0,0,0,0,0
1819,1765218943922,7,-11,-1,0,0,0,0,0
1820,1765218944088,8,-10,-2,0,0,0,0,0
1821,1765218944255,7,-11,-1,0,0,0,0,0
1822,1765218944390,6,-9,-2,0,0,0,0,0
1823,1765218944689,8,-10,-1,0,0,0,0,0
1824,1765218944808,6,-12,-256,0,0,0,0,0
1825,1765218945057,6,-10,0,0,0,0,0,0
1826,1765218945124,6,-10,-1,0,0,0,0,0
1827,1765218945190,6,-10,-1,0,0,0,0,0
1828,1765218945323,7,-11,-1,0,0,0,0,0
1829,1765218945764,8,-10,-1,0,0,0,0,0
1830,1765218945773,7,-10,-2,0,0,0,0,0
1831,1765218945890,6,-9,-1,0,0,0,0,0
1832,1765218945989,7,-12,-1,0,0,0,0,0
1833,1765218946474,7,-9,0,0,0,0,0,0
1834,1765218946658,6,-10,-1,0,0,0,0,0
1835,1765218946840,8,-10,0,0,0,0,0,0
1836,1765218946974,5,-10,-1,0,0,0,0,0
1837,1765218947191,7,-11,-1,0,0,0,0,0
1838,1765218947341,5,-10,0,0,0,0,0,0
1839,1765218947557,9,-11,0,0,0,0,0,0
1840,1765218947656,7,-9,-1,0,0,0,0,0
1841,1765218947724,6,-11,-1,0,0,0,0,0
1842,1765218947923,6,-10,-1,0,0,0,0,0
1843,1765218948089,7,-11,0,0,0,0,0,0
1844,1765218948272,8,-9,0,0,0,0,0,0
1845,1765218948472,8,-10,-1,0,0,0,0,0
1846,1765218948572,7,-12,0,0,0,0,0,0
1847,1765218948821,5,-8,-1,0,0,0,0,0
1848,1765218948956,7,-10,-1,0,0,0,0,0
1849,1765218949157,6,-11,-1,0,0,0,0,0
1850,1765218949255,8,-11,-1,0,0,0,0,0
1851,1765218949706,7,-10,-1,0,0,0,0,0
1852,1765218949955,6,-11,-1,0,0,0,0,0
1853,1765218950089,1544,-9,0,0,0,0,0,0
1854,1765218950305,8,-11,0,0,0,0,0,0
1855,1765218950390,6,-11,-2,0,0,0,0,0
1856,1765218950657,8,-10,0,0,0,0,0,0
1857,1765218950756,5,-10,-2,0,0,0,0,0
1858,1765218950940,6,-11,0,0,0,0,0,0
1859,1765218951089,5,-11,1,0,0,0,0,0
1860,1765218951389,6,-8,-2,0,0,0,0,0
1861,1765218951506,6,-9,1,0,0,0,0,0
1862,1765218951607,6,-10,-2,0,0,0,0,0
1863,1765218951805,6,-8,-1,0,0,0,0,0
1864,1765218951923,5,-9,-1,0,0,0,0,0
1865,1765218952056,7,-9,-1,0,0,0,0,0
1866,1765218952272,7,-10,1,0,0,0,0,0
1867,1765218952438,6,-10,0,0,0,0,0,0
1868,1765218952554,5,-9,-1,0,0,0,0,0
1869,1765218952690,7,-9,-1,0,0,0,0,0
1870,1765218952923,7,-10,-2,0,0,0,0,0
1871,1765218953173,6,-12,-1,0,0,0,0,0
1872,1765218953321,6,-10,-1,0,0,0,0,0
1873,1765218953422,7,-10,-2,0,0,0,0,0
1874,1765218953624,8,-10,-1,0,0,0,0,0
1875,1765218953722,7,-9,0,0,0,0,0,0
1876,1765218954024,6,-9,0,0,0,0,0,0
1877,1765218954156,7,-10,0,0,0,0,0,0
1878,1765218954323,8,-10,-1,0,0,0,0,0
1879,1765218954439,6,-11,-1,0,0,0,0,0
1880,1765218954540,9,-11,3,0,0,0,0,0
1881,1765218954674,7,-10,-1,0,0,0,0,0
1882,1765218954923,8,-9,-1,0,0,0,0,0
1883,1765218955106,5,-9,-2,0,0,0,0,0
1884,1765218955174,6,-10,-1,0,0,0,0,0
1885,1765218955323,5,-10,0,0,0,0,0,0
1886,1765218955455,6,-10,-2,0,0,0,0,0
1887,1765218955640,8,-10,0,0,0,0,0,0
1888,1765218955874,7,-11,1,0,0,0,0,0
1889,1765218956056,7,-10,0,0,0,0,0,0
1890,1765218956174,7,-8,-1,0,0,0,0,0
1891,1765218956356,9,-11,0,0,0,0,0,0
1892,1765218956456,6,-10,-1,0,0,0,0,0
1893,1765218956714,6,-9,0,0,0,0,0,0
1894,1765218956823,8,-10,0,0,0,0,0,0
1895,1765218957057,5,-10,0,0,0,0,0,0
1896,1765218957240,8,-11,-1,0,0,0,0,0
1897,1765218957339,6,-10,-1,0,0,0,0,0
1898,1765218957539,7,-11,-1,0,0,0,0,0
1899,1765218957606,8,-10,-1,0,0,0,0,0
1900,1765218957725,5,-10,1,0,0,0,0,0
1901,1765218957906,8,-11,-2,0,0,0,0,0
1902,1765218958007,6,-10,0,0,0,0,0,0
1903,1765218958189,7,-11,-1,0,0,0,0,0
1904,1765218958388,6,-11,-1,0,0,0,0,0
1905,1765218958538,7,-11,-1,0,0,0,0,0
1906,1765218958705,7,-10,0,0,0,0,0,0
1907,1765218958839,7,-11,0,0,0,0,0,0
1908,1765218959055,7,-11,-1,0,0,0,0,0
1909,1765218959188,7,-10,-1,0,0,0,0,0
1910,1765218959339,7,-10,-1,0,0,0,0,0
1911,1765218959473,7,-10,-1,0,0,0,0,0
1912,1765218959722,6,-10,-2,0,0,0,0,0
1913,1765218959840,5,-10,-1,0,0,0,0,0
1914,1765218960006,7,-11,-1,0,0,0,0,0
1915,1765218960123,7,-9,0,0,0,0,0,0
1916,1765218960291,6,-11,-1,0,0,0,0,0
1917,1765218960356,7,-9,-2,0,0,0,0,0
1918,1765218960471,9,-9,0,0,0,0,0,0
1919,1765218960638,4,-7,0,0,0,0,0,0
1920,1765218960755,8,-13,0,0,0,0,0,0
1921,1765218960938,5,-10,0,0,0,0,0,0
1922,1765218960988,4,-9,0,0,0,0,0,0
1923,1765218961106,8,-10,0,0,0,0,0,0
1924,1765218961289,5,-10,-1,0,0,0,0,0
1925,1765218961590,8,-10,1,0,0,0,0,0
1926,1765218961939,9,-9,-1,0,0,0,0,0
1927,1765218962057,7,-9,-1,0,0,0,0,0
1928,1765218962222,7,-11,0,0,0,0,0,0
1929,1765218962355,7,-10,-3,0,0,0,0,0
1930,1765218962473,8,-10,0,0,0,0,0,0
1931,1765218962639,6,-11,0,0,0,0,0,0
1932,1765218962788,7,-11,-1,0,0,0,0,0
1933,1765218962939,5,-10,2,0,0,0,0,0
1934,1765218963108,7,-8,-1,0,0,0,0,0
1935,1765218963256,7,-9,2,0,0,0,0,0
1936,1765218963439,4,-10,-1,0,0,0,0,0
1937,1765218963556,100,-9,-2,0,0,0,0,0
1938,1765218963740,5,-9,-2,0,0,0,0,0
1939,1765218963874,7,-11,0,0,0,0,0,0
1940,1765218964074,5,-10,-1,0,0,0,0,0
1941,1765218964157,9,-12,0,0,0,0,0,0
1942,1765218964406,7,-9,0,0,0,0,0,0
1943,1765218964406,5,-12,-2,0,0,0,0,0
1944,1765218964489,7,-8,0,0,0,0,0,0
1945,1765218964724,9,-10,0,0,0,0,0,0
1946,1765218964824,6,-9,-1,0,0,0,0,0
1947,1765218965022,8,-12,0,0,0,0,0,0
1948,1765218965174,6,-12,-2,0,0,0,0,0
1949,1765218965338,8,-9,-2,0,0,0,0,0
1950,1765218965521,7,-9,-2,0,0,0,0,0
1951,1765218965641,6,27382,-21786,0,0,0,0,0
1952,1765218965888,7,-10,1,0,0,0,0,0
1953,1765218966190,8,-10,-1,0,0,0,0,0
1954,1765218966290,9,-9,1,0,0,0,0,0
1955,1765218966488,7,-10,-1,0,0,0,0,0
1956,1765218966522,6,-10,-1,0,0,0,0,0
1957,1765218966656,8,-10,-1,0,0,0,0,0
1958,1765218966822,4,-11,0,0,0,0,0,0
1959,1765218966988,8,-10,-1,0,0,0,0,0
1960,1765218967439,5,-10,0,0,0,0,0,0
1961,1765218967673,7,-10,0,0,0,0,0,0
1962,1765218967773,7,-9,-1,0,0,0,0,0
1963,1765218968123,10,-12,0,0,0,0,0,0
1964,1765218968319,6,-9,-1,0,0,0,0,0
1965,1765218968473,7,-13,0,0,0,0,0,0
1966,1765218968589,6,-9,0,0,0,0,0,0
1967,1765218968822,6,-12,0,0,0,0,0,0
1968,1765218968906,6,-8,-1,0,0,0,0,0
1969,1765218969140,6,-8,-1,0,0,0,0,0
1970,1765218969207,4,-9,-1,0,0,0,0,0
1971,1765218969473,6,-10,-1,0,0,0,0,0
1972,1765218969574,6,-12,0,0,0,0,0,0
1973,1765218969757,8,-10,1,0,0,0,0,0
1974,1765218970090,7,-11,-2,0,0,0,0,0
1975,1765218970271,8,-11,-2,0,0,0,0,0
1976,1765218970373,6,-10,-1,0,0,0,0,0
1977,1765218970623,7,-11,0,0,0,0,0,0
1978,1765218970673,5,-9,1,0,0,0,0,0
1979,1765218970940,7,-10,0,0,0,0,0,0
1980,1765218971022,6,-10,-1,0,0,0,0,0
1981,1765218971240,5,-10,-1,0,0,0,0,0
1982,1765218971356,7,-16395,196,0,0,0,0,0
1983,1765218971555,8,-9,-2,0,0,0,0,0
1984,1765218971740,6,-12,-2,0,0,0,0,0
1985,1765218971856,8,-10,-1,0,0,0,0,0
1986,1765218972090,6,-10,-1,0,0,0,0,0
1987,1765218972106,7,-11,-2,0,0,0,0,0
1988,1765218972190,6,-9,-2,0,0,0,0,0
1989,1765218972406,10,-11,-1,0,0,0,0,0
1990,1765218972523,5,-11,0,0,0,0,0,0
1991,1765218972723,6,-10,-2,0,0,0,0,0
1992,1765218972889,6,-11,0,0,0,0,0,0
1993,1765218973039,7,-10,-1,0,0,0,0,0
1994,1765218973206,6,-10,-1,0,0,0,0,0
1995,1765218973323,7,-9,-1,0,0,0,0,0
1996,1765218973573,8,-10,0,0,0,0,0,0
1997,1765218973889,6,-10,-1,0,0,0,0,0
1998,1765218973990,7,-9,0,0,0,0,0,0
1999,1765218974190,6,-10,-1,0,0,0,0,0
2000,1765218974289,7,-9,0,0,0,0,0,0
2001,1765218974490,6,-9,0,0,0,0,0,0
2002,1765218974589,7,-10,-2,0,0,0,0,0
2003,1765218974823,7,-9,-1,0,0,0,0,0
2004,1765218975306,6,-11,-1,0,0,0,0,0
2005,1765218975539,7,-9,0,0,0,0,0,0
2006,1765218975707,6,-10,0,0,0,0,0,0
2007,1765218976123,7,-10,0,0,0,0,0,0
2008,1765218976324,6,-10,-2,0,0,0,0,0
2009,1765218976423,7,-9,0,0,0,0,0,0
2010,1765218976672,6,-10,-1,0,0,0,0,0
2011,1765218976806,7,-11,0,0,0,0,0,0
2012,1765218977024,5,-11,0,0,0,0,0,0
2013,1765218977106,8,-11,-2,0,0,0,0,0
2014,1765218977539,6,-10,-1,0,0,0,0,0
2015,1765218977872,7,-10,-1,0,0,0,0,0
2016,1765218978139,7,-10,-256,0,0,0,0,0
2017,1765218978240,6,-9,-2,0,0,0,0,0
2018,1765218978473,8,-9,-1,0,0,0,0,0
2019,1765218978590,7,-12,-1,0,0,0,0,0
2020,1765218978822,8,-11,-1,0,0,0,0,0
2021,1765218979039,7,-10,-2,0,0,0,0,0
2022,1765218979222,8,-9,0,0,0,0,0,0
2023,1765218979289,8,-9,-1,0,0,0,0,0
2024,1765218979390,6,-11,0,0,0,0,0,0
2025,1765218979688,6,-9,0,0,0,0,0,0
2026,1765218979704,6,-12,0,0,0,0,0,0
2027,1765218980090,5,-11,-1,0,0,0,0,0
2028,1765218980306,8,-10,-1,0,0,0,0,0
2029,1765218980390,8,-9,-1,0,0,0,0,0
2030,1765218980557,7,-10,0,0,0,0,0,0
2031,1765218980824,6,-10,-1,0,0,0,0,0
2032,1765218981039,6,-10,0,0,0,0,0,0
2033,1765218981206,6,-9,0,0,0,0,0,0
2034,1765218981323,7,-11,0,0,0,0,0,0
2035,1765218981489,5,-10,-1,0,0,0,0,0
2036,1765218981723,6,-10,-1,0,0,0,0,0
2037,1765218981906,7,-11,0,0,0,0,0,0
2038,1765218982022,8,-10,-1,0,0,0,0,0
2039,1765218982206,7,-8,0,0,0,0,0,0
2040,1765218982656,9,-12,1,0,0,0,0,0
2041,1765218982790,7,-11,1,0,0,0,0,0
2042,1765218982956,6,-10,-1,0,0,0,0,0
2043,1765218983073,8,-10,0,0,0,0,0,0
2044,1765218983338,5,-11,-1,0,0,0,0,0
2045,1765218983439,8,-9,-1,0,0,0,0,0
2046,1765218983773,9,-10,-256,0,0,0,0,0
2047,1765218984004,6,-11,-1,0,0,0,0,0
2048,1765218984188,7,-10,-1,0,0,0,0,0
2049,1765218984407,7,-10,-1,0,0,0,0,0
2050,1765218984507,6,-10,-2,0,0,0,0,0
2051,1765218984755,8,-10,-1,0,0,0,0,0
2052,1765218984873,6,-9,-2,0,0,0,0,0
2053,1765218985073,7,-9,-2,0,0,0,0,0
2054,1765218985206,7,-10,1,0,0,0,0,0
2055,1765218985423,8,-10,0,0,0,0,0,0
2056,1765218985588,6,-9,-1,0,0,0,0,0
2057,1765218985740,6,-10,-1,0,0,0,0,0
2058,1765218985955,7,-11,-1,0,0,0,0,0
2059,1765218986123,5,-11,-1,0,0,0,0,0
2060,1765218986256,7,-10,-1,0,0,0,0,0
2061,1765218986373,7,-13,-1,0,0,0,0,0
2062,1765218986639,4,-10,1,0,0,0,0,0
2063,1765218986723,8,-10,-2,0,0,0,0,0
2064,1765218986773,6,-9,-2,0,0,0,0,0
2065,1765218986873,6,-10,0,0,0,0,0,0
2066,1765218987073,7,-11,1,0,0,0,0,0
2067,1765218987206,8,-11,-1,0,0,0,0,0
2068,1765218987574,7,-11,0,0,0,0,0,0
2069,1765218987807,9,-11,-2,0,0,0,0,0
2070,1765218987890,8,-9,-1,0,0,0,0,0
2071,1765218988057,6,-6,-2,0,0,0,0,0
2072,1765218988239,6,-11,-2049,0,0,0,0,0
2073,1765218988423,7,-10,-1,0,0,0,0,0
2074,1765218988672,6,-10,-1,0,0,0,0,0
2075,1765218988788,6,-8,0,0,0,0,0,0
2076,1765218988973,7,-9,0,0,0,0,0,0
2077,1765218989453,7,-10,-1,0,0,0,0,0
2078,1765218989588,7,-10,0,0,0,0,0,0
2079,1765218989739,8,-12,0,0,0,0,0,0
2080,1765218989856,6,-11,-1,0,0,0,0,0
2081,1765218989940,8,-10,-1,0,0,0,0,0
2082,1765218990190,5,-10,-1,0,0,0,0,0
2083,1765218990290,6,-10,-1,0,0,0,0,0
2084,1765218990588,6,-9,0,0,0,0,0,0
2085,1765218990806,6,-10,-1,0,0,0,0,0
2086,1765218990873,6,-11,-1,0,0,0,0,0
2087,1765218991073,7,-11,-2,0,0,0,0,0
2088,1765218991357,5,-10,-1,0,0,0,0,0
2089,1765218991423,5,-10,-1,0,0,0,0,0
2090,1765218991638,7,-9,-1,0,0,0,0,0
2091,1765218991670,6,-10,0,0,0,0,0,0
2092,1765218991822,5,-10,-1,0,0,0,0,0
2093,1765218991989,7,-11,-1,0,0,0,0,0
2094,1765218992140,7,-9,-2,0,0,0,0,0
2095,1765218992256,6,-10,0,0,0,0,0,0
2096,1765218992356,6,-10,0,0,0,0,0,0
2097,1765218992538,7,-9,-2,0,0,0,0,0
2098,1765218992638,6,-9,0,0,0,0,0,0
2099,1765218993022,6,-9,-2,0,0,0,0,0
2100,1765218993106,5,-11,-1,0,0,0,0,0
2101,1765218993305,8,-10,0,0,0,0,0,0
2102,1765218993422,5,-10,0,0,0,0,0,0
2103,1765218993704,6,-10,-2,0,0,0,0,0
2104,1765218993805,6,-9,0,0,0,0,0,0
2105,1765218994023,7,-11,-1,0,0,0,0,0
2106,1765218994090,7,-10,0,0,0,0,0,0
2107,1765218994223,6,-11,-1,0,0,0,0,0
2108,1765218994388,6,-8,-1,0,0,0,0,0
2109,1765218994522,5,-10,0,0,0,0,0,0
2110,1765218994855,7,-11,1,0,0,0,0,0
2111,1765218994988,7,-9,0,0,0,0,0,0
2112,1765218995138,5,-12,0,0,0,0,0,0
2113,1765218995288,6,-10,-1,0,0,0,0,0
2114,1765218995390,7,-9,0,0,0,0,0,0
2115,1765218995470,6,-10,-1,0,0,0,0,0
2116,1765218995722,6,-7,-1,0,0,0,0,0
2117,1765218995788,7,-10,0,0,0,0,0,0
2118,1765218995904,6,-10,-2,0,0,0,0,0
2119,1765218996021,5,-9,-1,0,0,0,0,0
2120,1765218996187,5,-10,-1,0,0,0,0,0
2121,1765218996323,5,-11,0,0,0,0,0,0
2122,1765218996557,6,-9,0,0,0,0,0,0
2123,1765218996773,6,-10,-1,0,0,0,0,0
2124,1765218996954,5,-11,-2,0,0,0,0,0
2125,1765218997073,5,-10,0,0,0,0,0,0
2126,1765218997274,7,-11,-1,0,0,0,0,0
2127,1765218997439,7,-9,0,0,0,0,0,0
2128,1765218997656,7,-9,-1,0,0,0,0,0
2129,1765218997806,5,-10,0,0,0,0,0,0
2130,1765218997922,6,-10,-256,0,0,0,0,0
2131,1765218998106,5,-11,-1,0,0,0,0,0
2132,1765218998539,7,-10,-1,0,0,0,0,0
2133,1765218998670,5,-9,-2,0,0,0,0,0
2134,1765218998839,7,-9,-1,0,0,0,0,0
2135,1765218999238,5,-9,-1,0,0,0,0,0
2136,1765218999340,7,-9,0,0,0,0,0,0
2137,1765218999538,6,-10,-2,0,0,0,0,0
2138,1765218999687,7,-12,-1,0,0,0,0,0
2139,1765218999871,7,-7,0,0,0,0,0,0
