index,date,GYRO_X,GYRO_Y,GYRO_Z,1,2,3,4,5
0,1765895323020,-11,18,-1,0,0,0,0,0
1,1765895323070,-11,19,1,0,0,0,0,0
2,1765895323121,-10,18,-1,0,0,0,0,0
3,1765895323171,-12,19,1,0,0,0,0,0
4,1765895323236,-10,20,2,0,0,0,0,0
5,1765895323286,-11,19,0,0,0,0,0,0
6,1765895323336,-11,19,3,0,0,0,0,0
7,1765895323371,-12,23,0,0,0,0,0,0
8,1765895323436,-10,21,1,0,0,0,0,0
9,1765895323470,-9,18,0,0,0,0,0,0
10,1765895323521,-9,21,1,0,0,0,0,0
11,1765895323586,-9,18,0,0,0,0,0,0
12,1765895323636,-9,18,1,0,0,0,0,0
13,1765895323670,-9,18,1,0,0,0,0,0
14,1765895323735,-8,18,0,0,0,0,0,0
15,1765895323770,-9,15,1,0,0,0,0,0
16,1765895323836,-11,19,0,0,0,0,0,0
17,1765895323870,-11,20,3,0,0,0,0,0
18,1765895323921,-16,10,27,0,0,0,0,0
19,1765895325601,-10,17,1,0,0,0,0,0
20,1765895326917,-11,19,0,0,0,0,0,0
21,1765895459339,-11,19,2,0,0,0,0,0
22,1765895459455,-8,19,2,0,0,0,0,0
23,1765895459588,-11,19,1,0,0,0,0,0
24,1765895459706,-10,18,3,0,0,0,0,0
25,1765895459806,-8,19,1,0,0,0,0,0
26,1765895459971,-10,21,0,0,0,0,0,0
27,1765895460037,-9,19,2,0,0,0,0,0
28,1765895460204,-10,18,1,0,0,0,0,0
29,1765895460274,-12,18,1,0,0,0,0,0
30,1765895461519,-10,19,2,0,0,0,0,0
31,1765895465616,-13,19,1,0,0,0,0,0
32,1765895472960,-11,18,2,0,0,0,0,0
33,1765895474675,-11,19,1,0,0,0,0,0
34,1765895480171,-9,20,1,0,0,0,0,0
35,1765895484067,-12,19,2,0,0,0,0,0
36,1765895488846,-12,20,0,0,0,0,0,0
37,1765895490445,-8,19,1,0,0,0,0,0
38,1765895494075,-9,19,1,0,0,0,0,0
39,1765895494874,-10,20,1,0,0,0,0,0
40,1765895500503,-11,18,1,0,0,0,0,0
41,1765895501869,-9,19,0,0,0,0,0,0
42,1765895508847,-12,18,2,0,0,0,0,0
43,1765895516357,-4,41,4,0,0,0,0,0
44,1765895519322,32,18,-10,0,0,0,0,0
45,1765895519704,7,21,8,0,0,0,0,0
46,1765895522319,-37,-1,21,0,0,0,0,0
47,1765895524601,17,334,-48,0,0,0,0,0
48,1765895527065,-62,119,-4,0,0,0,0,0
49,1765895527915,23,148,-2,0,0,0,0,0
50,1765895528997,-19,-3,14,0,0,0,0,0
51,1765895530962,20,-228,-7,0,0,0,0,0
52,1765895533627,-7,-121,-1,0,0,0,0,0
53,1765895536290,-36,6,31,0,0,0,0,0
54,1765895538556,-24,-5,47,0,0,0,0,0
55,1765895539655,12,-27,4,0,0,0,0,0
56,1765895540721,3,-64,-8,0,0,0,0,0
57,1765895543635,-39,12,27,0,0,0,0,0
58,1765895546300,-12,-19,2,0,0,0,0,0
59,1765895547532,-36,95,27,0,0,0,0,0
60,1765895548597,-36,-18,-18,0,0,0,0,0
61,1765895549796,12,-140,-1,0,0,0,0,0
62,1765895557507,24,-70,-86,0,0,0,0,0
63,1765895558588,-61,-53,-15,0,0,0,0,0
64,1765895564918,-13,12,9,0,0,0,0,0
65,1765895565300,-1,24,-4,0,0,0,0,0
66,1765895567266,-22,34,22,0,0,0,0,0
67,1765895571645,1,10,6,0,0,0,0,0
68,1765895578375,40,-328,30,0,0,0,0,0
69,1765895579605,1,-78,10,0,0,0,0,0
70,1765895580656,-46,246,-50,0,0,0,0,0
71,1765895583751,32,-192,2,0,0,0,0,0
72,1765895588448,-85,-191,76,0,0,0,0,0
73,1765895588831,45,-218,0,0,0,0,0,0
74,1765895589664,-95,-142,17,0,0,0,0,0
75,1765895590812,61,-354,103,0,0,0,0,0
76,1765895599239,-9,-9,-31,0,0,0,0,0
77,1765895606650,-56,445,-35,0,0,0,0,0
78,1765895608048,-28,395,9,0,0,0,0,0
79,1765895609114,-26,-107,-2,0,0,0,0,0
80,1765895612494,20,-526,41,0,0,0,0,0
81,1765895613162,9,-405,30,0,0,0,0,0
82,1765895613527,-11,-379,21,0,0,0,0,0
83,1765895613943,40,-366,36,0,0,0,0,0
84,1765895618389,-1,-90,11,0,0,0,0,0
85,1765895618772,-8,-26,6,0,0,0,0,0
86,1765895619838,-11,2,2,0,0,0,0,0
87,1765895620905,-15,11,5,0,0,0,0,0
88,1765895622486,-9,18,3,0,0,0,0,0
89,1765895624785,-10,17,1,0,0,0,0,0
90,1765895633493,-10,20,1,0,0,0,0,0
91,1765895647796,-12,19,2,0,0,0,0,0
92,1765895648212,-10,18,2,0,0,0,0,0
93,1765895648628,-11,19,3,0,0,0,0,0
94,1765895649811,-10,18,2,0,0,0,0,0
95,1765895652858,-10,18,2,0,0,0,0,0
96,1765895653324,-6,18,0,0,0,0,0,0
97,1765895653708,-10,20,2,0,0,0,0,0
98,1765895661801,-12,18,3,0,0,0,0,0
99,1765895665513,-10,17,1,0,0,0,0,0
100,1765895670030,-10,19,1,0,0,0,0,0
101,1765895673107,-9,19,2,0,0,0,0,0
102,1765895674706,-11,19,1,0,0,0,0,0
103,1765895675589,-10,20,1,0,0,0,0,0
104,1765895678019,-6,19,2,0,0,0,0,0
105,1765895679586,-11,19,1,0,0,0,0,0
106,1765895681335,-12,19,3,0,0,0,0,0
107,1765895685268,-11,18,1,0,0,0,0,0
108,1765895686916,-10,18,2,0,0,0,0,0
109,1765895688498,-9,18,1,0,0,0,0,0
110,1765895692478,-10,20,1,0,0,0,0,0
111,1765895693543,-10,18,2,0,0,0,0,0
112,1765895695226,-10,19,0,0,0,0,0,0
113,1765895696110,-10,19,1,0,0,0,0,0
114,1765895697706,-9,19,2,0,0,0,0,0
115,1765895699022,-12,19,2,0,0,0,0,0
116,1765895701370,-12,17,2,0,0,0,0,0
117,1765895712695,-8,17,3,0,0,0,0,0
118,1765895713045,-11,19,0,0,0,0,0,0
119,1765895714626,-11,18,0,0,0,0,0,0
120,1765895715993,-11,18,1,0,0,0,0,0
121,1765895718359,-2315,131,2,0,0,0,0,0
122,1765895720705,-10,19,3,0,0,0,0,0
123,1765895722536,-10,21,2,0,0,0,0,0
124,1765895724602,-9,18,2,0,0,0,0,0
125,1765895725600,-8,19,2,0,0,0,0,0
126,1765895726067,-10,19,3,0,0,0,0,0
127,1765895737053,-11,18,1,0,0,0,0,0
128,1765895738336,-11,20,2,0,0,0,0,0
129,1765895739484,-9,18,1,0,0,0,0,0
130,1765895740850,-10,19,2,0,0,0,0,0
131,1765895741216,-11,19,1,0,0,0,0,0
132,1765895745280,-9,19,2,0,0,0,0,0
133,1765895747062,-12,19,2,0,0,0,0,0
134,1765895748594,-10,20,1,0,0,0,0,0
135,1765895749527,-10,17,4,0,0,0,0,0
136,1765895751208,-10,17,1,0,0,0,0,0
137,1765895751991,-10,19,1,0,0,0,0,0
138,1765895753707,-9,18,2,0,0,0,0,0
139,1765895754476,-9,19,1,0,0,0,0,0
140,1765895754856,-10,19,2,0,0,0,0,0
141,1765895759268,-10,16,3,0,0,0,0,0
142,1765895762648,-9,19,2,0,0,0,0,0
143,1765895764663,-12,18,1,0,0,0,0,0
144,1765895768461,-9,18,2,0,0,0,0,0
145,1765895769459,-12,17,2,0,0,0,0,0
146,1765895773206,-15,210,2,0,0,0,0,0
147,1765895775156,-12,18,1,0,0,0,0,0
148,1765895775938,-11,18,0,0,0,0,0,0
149,1765895784035,-11,19,2,0,0,0,0,0
150,1765895787264,-9,18,1,0,0,0,0,0
151,1765895795442,-9,17,3,0,0,0,0,0
152,1765895796991,-12,18,-3,0,0,0,0,0
153,1765895805167,-11,18,1,0,0,0,0,0
154,1765895805551,-12,18,2,0,0,0,0,0
155,1765895808797,-11,18,2,0,0,0,0,0
156,1765895896902,-11,12306,3,0,0,0,0,0
157,1765895897018,-8,18,2,0,0,0,0,0
158,1765895897135,-12,19,2,0,0,0,0,0
159,1765895897269,-10,19,2,0,0,0,0,0
160,1765895897368,-10,19,3,0,0,0,0,0
161,1765895897519,-9,18,0,0,0,0,0,0
162,1765895897601,-11,20,2,0,0,0,0,0
163,1765895897751,-9,19,2,0,0,0,0,0
164,1765895897818,-10,16,2,0,0,0,0,0
165,1765895909394,-10,18,2,0,0,0,0,0
166,1765895911028,-7,18,2,0,0,0,0,0
167,1765895911858,-13,19,2,0,0,0,0,0
168,1765895912358,-10,18,2,0,0,0,0,0
169,1765895918504,-9,20,-1,0,0,0,0,0
170,1765895920369,-11,18,2,0,0,0,0,0
171,1765895921601,-10,19,1,0,0,0,0,0
172,1765895924431,-10,19,2,0,0,0,0,0
173,1765895934805,-8,18,3,0,0,0,0,0
174,1765895935273,-3083,83,1026,0,0,0,0,0
175,1765895935592,-11,19,2,0,0,0,0,0
176,1765895945631,-11,21,2,0,0,0,0,0
177,1765895947444,-10,19,2,0,0,0,0,0
178,1765895949110,-9,17,3,0,0,0,0,0
179,1765895952690,-8,17,-255,0,0,0,0,0
180,1765895953106,-10,17,1,0,0,0,0,0
181,1765895955789,-10,18,2,0,0,0,0,0
182,1765895957305,-10,18,2,0,0,0,0,0
183,1765895958637,-9,18,1,0,0,0,0,0
184,1765895960416,-14,21,2,0,0,0,0,0
185,1765895961748,-9,17,3,0,0,0,0,0
186,1765895963482,-11,20,258,0,0,0,0,0
187,1765895964813,-11,18,2,0,0,0,0,0
188,1765895966612,-8,18,2,0,0,0,0,0
189,1765895968745,-10,20,1,0,0,0,0,0
190,1765895974704,-11,17,3,0,0,0,0,0
191,1765895975138,-11,19,2,0,0,0,0,0
192,1765895976439,-10,17,1,0,0,0,0,0
193,1765895977803,-10,19,1,0,0,0,0,0
194,1765895979584,-10,19,1,0,0,0,0,0
195,1765895980917,-12,19,1,0,0,0,0,0
196,1765895982265,-10,18,2,0,0,0,0,0
197,1765895984047,-10,21,2,0,0,0,0,0
198,1765895985348,-9,18,1,0,0,0,0,0
199,1765895986714,-11,21,2,0,0,0,0,0
200,1765895987145,-9,19,2,0,0,0,0,0
201,1765895988747,-10,19,2,0,0,0,0,0
202,1765895990026,-9,18,2,0,0,0,0,0
203,1765895991392,-11,20,1,0,0,0,0,0
204,1765895991841,-9,18,2,0,0,0,0,0
205,1765895993158,-10,19,1,0,0,0,0,0
206,1765895994889,-9,16,2,0,0,0,0,0
207,1765895996271,-8,19,1,0,0,0,0,0
208,1765895997653,-10,18,3,0,0,0,0,0
209,1765895998970,-11,19,2,0,0,0,0,0
210,1765896000567,-9,17,2,0,0,0,0,0
211,1765896002332,-11,19,2,0,0,0,0,0
212,1765896003648,-9,19,1,0,0,0,0,0
213,1765896005918,-10,18,2,0,0,0,0,0
214,1765896006778,-12,19,2,0,0,0,0,0
215,1765896008126,-9,18,2,0,0,0,0,0
216,1765896009893,-10,17,3,0,0,0,0,0
217,1765896011491,-10,18,2,0,0,0,0,0
218,1765896012841,-9,18,2,0,0,0,0,0
219,1765896014605,-9,18,2,0,0,0,0,0
220,1765896016206,-11,17,1,0,0,0,0,0
221,1765896017552,-9,20,2,0,0,0,0,0
222,1765896019301,-11,17,1,0,0,0,0,0
223,1765896022233,-10,21,0,0,0,0,0,0
224,1765896024031,-10,18,2,0,0,0,0,0
225,1765896025380,-12,18,2,0,0,0,0,0
226,1765896026728,-12,17,1,0,0,0,0,0
227,1765896028527,-10,19,3,0,0,0,0,0
228,1765896030108,-10,18,2,0,0,0,0,0
229,1765896033226,-11,18,4,0,0,0,0,0
230,1765896033407,-10,19,2,0,0,0,0,0
231,1765896035023,-14,21,2,0,0,0,0,0
232,1765896036787,-8,17,1,0,0,0,0,0
233,1765896038119,-10,19,3,0,0,0,0,0
234,1765896042816,-11,18,2,0,0,0,0,0
235,1765896047510,-10,18,2,0,0,0,0,0
236,1765896051956,-10,18,3,0,0,0,0,0
237,1765896053288,-11,19,2,0,0,0,0,0
238,1765896053737,-7,18,1,0,0,0,0,0
239,1765896055105,-10,20,2,0,0,0,0,0
240,1765896058185,-11,20,1,0,0,0,0,0
241,1765896059766,-10,18,3,0,0,0,0,0
242,1765896061066,-7,21,1,0,0,0,0,0
243,1765896061515,-11,19,0,0,0,0,0,0
244,1765896062863,-11,18,1,0,0,0,0,0
245,1765896064578,-9,19,2,0,0,0,0,0
246,1765896067476,-10,19,1,0,0,0,0,0
247,1765896069292,-11,18,2,0,0,0,0,0
248,1765896071957,-8,18,2,0,0,0,0,0
249,1765896073571,-11,20,1,0,0,0,0,0
250,1765896075302,-11,16,2,0,0,0,0,0
251,1765896087077,-10,20,2,0,0,0,0,0
252,1765896087326,-12,20,1,0,0,0,0,0
253,1765896087542,-13,18,2,0,0,0,0,0
254,1765896087694,-9,18,2,0,0,0,0,0
255,1765896087778,-10,18,3,0,0,0,0,0
256,1765896087945,-8,18,2,0,0,0,0,0
257,1765896088009,-11,20,1,0,0,0,0,0
258,1765896096152,-9,18,1,0,0,0,0,0
259,1765896099982,-10,18,3,0,0,0,0,0
260,1765896101301,-10,18,1,0,0,0,0,0
261,1765896101632,-12,18,2,0,0,0,0,0
262,1765896110343,-10,19,2,0,0,0,0,0
263,1765896124011,-10,20,3,0,0,0,0,0
264,1765896128023,-11,18,2,0,0,0,0,0
265,1765896129259,-9,19,2,0,0,0,0,0
266,1765896134188,-10,19,1,0,0,0,0,0
267,1765896134604,-9,18,2,0,0,0,0,0
268,1765896137071,-11,18,1,0,0,0,0,0
269,1765896137886,-10,16,2,0,0,0,0,0
270,1765896138351,-10,18,2,0,0,0,0,0
271,1765896143369,-9,19,2,0,0,0,0,0
272,1765896144346,-10,18,2,0,0,0,0,0
273,1765896146828,-10,17,2,0,0,0,0,0
274,1765896149808,-10,20,2,0,0,0,0,0
275,1765896156886,-10,18,2,0,0,0,0,0
276,1765896157302,-10,20,2,0,0,0,0,0
277,1765896158251,-9,19,1,0,0,0,0,0
278,1765896158635,-9,18,3,0,0,0,0,0
279,1765896162165,-10,20,2,0,0,0,0,0
280,1765896162614,-10,17,2,0,0,0,0,0
281,1765896165978,-10,18,2,0,0,0,0,0
282,1765896168893,-10,19,2,0,0,0,0,0
283,1765896170242,-12,19,0,0,0,0,0,0
284,1765896171809,-10,18,2,0,0,0,0,0
285,1765896172173,-10,18,2,0,0,0,0,0
286,1765896173572,-11,19,1,0,0,0,0,0
287,1765896179733,-9,18,3,0,0,0,0,0
288,1765896180066,-11,18,1,0,0,0,0,0
289,1765896182448,-12,19,3,0,0,0,0,0
290,1765896184912,-11,17,2,0,0,0,0,0
291,1765896187843,-11,18,1,0,0,0,0,0
292,1765896188758,-11,18,1,0,0,0,0,0
293,1765896190907,-11,18,1,0,0,0,0,0
294,1765896200597,-22,-209,5,0,0,0,0,0
295,1765896204176,3078,-71,52,0,0,0,0,0
296,1765896208392,-60,10,31,0,0,0,0,0
297,1765896209442,-5,-8,13,0,0,0,0,0
298,1765896212239,-6,-2,-6,0,0,0,0,0
299,1765896215054,17,-20,28,0,0,0,0,0
300,1765896224796,-11,19,2,0,0,0,0,0
301,1765896227226,-12,19,1,0,0,0,0,0
302,1765896227610,-9,16,2,0,0,0,0,0
303,1765896230223,-10,18,2,0,0,0,0,0
304,1765896232905,-11,19,2,0,0,0,0,0
305,1765896233886,-10,18,1,0,0,0,0,0
306,1765896242297,-11,18,2,0,0,0,0,0
307,1765896246144,-9,18,2,0,0,0,0,0
308,1765896246926,-11,18,1,0,0,0,0,0
309,1765896249675,-10,18,2,0,0,0,0,0
310,1765896266046,-11,18,3,0,0,0,0,0
311,1765896268924,-10,18,1,0,0,0,0,0
312,1765896270256,-10,18,0,0,0,0,0,0
313,1765896271022,-12,17,3,0,0,0,0,0
314,1765896278018,-40,36,6,0,0,0,0,0
315,1765896278117,-8,17,2,0,0,0,0,0
316,1765896278218,-12,17,2,0,0,0,0,0
317,1765896278335,-9,21,1,0,0,0,0,0
318,1765896278451,-10,19,3,0,0,0,0,0
319,1765896278600,-10,18,2,0,0,0,0,0
320,1765896278683,-11,19,1,0,0,0,0,0
321,1765896280265,-10,19,2,0,0,0,0,0
322,1765896281009,-10,18,2,0,0,0,0,0
323,1765896281313,-9,18,1,0,0,0,0,0
324,1765896283012,-9,19,2,0,0,0,0,0
325,1765896284496,-10,18,3,0,0,0,0,0
326,1765896285145,-10,18,1,0,0,0,0,0
327,1765896287761,-11,18,3,0,0,0,0,0
328,1765896288258,-11,18,1,0,0,0,0,0
329,1765896296902,-9,18,1,0,0,0,0,0
330,1765896297018,-10,19,2,0,0,0,0,0
331,1765896297135,-11,20,2,0,0,0,0,0
332,1765896297268,-8,18,2,0,0,0,0,0
333,1765896297369,-9,20,1,0,0,0,0,0
334,1765896297519,-10,19,4,0,0,0,0,0
335,1765896297601,-9,18,1,0,0,0,0,0
336,1765896297767,-10,17,2,0,0,0,0,0
337,1765896297835,-10,18,4,0,0,0,0,0
338,1765896297918,-13,18,1,0,0,0,0,0
339,1765896299315,-11,18,2,0,0,0,0,0
340,1765896305078,-10,16,2,0,0,0,0,0
341,1765896306609,-9,19,1,0,0,0,0,0
342,1765896308807,-11,18,2,0,0,0,0,0
343,1765896313556,-10,19,3,0,0,0,0,0
344,1765896316150,-11,19,3,0,0,0,0,0
345,1765896318466,-10,19,1,0,0,0,0,0
346,1765896323629,-9,18,2,0,0,0,0,0
347,1765896326077,-10,21,2,0,0,0,0,0
348,1765896331771,-14,9,35,0,0,0,0,0
349,1765896334004,-11,-13,-5,0,0,0,0,0
350,1765896336051,1,121,-14,0,0,0,0,0
351,1765896336669,-25,-1,33,0,0,0,0,0
352,1765896338881,3,-171,107,0,0,0,0,0
353,1765896339314,53,-288,25,0,0,0,0,0
354,1765896341871,72,-254,-21,0,0,0,0,0
355,1765896341894,14,-223,-7,0,0,0,0,0
356,1765896342943,-6,-157,-28,0,0,0,0,0
357,1765896343327,-79,-135,-6,0,0,0,0,0
358,1765896344375,32,-78,40,0,0,0,0,0
359,1765896347407,14,10,-17,0,0,0,0,0
360,1765896352088,-11,17,1,0,0,0,0,0
361,1765896357451,-10,19,2,0,0,0,0,0
362,1765896357833,-11,19,2,0,0,0,0,0
363,1765896359198,-10,18,2,0,0,0,0,0
364,1765896360513,39,48,-7,0,0,0,0,0
365,1765896365343,2,23,3,0,0,0,0,0
366,1765896368859,-11,18,1,0,0,0,0,0
367,1765896369776,-10,18,3,0,0,0,0,0
368,1765896370156,-11,18,2,0,0,0,0,0
369,1765896373819,-20,-6,16,0,0,0,0,0
370,1765896377882,-78,-50,-18,0,0,0,0,0
371,1765896379681,14,-27,22,0,0,0,0,0
372,1765896386342,10,-3,-4,0,0,0,0,0
373,1765896389239,80,-478,-42,0,0,0,0,0
374,1765896393819,-59,-264,37,0,0,0,0,0
375,1765896394136,15,-365,13,0,0,0,0,0
376,1765896396968,-10,246,-24,0,0,0,0,0
377,1765896398448,-30,133,-26,0,0,0,0,0
378,1765896400947,1,504,0,0,0,0,0,0
379,1765896406658,40,-755,36,0,0,0,0,0
380,1765896407091,41,-597,30,0,0,0,0,0
381,1765896408174,19,-344,36,0,0,0,0,0
382,1765896408190,-2,-394,-1,0,0,0,0,0
383,1765896408806,30,-373,34,0,0,0,0,0
384,1765896412738,-2,-216,-9,0,0,0,0,0
385,1765896415218,6,-32,-1,0,0,0,0,0
386,1765896417283,-27,-37,-45,0,0,0,0,0
387,1765896420132,-16,-14,10,0,0,0,0,0
388,1765896424109,-16,-327,12,0,0,0,0,0
389,1765896424477,54,-458,58,0,0,0,0,0
390,1765896424910,67,-361,28,0,0,0,0,0
391,1765896426825,64,-287,26,0,0,0,0,0
392,1765896430872,89,31,-64,0,0,0,0,0
393,1765896433418,6,-13,-12,0,0,0,0,0
394,1765896434317,-59,-231,35,0,0,0,0,0
395,1765896438616,-19,-371,-3,0,0,0,0,0
396,1765896442761,17,-242,11,0,0,0,0,0
397,1765896445541,-16,-76,18,0,0,0,0,0
398,1765896448672,-10,16,3,0,0,0,0,0
399,1765896452104,-12,18,2,0,0,0,0,0
400,1765896454868,-11,18,2,0,0,0,0,0
401,1765896458047,-9,17,2,0,0,0,0,0
402,1765896458414,-11,19,1,0,0,0,0,0
403,1765896459117,-10,18,2,0,0,0,0,0
404,1765896459463,-11,20,2,0,0,0,0,0
405,1765896459914,-12,18,3,0,0,0,0,0
406,1765896461577,-12,20,2,0,0,0,0,0
407,1765896462478,-12,18,0,0,0,0,0,0
408,1765896463060,-11,20,2,0,0,0,0,0
409,1765896463826,-8,18,2,0,0,0,0,0
410,1765896478713,-11,18,2,0,0,0,0,0
411,1765896481960,-8,20,2,0,0,0,0,0
412,1765896482393,-10,19,2,0,0,0,0,0
413,1765896483026,-9,20,2,0,0,0,0,0
414,1765896488389,-10,19,2,0,0,0,0,0
415,1765896488555,-11,19,2,0,0,0,0,0
416,1765896488621,-10,18,3,0,0,0,0,0
417,1765896488755,-11,20,3,0,0,0,0,0
418,1765896488854,-10,20,2,0,0,0,0,0
419,1765896488972,-10,17,3,0,0,0,0,0
420,1765896489087,-10,19,3,0,0,0,0,0
421,1765896489154,-10,20,1,0,0,0,0,0
422,1765896490004,-10,17,2,0,0,0,0,0
423,1765896490253,-11,19,2,0,0,0,0,0
424,1765896492984,-10,18,2,0,0,0,0,0
425,1765896493333,-10,18,1,0,0,0,0,0
426,1765896493384,-10,18,2,0,0,0,0,0
427,1765896493718,-8,19,0,0,0,0,0,0
428,1765896493917,-10,19,4,0,0,0,0,0
429,1765896494201,-10,18,2,0,0,0,0,0
430,1765896494500,-11,18,2,0,0,0,0,0
431,1765896497665,-10,17,3,0,0,0,0,0
432,1765896497931,-9,19,2,0,0,0,0,0
433,1765896502269,-9,20,2,0,0,0,0,0
434,1765896505107,-11,19,2,0,0,0,0,0
435,1765896505290,-10,18,1,0,0,0,0,0
436,1765896505574,-10,19,2,0,0,0,0,0
437,1765896511104,-9,19,1,0,0,0,0,0
438,1765896511237,-11,19,2,0,0,0,0,0
439,1765896511587,-12,17,1,0,0,0,0,0
440,1765896511853,-11,18,1,0,0,0,0,0
441,1765896512702,-12,18,1,0,0,0,0,0
442,1765896515248,-10,18,2,0,0,0,0,0
443,1765896515632,-10,19,0,0,0,0,0,0
444,1765896518597,-9,18,2,0,0,0,0,0
445,1765896518745,-9,18,2,0,0,0,0,0
446,1765896519045,-10,19,3,0,0,0,0,0
447,1765896519145,-11,19,1,0,0,0,0,0
448,1765896519795,-9,18,1,0,0,0,0,0
449,1765896522709,-10,18,2,0,0,0,0,0
450,1765896522876,-10,20,2,0,0,0,0,0
451,1765896523076,-9,18,1,0,0,0,0,0
452,1765896528404,-9,19,2,0,0,0,0,0
453,1765896528970,-8,17,1,0,0,0,0,0
454,1765896529894,-10,18,2,0,0,0,0,0
455,1765896529905,-11,19,2,0,0,0,0,0
456,1765896529905,-10,20,2,0,0,0,0,0
457,1765896529920,-10,18,2,0,0,0,0,0
458,1765896530253,-11,18,3,0,0,0,0,0
459,1765896530419,-10,17,2,0,0,0,0,0
460,1765896530568,-9,18,1,0,0,0,0,0
461,1765896532701,-9,19,2,0,0,0,0,0
462,1765896534765,-9,16,3,0,0,0,0,0
463,1765896535153,-10,19,2,0,0,0,0,0
464,1765896535365,-9,18,2,0,0,0,0,0
465,1765896535564,-10,19,2,0,0,0,0,0
466,1765896535948,-9,18,2,0,0,0,0,0
467,1765896536248,-9,19,2,0,0,0,0,0
468,1765896537763,-10,19,3,0,0,0,0,0
469,1765896537963,-9,18,4,0,0,0,0,0
470,1765896538212,-11,19,1,0,0,0,0,0
471,1765896538446,-10,18,1,0,0,0,0,0
472,1765896733430,-13,20,2,0,0,0,0,0
473,1765896733612,-11,18,1,0,0,0,0,0
474,1765896733664,-10,19,2,0,0,0,0,0
475,1765896733829,-12,19,2,0,0,0,0,0
476,1765896733896,-11,20,2,0,0,0,0,0
477,1765896734045,-9,18,3,0,0,0,0,0
478,1765896734128,-12,19,1,0,0,0,0,0
479,1765896734262,-11,18,1,0,0,0,0,0
480,1765896734962,-9,19,2,0,0,0,0,0
481,1765896992015,-11,19,1,0,0,0,0,0
482,1765896992015,-11,18,2,0,0,0,0,0
483,1765896992166,-11,19,2,0,0,0,0,0
484,1765896992320,-10,18,1,0,0,0,0,0
485,1765896992320,-11,20,3,0,0,0,0,0
486,1765896992474,-10,18,3,0,0,0,0,0
487,1765896992625,-9,19,0,0,0,0,0,0
488,1765896992778,-9,19,2,0,0,0,0,0
489,1765896992930,-11,19,2,0,0,0,0,0
490,1765896996881,-11,18,2,0,0,0,0,0
491,1765896999554,-12,19,2,0,0,0,0,0
492,1765897000713,-12,19,1,0,0,0,0,0
493,1765897001740,-10,19,1,0,0,0,0,0
494,1765897002156,-10,19,1,0,0,0,0,0
495,1765897003458,-10,18,2,0,0,0,0,0
496,1765897013116,-10,18,2,0,0,0,0,0
497,1765897014449,-11,19,1,0,0,0,0,0
498,1765897014472,-10,18,2,0,0,0,0,0
499,1765897019459,-10,18,2,0,0,0,0,0
500,1765897022409,-10,18,2,0,0,0,0,0
501,1765897024372,-11,17,1,0,0,0,0,0
502,1765897025771,-11,19,1,0,0,0,0,0
503,1765897029117,-10,22,1,0,0,0,0,0
504,1765897029352,-10,24593,2,0,0,0,0,0
505,1765897029534,-11,20,2,0,0,0,0,0
506,1765897029601,-8,18,3,0,0,0,0,0
507,1765897029767,-9,19,1,0,0,0,0,0
508,1765897029818,-9,19,2,0,0,0,0,0
509,1765897029967,-10,20,1,0,0,0,0,0
510,1765897030050,-10,19,1,0,0,0,0,0
511,1765897030200,-12,19,1,0,0,0,0,0
512,1765897030283,-10,19,3,0,0,0,0,0
513,1765897030450,-9,18,1,0,0,0,0,0
514,1765897030517,-10,18,1,0,0,0,0,0
515,1765897030700,-8,18,2,0,0,0,0,0
516,1765897030749,-12,20,2,0,0,0,0,0
517,1765897030866,-9,18,2,0,0,0,0,0
518,1765897031000,-11,19,1,0,0,0,0,0
519,1765897031099,-12,18,3,0,0,0,0,0
520,1765897031216,-12,20,2,0,0,0,0,0
521,1765897031349,-9,21,2,0,0,0,0,0
522,1765897031449,-11,19,1,0,0,0,0,0
523,1765897031600,-10,19,2,0,0,0,0,0
524,1765897031683,-11,19,1,0,0,0,0,0
525,1765897031832,-10,19,1,0,0,0,0,0
526,1765897031933,-8,19,1,0,0,0,0,0
527,1765897032000,-11,18,1,0,0,0,0,0
528,1765897032167,-11,19,1,0,0,0,0,0
529,1765897032232,-9,19,2,0,0,0,0,0
530,1765897032398,-9,18,2,0,0,0,0,0
531,1765897032482,-9,18,1,0,0,0,0,0
532,1765897032615,-13,19,0,0,0,0,0,0
533,1765897032715,-9,20,5,0,0,0,0,0
534,1765897032849,-10,20,3,0,0,0,0,0
535,1765897032898,-10,19,2,0,0,0,0,0
536,1765897033132,-9,17,2,0,0,0,0,0
537,1765897033197,-11,18,1,0,0,0,0,0
538,1765897033364,-11,19,2,0,0,0,0,0
539,1765897033414,-8,19,3,0,0,0,0,0
540,1765897033598,-11,19,3,0,0,0,0,0
541,1765897033632,-9,19,1,0,0,0,0,0
542,1765897033814,-11,18,1,0,0,0,0,0
543,1765897033914,-9,18,2,0,0,0,0,0
544,1765897034015,-11,18,1,0,0,0,0,0
545,1765897034148,-10,19,1,0,0,0,0,0
546,1765897034214,-10,19,2,0,0,0,0,0
547,1765897034364,-10,18,1,0,0,0,0,0
548,1765897034430,-10,19,2,0,0,0,0,0
549,1765897034597,-11,18,3,0,0,0,0,0
550,1765897034647,-12,19,1,0,0,0,0,0
551,1765897034813,-11,19,2,0,0,0,0,0
552,1765897034914,-12,19,3,0,0,0,0,0
553,1765897034996,-10,20,1,0,0,0,0,0
554,1765897035146,-10,18,3,0,0,0,0,0
555,1765897035230,-10,19,2,0,0,0,0,0
556,1765897035380,-11,19,0,0,0,0,0,0
557,1765897035429,-10,18,2,0,0,0,0,0
558,1765897035612,-11,19,2,0,0,0,0,0
559,1765897036515,-10,17,1,0,0,0,0,0
560,1765897036534,-10,18,1,0,0,0,0,0
561,1765897036534,-10,20,2,0,0,0,0,0
562,1765897036550,-11,19,2,0,0,0,0,0
563,1765897036550,-11,18,2,0,0,0,0,0
564,1765897036550,-11,18,2,0,0,0,0,0
565,1765897036550,-10,18,2,0,0,0,0,0
566,1765897036578,-11,19,1,0,0,0,0,0
567,1765897036648,-11,20,1,0,0,0,0,0
568,1765897036897,-11,19,3,0,0,0,0,0
569,1765897036962,-10,19,3,0,0,0,0,0
570,1765897037111,-10,19,2,0,0,0,0,0
571,1765897037195,-12,19,3,0,0,0,0,0
572,1765897037327,-11,21,1,0,0,0,0,0
573,1765897037411,-11,18,2,0,0,0,0,0
574,1765897037529,-8,19,3,0,0,0,0,0
575,1765897037644,-10,19,2,0,0,0,0,0
576,1765897037744,-11,20,0,0,0,0,0,0
577,1765897037865,-8,19,1,0,0,0,0,0
578,1765897037961,-9,19,2,0,0,0,0,0
579,1765897038061,-10,18,2,0,0,0,0,0
580,1765897038194,-11,18,1,0,0,0,0,0
581,1765897038277,-11,18,1,0,0,0,0,0
582,1765897038443,-8,17,1,0,0,0,0,0
583,1765897038811,-9,20,2,0,0,0,0,0
584,1765897039144,-11,19,1,0,0,0,0,0
585,1765897039210,-11,19,1,0,0,0,0,0
586,1765897040909,-11,19,1,0,0,0,0,0
587,1765897042157,-11,18,3,0,0,0,0,0
588,1765897042622,-11,17,2,0,0,0,0,0
589,1765897042805,-12,19,3,0,0,0,0,0
590,1765897043005,-9,19,2,0,0,0,0,0
591,1765897047617,-11,18,2,0,0,0,0,0
592,1765897047635,-11,21,1,0,0,0,0,0
593,1765897047635,-10,17,4,0,0,0,0,0
594,1765897048699,-9,20,1,0,0,0,0,0
595,1765897048766,-8,19,2,0,0,0,0,0
596,1765897049049,-7,19,2,0,0,0,0,0
597,1765897049431,-10,20,3,0,0,0,0,0
598,1765897051148,-10,18,2,0,0,0,0,0
599,1765897051564,-9,18,1,0,0,0,0,0
600,1765897051764,-11,18,3,0,0,0,0,0
601,1765897051881,-9,18,1,0,0,0,0,0
602,1765897052146,-10,17,0,0,0,0,0,0
603,1765897052264,-9,21,2,0,0,0,0,0
604,1765897052530,-10,19,3,0,0,0,0,0
605,1765897052934,-8,18,3,0,0,0,0,0
606,1765897053131,-12,19,1,0,0,0,0,0
607,1765897053412,-10,19,2,0,0,0,0,0
608,1765897053645,-11,19,2,0,0,0,0,0
609,1765897054129,-11,19,2,0,0,0,0,0
610,1765897054528,-10,19,2,0,0,0,0,0
611,1765897054661,-10,19,1,0,0,0,0,0
612,1765897055111,-10,18,1,0,0,0,0,0
613,1765897057145,-9,18,2,0,0,0,0,0
614,1765897057593,-9,19,1,0,0,0,0,0
615,1765897058926,-11,20,2,0,0,0,0,0
616,1765897059961,-10,19,0,0,0,0,0,0
617,1765897062972,-10,19,2,0,0,0,0,0
618,1765897063073,-9,18,2,0,0,0,0,0
619,1765897065070,-9,18,1,0,0,0,0,0
620,1765897067885,-10,18,2,0,0,0,0,0
621,1765897068168,-11,20,1,0,0,0,0,0
622,1765897068751,-8,18,2,0,0,0,0,0
623,1765897069729,-10,18,2,0,0,0,0,0
624,1765897069742,-9,17,2,0,0,0,0,0
625,1765897069755,-10,19,2,0,0,0,0,0
626,1765897069756,-10,18,2,0,0,0,0,0
627,1765897069767,-11,18,1,0,0,0,0,0
628,1765897069850,-9,18,2,0,0,0,0,0
629,1765897070217,-10,18,1,0,0,0,0,0
630,1765897071613,-10,20,1,0,0,0,0,0
631,1765897071796,-10,19,2,0,0,0,0,0
632,1765897071862,-9,19,2,0,0,0,0,0
633,1765897072095,-10,20,1,0,0,0,0,0
634,1765897073544,-9,18,0,0,0,0,0,0
635,1765897073646,-9,18,1,0,0,0,0,0
636,1765897075545,-9,19,2,0,0,0,0,0
637,1765897077095,-9,18,0,0,0,0,0,0
638,1765897079359,-10,18,2,0,0,0,0,0
639,1765897080841,-11,18,1,0,0,0,0,0
640,1765897081614,-10,19,2,0,0,0,0,0
641,1765897081791,-10,17,2,0,0,0,0,0
642,1765897081941,-11,20,2,0,0,0,0,0
643,1765897082340,-10,18,3,0,0,0,0,0
644,1765897082756,-11,18,1,0,0,0,0,0
645,1765897083255,-9,19,3,0,0,0,0,0
646,1765897083988,-11,19,1,0,0,0,0,0
647,1765897084022,-11,18,2,0,0,0,0,0
648,1765897084288,-9,19,2,0,0,0,0,0
649,1765897084404,-10,19,2,0,0,0,0,0
650,1765897084671,-9,18,0,0,0,0,0,0
651,1765897084721,-10,20,2,0,0,0,0,0
652,1765897088967,-12,18,2,0,0,0,0,0
653,1765897089034,-9,18,2,0,0,0,0,0
654,1765897090233,-10,18,2,0,0,0,0,0
655,1765897090316,-11,20,2,0,0,0,0,0
656,1765897091789,-9,19,1,0,0,0,0,0
657,1765897093630,-11,18,3,0,0,0,0,0
658,1765897097160,-11,18,3,0,0,0,0,0
659,1765897098742,-11,19,1,0,0,0,0,0
660,1765897099026,-11,17,1,0,0,0,0,0
661,1765897099242,-8,18,0,0,0,0,0,0
662,1765897099442,-10,18,2,0,0,0,0,0
663,1765897100508,-12,18,1,0,0,0,0,0
664,1765897100608,-9,19,0,0,0,0,0,0
665,1765897103059,-9,18,1,0,0,0,0,0
666,1765897103188,-13,20,1,0,0,0,0,0
667,1765897103655,-12,21,2,0,0,0,0,0
668,1765897104788,-10,17,2,0,0,0,0,0
669,1765897105186,-11,20,0,0,0,0,0,0
670,1765897106419,-11,18,2,0,0,0,0,0
671,1765897107151,-10,20,2,0,0,0,0,0
672,1765897108368,-10,19,1,0,0,0,0,0
673,1765897108733,-10,18,2,0,0,0,0,0
674,1765897109284,-10,18,2,0,0,0,0,0
675,1765897109399,-12,18,2,0,0,0,0,0
676,1765897109849,-10,18,2,0,0,0,0,0
677,1765897110100,-10,20,2,0,0,0,0,0
678,1765897110282,-9,18,3,0,0,0,0,0
679,1765897110782,-10,20,1,0,0,0,0,0
680,1765897111166,-9,17,1,0,0,0,0,0
681,1765897111248,-10,19,2,0,0,0,0,0
682,1765897111531,-11,19,1,0,0,0,0,0
683,1765897111681,-9,18,3,0,0,0,0,0
684,1765897111748,-11,19,1,0,0,0,0,0
685,1765897112064,-10,19,1,0,0,0,0,0
686,1765897112564,-10,18,3,0,0,0,0,0
687,1765897112831,-10,17,1,0,0,0,0,0
688,1765897112864,-10,19,2,0,0,0,0,0
689,1765897114037,-9,19,2,0,0,0,0,0
690,1765897114054,-11,18,2,0,0,0,0,0
691,1765897125769,-8,19,-1,0,0,0,0,0
692,1765897126636,-12,18,2,0,0,0,0,0
693,1765897127052,-10,19,2,0,0,0,0,0
694,1765897127468,-12,20,1,0,0,0,0,0
695,1765897127718,-10,19,1,0,0,0,0,0
696,1765897128001,-9,21,1,0,0,0,0,0
697,1765897128285,-11,17,1,0,0,0,0,0
698,1765897128500,-6,4,7,0,0,0,0,0
699,1765897128767,-10,-4,5,0,0,0,0,0
700,1765897130199,-9,-151,9,0,0,0,0,0
701,1765897131698,-18,-197,-3,0,0,0,0,0
702,1765897131998,-4,-191,-1,0,0,0,0,0
703,1765897132297,30,-119,18,0,0,0,0,0
704,1765897132365,-8,-118,-26,0,0,0,0,0
705,1765897134762,2,22,17,0,0,0,0,0
706,1765897136427,-60,-250,5,0,0,0,0,0
707,1765897138292,26,-366,13,0,0,0,0,0
708,1765897139309,-54,-358,-31,0,0,0,0,0
709,1765897139425,-2,-365,42,0,0,0,0,0
710,1765897143404,3,-223,-1,0,0,0,0,0
711,1765897143588,42,-104,24,0,0,0,0,0
712,1765897143688,40,-48,15,0,0,0,0,0
713,1765897144254,-38,162,-4,0,0,0,0,0
714,1765897144704,-15,269,-31,0,0,0,0,0
715,1765897145037,-87,295,-28,0,0,0,0,0
716,1765897145436,-6,259,-42,0,0,0,0,0
717,1765897147235,-26,-138,39,0,0,0,0,0
718,1765897147537,-22,-6,30,0,0,0,0,0
719,1765897147819,-4,99,26,0,0,0,0,0
720,1765897148102,-8,102,4,0,0,0,0,0
721,1765897149333,-45,464,-59,0,0,0,0,0
722,1765897151831,-28,578,50,0,0,0,0,0
723,1765897152797,-40,506,-21,0,0,0,0,0
724,1765897153213,-37,275,-10,0,0,0,0,0
725,1765897154062,16,-228,48,0,0,0,0,0
726,1765897154814,-52,688,-22,0,0,0,0,0
727,1765897155100,-135,975,-125,0,0,0,0,0
728,1765897158191,70,-626,74,0,0,0,0,0
729,1765897158407,32,-448,39,0,0,0,0,0
730,1765897158790,89,-425,72,0,0,0,0,0
731,1765897159459,71,-449,73,0,0,0,0,0
732,1765897160655,96,-383,-56,0,0,0,0,0
733,1765897160838,-42,-334,20,0,0,0,0,0
734,1765897161238,66,-312,0,0,0,0,0,0
735,1765897161521,-2,-254,54,0,0,0,0,0
736,1765897162205,-46,-147,-15,0,0,0,0,0
737,1765897164369,44,-145,109,0,0,0,0,0
738,1765897165818,-19,-122,-29,0,0,0,0,0
739,1765897166068,25,-152,-2,0,0,0,0,0
740,1765897166134,-73,28544,-26352,0,0,0,0,0
741,1765897166384,38,-87,-28,0,0,0,0,0
742,1765897166501,-18,-97,23,0,0,0,0,0
743,1765897167900,-76,-38,-5,0,0,0,0,0
744,1765897169972,-109,20606,-30679,0,0,0,0,0
745,1765897169987,-45,-477,31,0,0,0,0,0
746,1765897170197,174,-424,55,0,0,0,0,0
747,1765897172012,-75,-258,-3,0,0,0,0,0
748,1765897172779,-97,-165,-28,0,0,0,0,0
749,1765897173061,-82,-82,-90,0,0,0,0,0
750,1765897173580,48,2,8,0,0,0,0,0
751,1765897173861,-69,-20,15,0,0,0,0,0
752,1765897174278,-42,-30,26,0,0,0,0,0
753,1765897174610,-21,-22,-18,0,0,0,0,0
754,1765897176775,32,29,-72,0,0,0,0,0
755,1765897176943,-60,67,-64,0,0,0,0,0
756,1765897177841,17,-78,1,0,0,0,0,0
757,1765897178141,48,-46,-238,0,0,0,0,0
758,1765897178324,-30,22,24,0,0,0,0,0
759,1765897178674,70,9,0,0,0,0,0,0
760,1765897178873,-69,13,-11,0,0,0,0,0
761,1765897179157,-48,7,44,0,0,0,0,0
762,1765897179456,23,6,52,0,0,0,0,0
763,1765897181306,18,58,4,0,0,0,0,0
764,1765897182688,61,-129,-42,0,0,0,0,0
765,1765897182903,-49,-412,-23,0,0,0,0,0
766,1765897183170,0,-596,-35,0,0,0,0,0
767,1765897183553,12,-426,59,0,0,0,0,0
768,1765897185969,0,-372,31,0,0,0,0,0
769,1765897186367,-16,-339,41,0,0,0,0,0
770,1765897187249,10,-284,34,0,0,0,0,0
771,1765897187533,52,-275,28,0,0,0,0,0
772,1765897188050,-22,-253,-22,0,0,0,0,0
773,1765897188815,-5,-404,51,0,0,0,0,0
774,1765897189848,-20,-654,82,0,0,0,0,0
775,1765897190264,31,-132,4,0,0,0,0,0
776,1765897190547,0,-442,30,0,0,0,0,0
777,1765897192211,-247,-127,-1,0,0,0,0,0
778,1765897192794,195,190,1,0,0,0,0,0
779,1765897195693,-41,303,-42,0,0,0,0,0
780,1765897195742,-49,66,-58,0,0,0,0,0
781,1765897196025,-18,-379,-16,0,0,0,0,0
782,1765897197224,-27,105,18,0,0,0,0,0
783,1765897198590,19,537,-4,0,0,0,0,0
784,1765897199625,-93,703,-74,0,0,0,0,0
785,1765897200746,6,479,-35,0,0,0,0,0
786,1765897201107,0,465,-14,0,0,0,0,0
787,1765897204524,-10,629,-40,0,0,0,0,0
788,1765897204753,7,233,36,0,0,0,0,0
789,1765897204853,-24,195,1,0,0,0,0,0
790,1765897205320,9,-711,58,0,0,0,0,0
791,1765897205902,0,-682,140,0,0,0,0,0
792,1765897205969,34,-406,73,0,0,0,0,0
793,1765897206235,-43,-506,75,0,0,0,0,0
794,1765897206868,65,-594,80,0,0,0,0,0
795,1765897207002,-72,-416,156,0,0,0,0,0
796,1765897208484,69,-444,0,0,0,0,0,0
797,1765897211814,-4,-212,26,0,0,0,0,0
798,1765897212014,-3,-147,19,0,0,0,0,0
799,1765897212330,24,-44,-27,0,0,0,0,0
800,1765897212747,-9,-35,-33,0,0,0,0,0
801,1765897216094,-34,-66,69,0,0,0,0,0
802,1765897219790,20,41,21,0,0,0,0,0
803,1765897229216,-45,40,-56,0,0,0,0,0
804,1765897229583,76,29,-5,0,0,0,0,0
805,1765897229949,11,-38,19,0,0,0,0,0
806,1765897234378,-4,27,-16,0,0,0,0,0
807,1765897237892,41,-144,6,0,0,0,0,0
808,1765897237993,27,-152,30,0,0,0,0,0
809,1765897238258,-23,-155,19,0,0,0,0,0
810,1765897240741,4,289,16,0,0,0,0,0
811,1765897240923,11,268,-21,0,0,0,0,0
812,1765897243720,16,-41,2,0,0,0,0,0
813,1765897243903,19,-26,11,0,0,0,0,0
814,1765897245685,-24,16,5,0,0,0,0,0
815,1765897253813,-9,19,2,0,0,0,0,0
816,1765897253996,-9,18,2,0,0,0,0,0
817,1765897254294,-4,15,1,0,0,0,0,0
818,1765897255993,-10,17,1,0,0,0,0,0
819,1765897256842,-10,17,2,0,0,0,0,0
820,1765897257126,-10,17,3,0,0,0,0,0
821,1765897258009,-9,18,1,0,0,0,0,0
822,1765897258191,-9,16,3,0,0,0,0,0
823,1765897258374,-11,17,1,0,0,0,0,0
824,1765897260340,-9,17,1,0,0,0,0,0
825,1765897265888,-10,18,3,0,0,0,0,0
826,1765897265938,-10,19,2,0,0,0,0,0
827,1765897268416,-11,16,1,0,0,0,0,0
828,1765897268902,-9,18,2,0,0,0,0,0
829,1765897269065,-10,17,2,0,0,0,0,0
830,1765897269565,-11,17,3,0,0,0,0,0
831,1765897269648,-10,16,2,0,0,0,0,0
832,1765897271664,-9,18,4,0,0,0,0,0
833,1765897272662,-9,16,3,0,0,0,0,0
834,1765897273745,-9,16,2,0,0,0,0,0
835,1765897274344,-9,18,2,0,0,0,0,0
836,1765897278242,-10,16,3,0,0,0,0,0
837,1765897278408,-9,17,3,0,0,0,0,0
838,1765897282995,-11,21,2,0,0,0,0,0
839,1765897283517,-11,17,2,0,0,0,0,0
840,1765897283552,-8,18,1,0,0,0,0,0
841,1765897287900,-9,17,3,0,0,0,0,0
842,1765897287954,-10,17,2,0,0,0,0,0
843,1765897288369,-11,18,1,0,0,0,0,0
844,1765897288547,-9,17,2,0,0,0,0,0
845,1765897288708,-10,16,2,0,0,0,0,0
846,1765897304386,-9,18,2,0,0,0,0,0
847,1765897305100,-8,19,2,0,0,0,0,0
848,1765897305477,-9,18,1,0,0,0,0,0
849,1765897306041,-10,16,1,0,0,0,0,0
850,1765897308103,-10,17,2,0,0,0,0,0
851,1765897308373,-10,18,3,0,0,0,0,0
852,1765897308833,-9,18,2,0,0,0,0,0
853,1765897312147,-9,18,1,0,0,0,0,0
854,1765897312614,-9,16,2,0,0,0,0,0
855,1765897315292,-10,16,1,0,0,0,0,0
856,1765897315314,-10,16,2,0,0,0,0,0
857,1765897317526,-8,17,2,0,0,0,0,0
858,1765897322162,-12,18,2,0,0,0,0,0
859,1765897322456,-9,18,2,0,0,0,0,0
860,1765897326319,-9,17,2,0,0,0,0,0
861,1765897326386,-10,17,2,0,0,0,0,0
862,1765897326470,-10,16,2,0,0,0,0,0
863,1765897326604,-9,15,3,0,0,0,0,0
864,1765897326703,-10,16,2,0,0,0,0,0
865,1765897326835,-9,18,2,0,0,0,0,0
866,1765897326952,-11,16,2,0,0,0,0,0
867,1765897327068,-9,16,1,0,0,0,0,0
868,1765897327218,-8,17,0,0,0,0,0,0
869,1765897327301,-9,18,3,0,0,0,0,0
870,1765897327419,-11,17,1,0,0,0,0,0
871,1765897327580,-10,17,2,0,0,0,0,0
872,1765897328831,-8,18,2,0,0,0,0,0
873,1765897328831,-11,18,2,0,0,0,0,0
874,1765897328832,-9,17,2,0,0,0,0,0
875,1765897328832,-10,16,3,0,0,0,0,0
876,1765897328832,-10,18,2,0,0,0,0,0
877,1765897328832,-10,16,2,0,0,0,0,0
878,1765897328832,-10,17,1,0,0,0,0,0
879,1765897328832,-9,16,3,0,0,0,0,0
880,1765897328832,-8,18,1,0,0,0,0,0
881,1765897328935,-9,18,3,0,0,0,0,0
882,1765897328987,-10,16,2,0,0,0,0,0
883,1765897329143,-9,17,1,0,0,0,0,0
884,1765897329246,-10,16,3,0,0,0,0,0
885,1765897329404,-10,18,3,0,0,0,0,0
886,1765897329525,-11,17,2,0,0,0,0,0
887,1765897329636,-11,17,1,0,0,0,0,0
888,1765897329741,-10,18,1,0,0,0,0,0
889,1765897329895,-9,18,2,0,0,0,0,0
890,1765897330003,-9,17,3,0,0,0,0,0
891,1765897330111,-9,17,3,0,0,0,0,0
892,1765897330264,-10,18,2,0,0,0,0,0
893,1765897330315,-9,17,2,0,0,0,0,0
894,1765897330527,-9,17,2,0,0,0,0,0
895,1765897330566,-10,17,2,0,0,0,0,0
896,1765897330729,-9,17,2,0,0,0,0,0
897,1765897330795,-10,17,2,0,0,0,0,0
898,1765897330995,-8,17,1,0,0,0,0,0
899,1765897331029,-10,15,1,0,0,0,0,0
900,1765897331229,-10,17,2,0,0,0,0,0
901,1765897331279,-9,17,2,0,0,0,0,0
902,1765897331445,-10,18,1,0,0,0,0,0
903,1765897331528,-9,16,2,0,0,0,0,0
904,1765897331711,-10,17,1,0,0,0,0,0
905,1765897331761,-11,18,1,0,0,0,0,0
906,1765897331928,-10,16,2,0,0,0,0,0
907,1765897332012,-10,18,1,0,0,0,0,0
908,1765897332161,-7,17,2,0,0,0,0,0
909,1765897332262,-7,17,1,0,0,0,0,0
910,1765897332395,-10,18,1,0,0,0,0,0
911,1765897332527,-10,18,1,0,0,0,0,0
912,1765897332644,-10,17,3,0,0,0,0,0
913,1765897332744,-9,17,2,0,0,0,0,0
914,1765897332877,-9,17,2,0,0,0,0,0
915,1765897333011,-9,17,1,0,0,0,0,0
916,1765897333111,-10,17,3,0,0,0,0,0
917,1765897333260,-8,17,1,0,0,0,0,0
918,1765897333344,-12,17,1,0,0,0,0,0
919,1765897333511,-10,16,2,0,0,0,0,0
920,1765897333577,-10,18,1,0,0,0,0,0
921,1765897333726,-10,16,2,0,0,0,0,0
922,1765897333826,-10,17,1,0,0,0,0,0
923,1765897333993,-10,19,3,0,0,0,0,0
924,1765897334043,-9,18,2,0,0,0,0,0
925,1765897334243,-9,17,2,0,0,0,0,0
926,1765897334276,-9,18,2,0,0,0,0,0
927,1765897334476,-9,16,3,0,0,0,0,0
928,1765897334527,-8,18,3,0,0,0,0,0
929,1765897334710,-8,18,2,0,0,0,0,0
930,1765897334759,-10,16,2,0,0,0,0,0
931,1765897334959,-8,17,3,0,0,0,0,0
932,1765897334992,-8,18,1,0,0,0,0,0
933,1765897335193,-9,19,1,0,0,0,0,0
934,1765897335259,-9,17,1,0,0,0,0,0
935,1765897335409,-9,17,3,0,0,0,0,0
936,1765897335511,-10,16,2,0,0,0,0,0
937,1765897335642,-10,16,1,0,0,0,0,0
938,1765897335758,-9,17,2,0,0,0,0,0
939,1765897335893,-12,18,3,0,0,0,0,0
940,1765897335976,-9,17,1,0,0,0,0,0
941,1765897336125,-12,16,2,0,0,0,0,0
942,1765897336224,-8,17,2,0,0,0,0,0
943,1765897336358,-11,17,2,0,0,0,0,0
944,1765897336474,-12,18,2,0,0,0,0,0
945,1765897336591,7,22,-2,0,0,0,0,0
946,1765897336724,-18,16,2,0,0,0,0,0
947,1765897336842,-7,19,0,0,0,0,0,0
948,1765897336940,-10,15,3,0,0,0,0,0
949,1765897337074,-10,20,2,0,0,0,0,0
950,1765897337174,-7,18,1,0,0,0,0,0
951,1765897337290,-12,16,1,0,0,0,0,0
952,1765897337441,-8,18,2,0,0,0,0,0
953,1765897337524,-8,15,4,0,0,0,0,0
954,1765897337690,-9,16,1,0,0,0,0,0
955,1765897337757,-10,18,2,0,0,0,0,0
956,1765897337890,-8,18,2,0,0,0,0,0
957,1765897338006,-9,15,1,0,0,0,0,0
958,1765897338140,-12,16,1,0,0,0,0,0
959,1765897338240,-9,16,2,0,0,0,0,0
960,1765897338390,-10,17,2,0,0,0,0,0
961,1765897338456,-8,15,2,0,0,0,0,0
962,1765897339718,-11,17,2,0,0,0,0,0
963,1765897339718,-7,16,2,0,0,0,0,0
964,1765897339733,-10,16,1,0,0,0,0,0
965,1765897339733,-9,16,2,0,0,0,0,0
966,1765897339733,-8,16,3,0,0,0,0,0
967,1765897339748,-9,17,1,0,0,0,0,0
968,1765897339748,-9,16,1,0,0,0,0,0
969,1765897339760,-9,18,1,0,0,0,0,0
970,1765897340271,-8,17,3,0,0,0,0,0
971,1765897340854,-8,17,3,0,0,0,0,0
972,1765897341486,-6,16,1,0,0,0,0,0
973,1765897341785,-10,16,0,0,0,0,0,0
974,1765897343868,-8,16,2,0,0,0,0,0
975,1765897343951,-10,17,2,0,0,0,0,0
976,1765897344383,-8,16,1,0,0,0,0,0
977,1765897344765,-9,16,1,0,0,0,0,0
978,1765897345065,-9,18,3,0,0,0,0,0
979,1765897345200,-9,15,1,0,0,0,0,0
980,1765897346348,-9,17,2,0,0,0,0,0
981,1765897346382,-10,17,3,0,0,0,0,0
982,1765897349246,-9,17,2,0,0,0,0,0
983,1765897350696,-8,18,2,0,0,0,0,0
984,1765897350729,-8,16,2,0,0,0,0,0
985,1765897350861,-9,16,1,0,0,0,0,0
986,1765897351346,-8,16,1,0,0,0,0,0
987,1765897351711,-9,17,3,0,0,0,0,0
988,1765897351894,-9,17,2,0,0,0,0,0
989,1765897352059,-9,16,3,0,0,0,0,0
990,1765897352276,-10,16,2,0,0,0,0,0
991,1765897352460,-7,17,2,0,0,0,0,0
992,1765897352578,-9,15,1,0,0,0,0,0
993,1765897353025,-9,18,2,0,0,0,0,0
994,1765897353658,-7,18,1,0,0,0,0,0
995,1765897353875,-9,16,2,0,0,0,0,0
996,1765897354324,-10,16,2,0,0,0,0,0
997,1765897355526,-9,16,1,0,0,0,0,0
998,1765897356223,-9,18,3,0,0,0,0,0
999,1765897357755,-8,15,3,0,0,0,0,0
1000,1765897359037,-9,16,3,0,0,0,0,0
1001,1765897359386,-9,17,3,0,0,0,0,0
1002,1765897359469,-8,16,2,0,0,0,0,0
1003,1765897359654,-10,17,3,0,0,0,0,0
1004,1765897359820,-9,17,2,0,0,0,0,0
1005,1765897363049,-9,16,2,0,0,0,0,0
1006,1765897363199,-6,16,4,0,0,0,0,0
1007,1765897363267,-9,15,1,0,0,0,0,0
1008,1765897363433,-9,16,1,0,0,0,0,0
1009,1765897363500,-10,14,3,0,0,0,0,0
1010,1765897363632,-8,16,3,0,0,0,0,0
1011,1765897363734,-9,17,2,0,0,0,0,0
1012,1765897363833,-11,16,1,0,0,0,0,0
1013,1765897363966,-9,17,2,0,0,0,0,0
1014,1765897364017,-9,18,3,0,0,0,0,0
1015,1765897364499,-8,16,1,0,0,0,0,0
1016,1765897365448,-9,15,1,0,0,0,0,0
1017,1765897366064,-8,16,0,0,0,0,0,0
1018,1765897366347,-9,15,2,0,0,0,0,0
1019,1765897366530,-9,16,1,0,0,0,0,0
1020,1765897366847,-10,15,2,0,0,0,0,0
1021,1765897367146,-10,15,2,0,0,0,0,0
1022,1765897367346,-9,16,2,0,0,0,0,0
1023,1765897367563,-9,15,-1,0,0,0,0,0
1024,1765897367730,-10,16,2,0,0,0,0,0
1025,1765897367912,-9,16,3,0,0,0,0,0
1026,1765897368428,-8,16,2,0,0,0,0,0
1027,1765897368612,-9,16,1,0,0,0,0,0
1028,1765897371060,-9,15,2,0,0,0,0,0
1029,1765897371443,-10,16,2,0,0,0,0,0
1030,1765897371592,-10,15,1,0,0,0,0,0
1031,1765897371942,-10,18,3,0,0,0,0,0
1032,1765897372092,-9,17,2,0,0,0,0,0
1033,1765897373575,-8,16,2,0,0,0,0,0
1034,1765897373590,-9,17,2,0,0,0,0,0
1035,1765897374989,-9,17,0,0,0,0,0,0
1036,1765897375472,-10,16,1,0,0,0,0,0
1037,1765897376771,-10,18,2,0,0,0,0,0
1038,1765897377220,-9,16,2,0,0,0,0,0
1039,1765897377271,-7,15,1,0,0,0,0,0
1040,1765897377571,-9,16,2,0,0,0,0,0
1041,1765897377887,-10,16,2,0,0,0,0,0
1042,1765897378869,-10,16,1,0,0,0,0,0
1043,1765897379802,-8,15,1,0,0,0,0,0
1044,1765897379903,-8,16,2,0,0,0,0,0
1045,1765897381101,-8,15,1,0,0,0,0,0
1046,1765897381351,-10,16,2,0,0,0,0,0
1047,1765897381701,-9,17,2,0,0,0,0,0
1048,1765897382433,-31,19,-4,0,0,0,0,0
1049,1765897382533,11,-17,-5,0,0,0,0,0
1050,1765897382949,-43,-29,-20,0,0,0,0,0
1051,1765897383216,12,-24,25,0,0,0,0,0
1052,1765897384502,-24,-66,8,0,0,0,0,0
1053,1765897385547,-40,-188,3,0,0,0,0,0
1054,1765897386395,-4,-278,19,0,0,0,0,0
1055,1765897386946,3,-76,2,0,0,0,0,0
1056,1765897387196,-16,-7,41,0,0,0,0,0
1057,1765897387729,-22,32,-39,0,0,0,0,0
1058,1765897387978,5,29,-19,0,0,0,0,0
1059,1765897388829,39,-338,-6,0,0,0,0,0
1060,1765897389911,11,-367,26,0,0,0,0,0
1061,1765897391243,6,-399,28,0,0,0,0,0
1062,1765897392209,66,-371,26,0,0,0,0,0
1063,1765897392375,-2,-387,23,0,0,0,0,0
1064,1765897393241,-10,47,-3,0,0,0,0,0
1065,1765897393974,7,145,-42,0,0,0,0,0
1066,1765897395525,-11,-195,-1,0,0,0,0,0
1067,1765897397056,16,294,-46,0,0,0,0,0
1068,1765897397339,-59,246,-16,0,0,0,0,0
1069,1765897397373,19,-175,-26,0,0,0,0,0
1070,1765897397623,8,-252,-38,0,0,0,0,0
1071,1765897400836,10,489,-61,0,0,0,0,0
1072,1765897401502,-166,748,-116,0,0,0,0,0
1073,1765897402900,-21,579,-27,0,0,0,0,0
1074,1765897403667,-30,307,-16,0,0,0,0,0
1075,1765897403885,1,-141,8,0,0,0,0,0
1076,1765897404401,-28,-56,77,0,0,0,0,0
1077,1765897404718,-43,489,1,0,0,0,0,0
1078,1765897406849,3,-675,3,0,0,0,0,0
1079,1765897409728,-144,-439,-71,0,0,0,0,0
1080,1765897410145,126,-341,86,0,0,0,0,0
1081,1765897412809,-83,-41,11,0,0,0,0,0
1082,1765897413009,63,-74,-26,0,0,0,0,0
1083,1765897413226,-18,-75,50,0,0,0,0,0
1084,1765897413608,-21,-64,105,0,0,0,0,0
1085,1765897414293,-4,-122,0,0,0,0,0,0
1086,1765897415073,-64,-92,-64,0,0,0,0,0
1087,1765897415456,-90,-56,64,0,0,0,0,0
1088,1765897415690,24,9,46,0,0,0,0,0
1089,1765897415956,0,-64,59,0,0,0,0,0
1090,1765897416321,16,-72,17,0,0,0,0,0
1091,1765897418162,61,-421,6,0,0,0,0,0
1092,1765897418162,57,-465,98,0,0,0,0,0
1093,1765897418205,-79,71,-222,0,0,0,0,0
1094,1765897419138,-198,-507,88,0,0,0,0,0
1095,1765897419937,-59,-694,3,0,0,0,0,0
1096,1765897421885,78,-1588,98,0,0,0,0,0
1097,1765897427414,-265,0,2,0,0,0,0,0
1098,1765897427814,-8,14,0,0,0,0,0,0
1099,1765897428263,-5,17,2,0,0,0,0,0
1100,1765897428329,-9,16,2,0,0,0,0,0
1101,1765897429012,-10,19,4,0,0,0,0,0
1102,1765897429195,-8,17,1,0,0,0,0,0
1103,1765897429545,-11,18,2,0,0,0,0,0
1104,1765897433391,-13,278,-14,0,0,0,0,0
1105,1765897433492,-21,275,-26,0,0,0,0,0
1106,1765897433910,-1,28,-3,0,0,0,0,0
1107,1765897434790,3,-333,28,0,0,0,0,0
1108,1765897436472,-7,-711,56,0,0,0,0,0
1109,1765897438037,84,-591,111,0,0,0,0,0
1110,1765897438521,-31,-684,152,0,0,0,0,0
1111,1765897440451,-188,-149,-13,0,0,0,0,0
1112,1765897440735,9,-119,50,0,0,0,0,0
1113,1765897443266,66,108,-25,0,0,0,0,0
1114,1765897444633,25,65,-43,0,0,0,0,0
1115,1765897444648,105,76,-4,0,0,0,0,0
1116,1765897444666,88,36,-15,0,0,0,0,0
1117,1765897444680,-24,-7,-22,0,0,0,0,0
1118,1765897444714,-64,-10,-25,0,0,0,0,0
1119,1765897445030,59,-21,-31,0,0,0,0,0
1120,1765897445297,-7,-56,13,0,0,0,0,0
1121,1765897445549,-80,-54,-20,0,0,0,0,0
1122,1765897445863,110,-52,46,0,0,0,0,0
1123,1765897446279,56,-43,52,0,0,0,0,0
1124,1765897446711,-14,-195,75,0,0,0,0,0
1125,1765897446995,-57,-208,-17,0,0,0,0,0
1126,1765897447910,9,516,-31,0,0,0,0,0
1127,1765897448177,-64,453,-58,0,0,0,0,0
1128,1765897448528,12,76,19,0,0,0,0,0
1129,1765897448794,-70,-23,-33,0,0,0,0,0
1130,1765897448944,35,-412,79,0,0,0,0,0
1131,1765897449210,47,-474,61,0,0,0,0,0
1132,1765897449626,9,-343,47,0,0,0,0,0
1133,1765897450742,-22,159,-16,0,0,0,0,0
1134,1765897450926,-58,-266,-27,0,0,0,0,0
1135,1765897451210,24,-495,11,0,0,0,0,0
1136,1765897452390,17,-489,-1,0,0,0,0,0
1137,1765897453472,108,-406,27,0,0,0,0,0
1138,1765897454306,-18,-320,42,0,0,0,0,0
1139,1765897455704,-42,-1186,95,0,0,0,0,0
1140,1765897457470,-22,21,0,0,0,0,0,0
1141,1765897457918,-13,19,-1,0,0,0,0,0
1142,1765897460667,-5,139,4,0,0,0,0,0
1143,1765897460966,0,144,2,0,0,0,0,0
1144,1765897462848,-2,13,4,0,0,0,0,0
1145,1765897464148,-8,16,1,0,0,0,0,0
1146,1765897465249,-10,17,1,0,0,0,0,0
1147,1765897466611,-7,17,4,0,0,0,0,0
1148,1765897466628,-9,17,1,0,0,0,0,0
1149,1765897466645,-7,16,2,0,0,0,0,0
1150,1765897469759,-8,18,1,0,0,0,0,0
1151,1765897469975,-9,20,3,0,0,0,0,0
1152,1765897470407,-8,17,2,0,0,0,0,0
1153,1765897470541,-11,16,1,0,0,0,0,0
1154,1765897470657,-11,17,2,0,0,0,0,0
1155,1765897471041,-9,17,2,0,0,0,0,0
1156,1765897471359,-9,17,1,0,0,0,0,0
1157,1765897471625,-6,16,4,0,0,0,0,0
1158,1765897471707,-9,15,3,0,0,0,0,0
1159,1765897472157,-10,17,3,0,0,0,0,0
1160,1765897474406,-22,73,-5,0,0,0,0,0
1161,1765897474623,-21,86,-7,0,0,0,0,0
1162,1765897475871,-32,156,2,0,0,0,0,0
1163,1765897476037,-19,177,5,0,0,0,0,0
1164,1765897477552,-9,166,0,0,0,0,0,0
1165,1765897477561,-32,164,-13,0,0,0,0,0
1166,1765897477587,-20,179,4,0,0,0,0,0
1167,1765897478218,-12,73,3,0,0,0,0,0
1168,1765897479018,-10,34,6,0,0,0,0,0
1169,1765897479733,-10,14,5,0,0,0,0,0
1170,1765897481915,-8,16,2,0,0,0,0,0
1171,1765897482267,-9,16,2,0,0,0,0,0
1172,1765897482515,-8,16,2,0,0,0,0,0
1173,1765897484897,-11,17,3,0,0,0,0,0
1174,1765897486994,-11,16,2,0,0,0,0,0
1175,1765897488621,-9,17,3,0,0,0,0,0
1176,1765897488659,-9,17,3,0,0,0,0,0
1177,1765897488659,-10,17,2,0,0,0,0,0
1178,1765897488676,-11,18,2,0,0,0,0,0
1179,1765897488975,-10,15,3,0,0,0,0,0
1180,1765897489925,-10,18,1,0,0,0,0,0
1181,1765897490357,-10,16,2,0,0,0,0,0
1182,1765897490957,-10,17,2,0,0,0,0,0
1183,1765897491191,-10,17,2,0,0,0,0,0
1184,1765897492255,-10,16,1,0,0,0,0,0
1185,1765897494155,-11,17,2,0,0,0,0,0
1186,1765897495055,-9,18,2,0,0,0,0,0
1187,1765897495221,-11,17,1,0,0,0,0,0
1188,1765897495505,-11,18,2,0,0,0,0,0
1189,1765897497219,-10,17,2,0,0,0,0,0
1190,1765897499600,-9,17,1,0,0,0,0,0
1191,1765897502763,-9,18,1,0,0,0,0,0
1192,1765897503297,-9,17,2,0,0,0,0,0
1193,1765897503530,-8,16,1,0,0,0,0,0
1194,1765897503796,-9,17,2,0,0,0,0,0
1195,1765897504047,-11,16,2,0,0,0,0,0
1196,1765897505229,-10,17,3,0,0,0,0,0
1197,1765897506711,-9,17,2,0,0,0,0,0
1198,1765897507478,-11,17,2,0,0,0,0,0
1199,1765897508710,-10,17,2,0,0,0,0,0
1200,1765897508893,-9,17,1,0,0,0,0,0
1201,1765897510541,-9,17,2,0,0,0,0,0
1202,1765897510541,-9,18,1,0,0,0,0,0
1203,1765897510557,-8,16,1,0,0,0,0,0
1204,1765897510873,-10,16,2,0,0,0,0,0
1205,1765897514255,-10,16,2,0,0,0,0,0
1206,1765897514439,-8,17,3,0,0,0,0,0
1207,1765897514721,-10,19,2,0,0,0,0,0
1208,1765897515253,-8,17,2,0,0,0,0,0
1209,1765897516020,-10,16,1,0,0,0,0,0
1210,1765897518602,-10,17,3,0,0,0,0,0
1211,1765897518935,-8,16,2,0,0,0,0,0
1212,1765897521492,-8,15,3,0,0,0,0,0
1213,1765897522298,-9,16,2,0,0,0,0,0
1214,1765897522532,-10,17,1,0,0,0,0,0
1215,1765897524199,-10,17,2,0,0,0,0,0
1216,1765897524214,-8,15,1,0,0,0,0,0
1217,1765897527528,-11,16,2,0,0,0,0,0
1218,1765897527711,-8,17,2,0,0,0,0,0
1219,1765897528061,-8,15,1,0,0,0,0,0
1220,1765897528244,-9,15,2,0,0,0,0,0
1221,1765897532524,-8,18,1,0,0,0,0,0
1222,1765897532539,-11,16,0,0,0,0,0,0
1223,1765897532789,-9,17,2,0,0,0,0,0
1224,1765897532975,-9,16,1,0,0,0,0,0
1225,1765897533324,-8,16,3,0,0,0,0,0
1226,1765897533489,-11,17,1,0,0,0,0,0
1227,1765897533738,-9,15,2,0,0,0,0,0
1228,1765897534438,-11,16,1,0,0,0,0,0
1229,1765897534971,-9,18,2,0,0,0,0,0
1230,1765897535254,-8,17,2,0,0,0,0,0
1231,1765897535470,-8,15,1,0,0,0,0,0
1232,1765897535756,-10,16,1,0,0,0,0,0
1233,1765897537154,-9,18,2,0,0,0,0,0
1234,1765897540234,-10,17,2,0,0,0,0,0
1235,1765897540483,-8,16,2,0,0,0,0,0
1236,1765897543796,-10,17,2,0,0,0,0,0
1237,1765897544214,-10,17,2,0,0,0,0,0
1238,1765897546812,-10,17,3,0,0,0,0,0
1239,1765897548743,-7,16,1,0,0,0,0,0
1240,1765897549276,-9,15,3,0,0,0,0,0
1241,1765897549558,-8,16,1,0,0,0,0,0
1242,1765897552422,-10,15,3,0,0,0,0,0
1243,1765897552972,-8,16,2,0,0,0,0,0
1244,1765897554487,-8,17,2,0,0,0,0,0
1245,1765897556467,-8,16,1,0,0,0,0,0
1246,1765897558134,-11,15,2,0,0,0,0,0
1247,1765897558283,-15,-54,22,0,0,0,0,0
1248,1765897558500,28,81,-13,0,0,0,0,0
1249,1765897559500,-6,147,-12,0,0,0,0,0
1250,1765897559583,-36,178,11,0,0,0,0,0
1251,1765897559800,-22,184,-13,0,0,0,0,0
1252,1765897560100,-31,172,-18,0,0,0,0,0
1253,1765897562897,18,-13,48,0,0,0,0,0
1254,1765897563280,-19,-367,23,0,0,0,0,0
1255,1765897563913,64,-287,38,0,0,0,0,0
1256,1765897565462,-43,277,17,0,0,0,0,0
1257,1765897565643,-41,287,-45,0,0,0,0,0
1258,1765897568874,-49,576,-3,0,0,0,0,0
1259,1765897569174,-85,673,-86,0,0,0,0,0
1260,1765897569291,18,704,-8,0,0,0,0,0
1261,1765897569575,-59,749,10,0,0,0,0,0
1262,1765897569892,-126,179,31,0,0,0,0,0
1263,1765897571623,-22,672,-55,0,0,0,0,0
1264,1765897574336,-129,799,-28,0,0,0,0,0
1265,1765897574687,-19,358,-52,0,0,0,0,0
1266,1765897576534,68,-769,74,0,0,0,0,0
1267,1765897576585,7,-496,23,0,0,0,0,0
1268,1765897577284,47,-452,62,0,0,0,0,0
1269,1765897578117,70,-262,-23,0,0,0,0,0
1270,1765897578499,5,-520,-70,0,0,0,0,0
1271,1765897579598,-79,-274,-36,0,0,0,0,0
1272,1765897581580,-26,-137,7,0,0,0,0,0
1273,1765897581863,-47,-105,4,0,0,0,0,0
1274,1765897582330,17,-104,-23,0,0,0,0,0
1275,1765897582563,17,-33,-41,0,0,0,0,0
1276,1765897582747,-68,-38,-53,0,0,0,0,0
1277,1765897585444,34,-157,-2186,0,0,0,0,0
1278,1765897585544,61,-96,50,0,0,0,0,0
1279,1765897586011,84,-201,-42,0,0,0,0,0
1280,1765897589706,61,-135,72,0,0,0,0,0
1281,1765897590357,34,-188,29,0,0,0,0,0
1282,1765897590739,72,-112,23,0,0,0,0,0
1283,1765897590925,-29,-9,17,0,0,0,0,0
1284,1765897592223,-22,17,19,0,0,0,0,0
1285,1765897594320,-31,8,12,0,0,0,0,0
1286,1765897594820,71,44,56,0,0,0,0,0
1287,1765897595319,-19,33,13,0,0,0,0,0
1288,1765897595586,-112,70,48,0,0,0,0,0
1289,1765897595919,-87,11,6,0,0,0,0,0
1290,1765897596202,46,40,-17,0,0,0,0,0
1291,1765897597534,16,-63,-13,0,0,0,0,0
1292,1765897599049,-23,-78,28,0,0,0,0,0
1293,1765897600033,111,677,-21,0,0,0,0,0
1294,1765897600315,23,372,-19,0,0,0,0,0
1295,1765897602579,43,9,34,0,0,0,0,0
1296,1765897604012,67,-386,2,0,0,0,0,0
1297,1765897604212,-20,-351,-17,0,0,0,0,0
1298,1765897604511,95,-387,119,0,0,0,0,0
1299,1765897604762,20,-428,24,0,0,0,0,0
1300,1765897606260,41,-475,24,0,0,0,0,0
1301,1765897607592,9,-327,-5,0,0,0,0,0
1302,1765897610041,-39,-424,-8,0,0,0,0,0
1303,1765897610041,35,-566,25,0,0,0,0,0
1304,1765897610057,-8,-729,-46,0,0,0,0,0
1305,1765897610073,79,-848,40,0,0,0,0,0
1306,1765897611405,-79,412,-25,0,0,0,0,0
1307,1765897612653,42,-372,67,0,0,0,0,0
1308,1765897613238,15,-19,-44,0,0,0,0,0
1309,1765897613870,-23,-62,12,0,0,0,0,0
1310,1765897613920,11,-90,-439,0,0,0,0,0
1311,1765897614852,-37,96,25,0,0,0,0,0
1312,1765897616218,-83,644,-124,0,0,0,0,0
1313,1765897616469,4,655,55,0,0,0,0,0
1314,1765897616751,-83,533,-55,0,0,0,0,0
1315,1765897617034,-5,459,-35,0,0,0,0,0
1316,1765897617402,-54,618,88,0,0,0,0,0
1317,1765897619233,-70,707,-84,0,0,0,0,0
1318,1765897622579,-1,-610,-16,0,0,0,0,0
1319,1765897622795,20,-771,50,0,0,0,0,0
1320,1765897622861,24,-851,38,0,0,0,0,0
1321,1765897623128,30,-406,29,0,0,0,0,0
1322,1765897623512,16,-561,85,0,0,0,0,0
1323,1765897624627,-44,-394,121,0,0,0,0,0
1324,1765897624678,-11,-395,-11,0,0,0,0,0
1325,1765897625610,91,-394,27,0,0,0,0,0
1326,1765897626277,19,-345,-40,0,0,0,0,0
1327,1765897626592,-19,-317,-28,0,0,0,0,0
1328,1765897627075,71,-289,-25,0,0,0,0,0
1329,1765897628825,20,-219,-7,0,0,0,0,0
1330,1765897630906,-42,-83,-38,0,0,0,0,0
1331,1765897632348,-44,-81,-60,0,0,0,0,0
1332,1765897632372,-42,-82,11,0,0,0,0,0
1333,1765897632372,6,-28,18,0,0,0,0,0
1334,1765897635519,-2,-108,-22,0,0,0,0,0
1335,1765897635687,19,-63,15,0,0,0,0,0
1336,1765897636034,5,-35,-46,0,0,0,0,0
1337,1765897636751,-59,48,16,0,0,0,0,0
1338,1765897638449,-101,-304,214,0,0,0,0,0
1339,1765897639648,107,-502,56,0,0,0,0,0
1340,1765897639898,-59,-404,-34,0,0,0,0,0
1341,1765897640265,21,-297,-15,0,0,0,0,0
1342,1765897640730,52,-363,55,0,0,0,0,0
1343,1765897642248,2,23,26,0,0,0,0,0
1344,1765897643962,-48,-28,6,0,0,0,0,0
1345,1765897643977,-6,-6,22,0,0,0,0,0
1346,1765897647292,69,-52,65,0,0,0,0,0
1347,1765897647675,-8,-22,-25,0,0,0,0,0
1348,1765897648958,1,-34,-1,0,0,0,0,0
1349,1765897649340,6,-80,36,0,0,0,0,0
1350,1765897650556,-15,481,6,0,0,0,0,0
1351,1765897651605,19,-507,58,0,0,0,0,0
1352,1765897651788,24,-464,-27,0,0,0,0,0
1353,1765897652071,0,-466,1,0,0,0,0,0
1354,1765897652404,48,-403,140,0,0,0,0,0
1355,1765897655051,-7,-414,-32,0,0,0,0,0
1356,1765897655085,83,-426,15,0,0,0,0,0
1357,1765897655568,-99,-330,7,0,0,0,0,0
1358,1765897655951,41,-286,51,0,0,0,0,0
1359,1765897656018,62,-401,18,0,0,0,0,0
1360,1765897656217,36,-399,-13,0,0,0,0,0
1361,1765897656633,10,-414,-46,0,0,0,0,0
1362,1765897657366,-49,-730,188,0,0,0,0,0
1363,1765897657515,-89,-410,38,0,0,0,0,0
1364,1765897657865,-235,-570,3,0,0,0,0,0
1365,1765897657915,-56,110,9,0,0,0,0,0
1366,1765897658115,167,206,35,0,0,0,0,0
1367,1765897658749,-35,-403,96,0,0,0,0,0
1368,1765897658998,-11,-240,7,0,0,0,0,0
1369,1765897659648,-30,87,-26,0,0,0,0,0
1370,1765897662063,-49,-82,84,0,0,0,0,0
1371,1765897663045,108,728,-83,0,0,0,0,0
1372,1765897663329,-100,512,-171,0,0,0,0,0
1373,1765897663928,15,148,58,0,0,0,0,0
1374,1765897664128,-23,133,-8,0,0,0,0,0
1375,1765897666110,29,460,5,0,0,0,0,0
1376,1765897666127,-110,576,-70,0,0,0,0,0
1377,1765897666692,45,155,164,0,0,0,0,0
1378,1765897667175,-22,586,37,0,0,0,0,0
1379,1765897667624,-18,576,-11,0,0,0,0,0
1380,1765897670807,132,604,22,0,0,0,0,0
1381,1765897671323,-34,287,-63,0,0,0,0,0
1382,1765897672621,6,-605,28,0,0,0,0,0
1383,1765897674286,-72,-550,25,0,0,0,0,0
1384,1765897674804,131,-425,52,0,0,0,0,0
1385,1765897675070,40,-472,16,0,0,0,0,0
1386,1765897677533,-131,-74,-43,0,0,0,0,0
1387,1765897678282,60,-35,-47,0,0,0,0,0
1388,1765897681713,1044,-18436,-101,0,0,0,0,0
1389,1765897684743,210,-405,-24,0,0,0,0,0
1390,1765897685327,122,-582,197,0,0,0,0,0
1391,1765897686160,-67,-372,47,0,0,0,0,0
1392,1765897686475,64,-281,14,0,0,0,0,0
1393,1765897689189,12,-68,-61,0,0,0,0,0
1394,1765897689207,-46,-85,30,0,0,0,0,0
1395,1765897689356,-61,-35,32,0,0,0,0,0
1396,1765897690289,-147,18,2,0,0,0,0,0
1397,1765897691771,3,-12,12,0,0,0,0,0
1398,1765897695901,17,-535,66,0,0,0,0,0
1399,1765897696484,0,32,12,0,0,0,0,0
1400,1765897696734,3,59,4,0,0,0,0,0
1401,1765897698183,12,-340,62,0,0,0,0,0
1402,1765897700429,46,-213,53,0,0,0,0,0
1403,1765897700429,17,-160,-19,0,0,0,0,0
1404,1765897700513,50,-192,51,0,0,0,0,0
1405,1765897700780,249,-321,-20,0,0,0,0,0
1406,1765897705126,-35,-313,25,0,0,0,0,0
1407,1765897705393,74,-254,56,0,0,0,0,0
1408,1765897706292,-22,-128,92,0,0,0,0,0
1409,1765897707441,54,558,-6,0,0,0,0,0
1410,1765897708174,-1,229,-115,0,0,0,0,0
1411,1765897708340,-53,74,14,0,0,0,0,0
1412,1765897708624,-66,-440,111,0,0,0,0,0
1413,1765897708724,-90,-24,71,0,0,0,0,0
1414,1765897711404,89,659,250,0,0,0,0,0
1415,1765897711454,-8,597,27,0,0,0,0,0
1416,1765897712586,-20,759,-25,0,0,0,0,0
1417,1765897712836,-40,744,-98,0,0,0,0,0
1418,1765897712952,-16,718,-26,0,0,0,0,0
1419,1765897713152,-28,671,-82,0,0,0,0,0
1420,1765897713951,7,-390,-6,0,0,0,0,0
1421,1765897715802,-49,178,-58,0,0,0,0,0
1422,1765897715885,10,-152,-7,0,0,0,0,0
1423,1765897716167,55,-434,-1,0,0,0,0,0
1424,1765897717350,26,-755,58,0,0,0,0,0
1425,1765897718984,79,-566,85,0,0,0,0,0
1426,1765897719549,-133,-500,-151,0,0,0,0,0
1427,1765897719815,-27,-451,-42,0,0,0,0,0
1428,1765897720747,62,-282,3,0,0,0,0,0
1429,1765897722539,11,-232,31,0,0,0,0,0
1430,1765897722562,-7,-141,-34,0,0,0,0,0
1431,1765897722579,21,-146,1,0,0,0,0,0
1432,1765897722595,-26,-46,-44,0,0,0,0,0
1433,1765897722596,-41,-20,-17,0,0,0,0,0
1434,1765897723344,-14,-2385,-2672,0,0,0,0,0
1435,1765897723843,34,-109,63,0,0,0,0,0
1436,1765897725109,-43,-90,10,0,0,0,0,0
1437,1765897727592,-14,-349,-4,0,0,0,0,0
1438,1765897727774,119,-439,-252,0,0,0,0,0
1439,1765897728124,-31,-538,147,0,0,0,0,0
1440,1765897728274,-24,-535,43,0,0,0,0,0
1441,1765897728623,46,-444,-41,0,0,0,0,0
1442,1765897729575,-7,-289,21,0,0,0,0,0
1443,1765897731473,106,-29,12,0,0,0,0,0
1444,1765897731888,6,16,-8,0,0,0,0,0
1445,1765897732322,-19,-32,9,0,0,0,0,0
1446,1765897735502,74,34,-22,0,0,0,0,0
1447,1765897736350,-6,-33,38,0,0,0,0,0
1448,1765897736468,47,0,0,0,0,0,0,0
1449,1765897736701,-93,4,-6,0,0,0,0,0
1450,1765897736967,-135,10,-82,0,0,0,0,0
1451,1765897737300,76,-5,0,0,0,0,0,0
1452,1765897737466,-22,-102,7,0,0,0,0,0
1453,1765897737750,-58,-121,85,0,0,0,0,0
1454,1765897738083,-55,-153,4,0,0,0,0,0
1455,1765897738167,31,-138,-11,0,0,0,0,0
1456,1765897738584,1,-110,23,0,0,0,0,0
1457,1765897740581,-23,-464,118,0,0,0,0,0
1458,1765897741231,84,-424,87,0,0,0,0,0
1459,1765897741415,61,-290,143,0,0,0,0,0
1460,1765897741713,29,-156,110,0,0,0,0,0
1461,1765897741796,42,63,34,0,0,0,0,0
1462,1765897742246,-27,166,-36,0,0,0,0,0
1463,1765897742530,30,-242,-44,0,0,0,0,0
1464,1765897742929,-9,-349,-65,0,0,0,0,0
1465,1765897743329,28,-469,81,0,0,0,0,0
1466,1765897745108,-7,-471,149,0,0,0,0,0
1467,1765897745409,-9,-305,118,0,0,0,0,0
1468,1765897746259,-22,-459,-37,0,0,0,0,0
1469,1765897746427,76,-399,164,0,0,0,0,0
1470,1765897747008,251,-658,63,0,0,0,0,0
1471,1765897747290,129,-640,-14,0,0,0,0,0
1472,1765897748390,-13,-449,58,0,0,0,0,0
1473,1765897749989,9,-4,-45,0,0,0,0,0
1474,1765897750606,-40,-308,40,0,0,0,0,0
1475,1765897751471,-33,242,47,0,0,0,0,0
1476,1765897752072,-46,513,-38,0,0,0,0,0
1477,1765897753752,3,-61,-3,0,0,0,0,0
1478,1765897753887,-18,-45,-3,0,0,0,0,0
1479,1765897756117,-102,1061,-19,0,0,0,0,0
1480,1765897756117,19,541,-75,0,0,0,0,0
1481,1765897756134,12,-89,30,0,0,0,0,0
1482,1765897757017,-12,389,-39,0,0,0,0,0
1483,1765897758581,-22,274,-251,0,0,0,0,0
1484,1765897759231,3,-252,-17,0,0,0,0,0
1485,1765897763962,-41,-554,60,0,0,0,0,0
1486,1765897764244,110,-480,38,0,0,0,0,0
1487,1765897764865,-25,-383,182,0,0,0,0,0
1488,1765897778133,58,-55,71,0,0,0,0,0
1489,1765897778149,28,13250,-3139,0,0,0,0,0
1490,1765897779180,-97,-30,-13,0,0,0,0,0
1491,1765897782511,15,-13,-32,0,0,0,0,0
1492,1765897784760,-8,19,-37,0,0,0,0,0
1493,1765897784910,-86,430,-41,0,0,0,0,0
1494,1765897785110,-1,504,12,0,0,0,0,0
1495,1765897785426,24,428,-25,0,0,0,0,0
1496,1765897785659,-8,354,-19,0,0,0,0,0
1497,1765897785926,-52,267,-63,0,0,0,0,0
1498,1765897786259,35,-506,58,0,0,0,0,0
1499,1765897786326,21,-460,24,0,0,0,0,0
1500,1765897787643,11,139,35,0,0,0,0,0
1501,1765897789938,21,-261,19,0,0,0,0,0
1502,1765897790172,31,-286,-35,0,0,0,0,0
1503,1765897791952,1,-429,50,0,0,0,0,0
1504,1765897792370,218,-763,34,0,0,0,0,0
1505,1765897794101,-34,-75,12,0,0,0,0,0
1506,1765897794368,-26,258,20,0,0,0,0,0
1507,1765897794667,9,321,-72,0,0,0,0,0
1508,1765897797266,-253,467,-38,0,0,0,0,0
1509,1765897797850,22,290,-70,0,0,0,0,0
1510,1765897798167,34,-233,-59,0,0,0,0,0
1511,1765897798465,-1,-338,11,0,0,0,0,0
1512,1765897798915,-61,-72,66,0,0,0,0,0
1513,1765897800214,-31,718,-26,0,0,0,0,0
1514,1765897800548,19,655,-14,0,0,0,0,0
1515,1765897801129,-100,512,-154,0,0,0,0,0
1516,1765897804126,8,-193,-26,0,0,0,0,0
1517,1765897806757,66,-504,58,0,0,0,0,0
1518,1765897806960,26,-499,43,0,0,0,0,0
1519,1765897807490,17,-582,44,0,0,0,0,0
1520,1765897807724,23,-555,101,0,0,0,0,0
1521,1765897808623,11,-562,54,0,0,0,0,0
1522,1765897809690,89,-535,-57,0,0,0,0,0
1523,1765897811205,70,-347,-48,0,0,0,0,0
1524,1765897814201,31,-84,25,0,0,0,0,0
1525,1765897815899,-47,-63,12,0,0,0,0,0
1526,1765897816199,-3181,-237,-60,0,0,0,0,0
1527,1765897816349,27,-22,-37,0,0,0,0,0
1528,1765897817947,61,-365,-3,0,0,0,0,0
1529,1765897819265,4,-450,16,0,0,0,0,0
1530,1765897819463,11,-460,4,0,0,0,0,0
1531,1765897819564,48,-389,26,0,0,0,0,0
1532,1765897819830,-129,-391,25,0,0,0,0,0
1533,1765897819880,-25,-324,-34,0,0,0,0,0
1534,1765897820496,9,-302,-24,0,0,0,0,0
1535,1765897820747,-24,-250,55,0,0,0,0,0
1536,1765897820845,-30,-244,3,0,0,0,0,0
1537,1765897821079,-4,-242,13,0,0,0,0,0
1538,1765897821163,-35,-126,-36,0,0,0,0,0
1539,1765897821479,-107,-160,-51,0,0,0,0,0
1540,1765897821711,57,-129,-121,0,0,0,0,0
1541,1765897835522,-30,-213,11,0,0,0,0,0
1542,1765897836448,-11,-428,42,0,0,0,0,0
1543,1765897836931,9,-431,15,0,0,0,0,0
1544,1765897839296,90,-469,-16,0,0,0,0,0
1545,1765897839462,53,-308,31,0,0,0,0,0
1546,1765897839646,21,-267,91,0,0,0,0,0
1547,1765897840730,0,646,-127,0,0,0,0,0
1548,1765897840795,-160,78,-30,0,0,0,0,0
1549,1765897841079,132,-74,-59,0,0,0,0,0
1550,1765897842544,-11,370,-43,0,0,0,0,0
1551,1765897842843,-272,685,-332,0,0,0,0,0
1552,1765897843093,-60,543,-237,0,0,0,0,0
1553,1765897843909,-87,547,-29,0,0,0,0,0
1554,1765897848373,10,-333,-15,0,0,0,0,0
1555,1765897848389,-4,-343,26,0,0,0,0,0
1556,1765897848454,-20,259,-60,0,0,0,0,0
1557,1765897850004,65,-649,63,0,0,0,0,0
1558,1765897850453,-71,-579,55,0,0,0,0,0
1559,1765897850686,-76,-529,208,0,0,0,0,0
1560,1765897851119,-92,-510,14,0,0,0,0,0
1561,1765897851353,-5,-611,10,0,0,0,0,0
1562,1765897851420,68,-572,-11,0,0,0,0,0
1563,1765897851720,17,-540,-30,0,0,0,0,0
1564,1765897852218,69,-447,-7,0,0,0,0,0
1565,1765897852685,-2,-444,107,0,0,0,0,0
1566,1765897853502,-78,-323,-24,0,0,0,0,0
1567,1765897855317,-47,-120,-12,0,0,0,0,0
1568,1765897857265,39,-130,82,0,0,0,0,0
1569,1765897857665,62,-145,117,0,0,0,0,0
1570,1765897857831,-38,-71,143,0,0,0,0,0
1571,1765897859529,-9,-46,-31,0,0,0,0,0
1572,1765897860794,35,-261,-60,0,0,0,0,0
1573,1765897861045,-77,-292,29,0,0,0,0,0
1574,1765897861110,-20,-357,-3,0,0,0,0,0
1575,1765897861327,85,-350,4,0,0,0,0,0
1576,1765897864042,69,-1452,85,0,0,0,0,0
1577,1765897864358,91,-1220,129,0,0,0,0,0
1578,1765897869088,20,108,3,0,0,0,0,0
1579,1765897871769,46,-695,24646,0,0,0,0,0
1580,1765897872285,135,-730,107,0,0,0,0,0
1581,1765897876282,-1,-130,-4,0,0,0,0,0
1582,1765897878646,-12,93,12,0,0,0,0,0
1583,1765897878696,-6,68,-5,0,0,0,0,0
1584,1765897878962,13,14,-10,0,0,0,0,0
1585,1765897879063,17,0,38,0,0,0,0,0
1586,1765897882959,-9,17,1,0,0,0,0,0
1587,1765897883743,-8,17,1,0,0,0,0,0
1588,1765897884375,-8,16,1,0,0,0,0,0
1589,1765897886906,-10,17,1,0,0,0,0,0
1590,1765897887756,-9,17,2,0,0,0,0,0
1591,1765897888039,-5,16,3,0,0,0,0,0
1592,1765897888305,-7,17,2,0,0,0,0,0
1593,1765897890195,-10,16,3,0,0,0,0,0
1594,1765897892035,-8,16,2,0,0,0,0,0
1595,1765897892401,-9,17,0,0,0,0,0,0
1596,1765897893050,-9,16,1,0,0,0,0,0
1597,1765897893200,-8,15,2,0,0,0,0,0
1598,1765897893767,-9,15,3,0,0,0,0,0
1599,1765897893982,-9,14,3,0,0,0,0,0
1600,1765897894168,-10,17,1,0,0,0,0,0
1601,1765897897515,-9,15,3,0,0,0,0,0
1602,1765897901544,-9,16,2,0,0,0,0,0
1603,1765897909671,-7,15,0,0,0,0,0,0
1604,1765897913451,-7,16,2,0,0,0,0,0
1605,1765897913618,-11,16,2,0,0,0,0,0
1606,1765897913868,-8,16,1,0,0,0,0,0
1607,1765897913983,-9,15,2,0,0,0,0,0
1608,1765897914733,-10,16,1,0,0,0,0,0
1609,1765897915083,-9,784,1,0,0,0,0,0
1610,1765897915766,-9,16,2,0,0,0,0,0
1611,1765897916148,-10,16,2,0,0,0,0,0
1612,1765897916982,-9,16,1,0,0,0,0,0
1613,1765897917081,-9,17,1,0,0,0,0,0
1614,1765897918995,-9,16,1,0,0,0,0,0
1615,1765897919012,-9,16,3,0,0,0,0,0
1616,1765897919012,-8,16,2,0,0,0,0,0
1617,1765897919012,-9,16,1,0,0,0,0,0
1618,1765897919028,-9,16,3,0,0,0,0,0
1619,1765897919029,-9,16,1,0,0,0,0,0
1620,1765897919045,-10,16,2,0,0,0,0,0
1621,1765897919045,-9,16,2,0,0,0,0,0
1622,1765897919061,-8,16,1,0,0,0,0,0
1623,1765897919111,-7,16,2,0,0,0,0,0
1624,1765897919478,-10,16,2,0,0,0,0,0
1625,1765897919878,-8,16,2,0,0,0,0,0
1626,1765897920261,-9,17,2,0,0,0,0,0
1627,1765897920461,-8,16,1,0,0,0,0,0
1628,1765897920827,-8,17,2,0,0,0,0,0
1629,1765897921143,-10,16,2,0,0,0,0,0
1630,1765897921377,-9,16,1,0,0,0,0,0
1631,1765897921994,-10,17,1,0,0,0,0,0
1632,1765897922327,-8,17,1,0,0,0,0,0
1633,1765897922525,-9,15,3,0,0,0,0,0
1634,1765897922808,-9,15,1,0,0,0,0,0
1635,1765897923108,-10,16,2,0,0,0,0,0
1636,1765897923375,-8,16,1,0,0,0,0,0
1637,1765897923741,-9,18,1,0,0,0,0,0
1638,1765897924058,-9,15,1,0,0,0,0,0
1639,1765897924107,-9,15,1,0,0,0,0,0
1640,1765897924941,-7,16,1,0,0,0,0,0
1641,1765897925125,-9,15,1,0,0,0,0,0
1642,1765897925675,-8,14,2,0,0,0,0,0
1643,1765897925857,-9,15,2,0,0,0,0,0
1644,1765897926757,-10,15,1,0,0,0,0,0
1645,1765897927040,-9,16,2,0,0,0,0,0
1646,1765897927072,-9,16,1,0,0,0,0,0
1647,1765897927506,-8,16,1,0,0,0,0,0
1648,1765897927672,-9,16,3,0,0,0,0,0
1649,1765897927888,-9,16,3,0,0,0,0,0
1650,1765897929997,-13,15,2,0,0,0,0,0
1651,1765897929998,-8,15,1,0,0,0,0,0
1652,1765897930006,-9,14,1,0,0,0,0,0
1653,1765897931118,-9,15,3,0,0,0,0,0
1654,1765897932767,-8,16,2,0,0,0,0,0
1655,1765897933534,-8,16,2,0,0,0,0,0
1656,1765897940845,28664,16,2,0,0,0,0,0
1657,1765897940994,-8,15,2,0,0,0,0,0
1658,1765897941977,-9,14,3,0,0,0,0,0
1659,1765897942193,-10,15,2,0,0,0,0,0
1660,1765897942310,-8,15,3,0,0,0,0,0
1661,1765897944025,-10,16,-1,0,0,0,0,0
1662,1765897944057,-9,14,3,0,0,0,0,0
1663,1765897944090,-9,14,2,0,0,0,0,0
1664,1765897944540,-9,15,2,0,0,0,0,0
1665,1765897944956,-7,14,0,0,0,0,0,0
1666,1765897945506,-9,14,1,0,0,0,0,0
1667,1765897945789,-8,17,3,0,0,0,0,0
1668,1765897946688,-7,16,1,0,0,0,0,0
1669,1765897947089,-10,14,2,0,0,0,0,0
1670,1765897948606,-9,14,2,0,0,0,0,0
1671,1765897948705,-10,15,2,0,0,0,0,0
1672,1765897949088,-10,15,2,0,0,0,0,0
1673,1765897949471,-9,16,2,0,0,0,0,0
1674,1765897949771,-7,15,1,0,0,0,0,0
1675,1765897949888,-6,16,2,0,0,0,0,0
1676,1765897950521,-7,16,2,0,0,0,0,0
1677,1765897950703,-9,15,3,0,0,0,0,0
1678,1765897950970,-8,15,2,0,0,0,0,0
1679,1765897951319,-9,17,1,0,0,0,0,0
1680,1765897952318,-8,16,3,0,0,0,0,0
1681,1765897952486,-10,15,2,0,0,0,0,0
1682,1765897952817,-6,17,3,0,0,0,0,0
1683,1765897953317,-10,15,2,0,0,0,0,0
1684,1765897955128,-10,15,1,0,0,0,0,0
1685,1765897955149,-8,15,1,0,0,0,0,0
1686,1765897960145,-10,16,2,0,0,0,0,0
1687,1765897961413,-7,15,1,0,0,0,0,0
1688,1765897962192,-10,16,3,0,0,0,0,0
1689,1765897962475,-9,14,2,0,0,0,0,0
1690,1765897963408,-8,15,2,0,0,0,0,0
1691,1765897967040,-9,15,1,0,0,0,0,0
1692,1765897967488,-9,16,1,0,0,0,0,0
1693,1765897967972,-9,15,2,0,0,0,0,0
1694,1765897968271,-10,16,1,0,0,0,0,0
1695,1765897968371,-9,13,1,0,0,0,0,0
1696,1765897968421,-9,16,2,0,0,0,0,0
1697,1765897972936,-8,16,3,0,0,0,0,0
1698,1765897973233,-11,16,1,0,0,0,0,0
1699,1765897973749,-8,15,1,0,0,0,0,0
1700,1765897973799,-8,15,3,0,0,0,0,0
1701,1765897975232,-9,15,3,0,0,0,0,0
1702,1765897975481,-9,15,2,0,0,0,0,0
1703,1765897975632,-8,18,3,0,0,0,0,0
1704,1765897975798,-10,16,2,0,0,0,0,0
1705,1765897976797,-9,15,1,0,0,0,0,0
1706,1765897977279,-9,16,2,0,0,0,0,0
1707,1765897981195,-8,16,2,0,0,0,0,0
1708,1765897981876,-9,18,2,0,0,0,0,0
1709,1765897983009,-8,16,2,0,0,0,0,0
1710,1765897986172,-9,17,2,0,0,0,0,0
1711,1765897986205,-9,14,1,0,0,0,0,0
1712,1765897986290,-7,17,2,0,0,0,0,0
1713,1765897986739,-10,16,2,0,0,0,0,0
1714,1765897986988,-9,16,2,0,0,0,0,0
1715,1765897987704,-9,15,2,0,0,0,0,0
1716,1765897987987,-10,18,2,0,0,0,0,0
1717,1765897989520,-9,17,2,0,0,0,0,0
1718,1765897989603,-9,16,2,0,0,0,0,0
1719,1765897990035,-8,18,1,0,0,0,0,0
1720,1765897990402,-9,16,1,0,0,0,0,0
1721,1765897990839,-9,16,2,0,0,0,0,0
1722,1765897990969,-11,14,3,0,0,0,0,0
1723,1765897991152,-10,16,1,0,0,0,0,0
1724,1765897991651,-8,16,3,0,0,0,0,0
1725,1765897992933,-8,17,2,0,0,0,0,0
1726,1765897993366,-8,14,1,0,0,0,0,0
1727,1765897994266,-8,17,2,0,0,0,0,0
1728,1765897995582,-9,16,1,0,0,0,0,0
1729,1765897995698,-8,15,3,0,0,0,0,0
1730,1765897996014,-9,17,1,0,0,0,0,0
1731,1765897997696,-10,15,3,0,0,0,0,0
1732,1765897997696,-9,17,1,0,0,0,0,0
1733,1765897997713,-9,17,1,0,0,0,0,0
1734,1765897997729,-9,16,2,0,0,0,0,0
1735,1765897997746,-10,17,1,0,0,0,0,0
1736,1765897997947,-8,16,3,0,0,0,0,0
1737,1765898004041,-10,16,1,0,0,0,0,0
1738,1765898004357,-9,16,2,0,0,0,0,0
1739,1765898005823,-7,15,1,0,0,0,0,0
1740,1765898008888,-9,16,2,0,0,0,0,0
1741,1765898008921,-9,15,1,0,0,0,0,0
1742,1765898008921,-8,16,1,0,0,0,0,0
1743,1765898008952,-11,17,2,0,0,0,0,0
1744,1765898009819,-9,15,3,0,0,0,0,0
1745,1765898009885,-8,15,2,0,0,0,0,0
1746,1765898010385,-11,15,1,0,0,0,0,0
1747,1765898010651,-8,16,0,0,0,0,0,0
1748,1765898010968,-10,16,1,0,0,0,0,0
1749,1765898011267,-9,15,1,0,0,0,0,0
1750,1765898011417,-9,17,2,0,0,0,0,0
1751,1765898011684,-9,16,2,0,0,0,0,0
1752,1765898012050,-10,17,1,0,0,0,0,0
1753,1765898012118,-9,17,1,0,0,0,0,0
1754,1765898012201,-9,16,2,0,0,0,0,0
1755,1765898012484,-9,17,3,0,0,0,0,0
1756,1765898012983,-8,17,2,0,0,0,0,0
1757,1765898013316,-8,18,2,0,0,0,0,0
1758,1765898013683,-9,17,2,0,0,0,0,0
1759,1765898013783,-11,15,1,0,0,0,0,0
1760,1765898014332,-7,16,2,0,0,0,0,0
1761,1765898014532,-8,17,-23544,0,0,0,0,0
1762,1765898014815,-8,16,2,0,0,0,0,0
1763,1765898015298,-9,16,2,0,0,0,0,0
1764,1765898015564,-8,16,2,0,0,0,0,0
1765,1765898015915,-7,17,1,0,0,0,0,0
1766,1765898015948,-10,15,2,0,0,0,0,0
1767,1765898016364,-9,15,3,0,0,0,0,0
1768,1765898017080,-9,16,1,0,0,0,0,0
1769,1765898017680,-8,16,2,0,0,0,0,0
1770,1765898017946,-8,16,2,0,0,0,0,0
1771,1765898018096,-7,16,2,0,0,0,0,0
1772,1765898019882,-9,17,2,0,0,0,0,0
1773,1765898019895,-9,17,3,0,0,0,0,0
1774,1765898022574,-10,15,2,0,0,0,0,0
1775,1765898025040,-9,8210,8737,0,0,0,0,0
1776,1765898025107,-12,16,2,0,0,0,0,0
1777,1765898026556,-8,15,3,0,0,0,0,0
1778,1765898027738,-9,13,2,0,0,0,0,0
1779,1765898028137,-7,17,3,0,0,0,0,0
1780,1765898028837,-8,16,1,0,0,0,0,0
1781,1765898031501,-7,16,3,0,0,0,0,0
1782,1765898033749,-7,17,2,0,0,0,0,0
1783,1765898035247,-8,16,0,0,0,0,0,0
1784,1765898038978,-9,16,1,0,0,0,0,0
1785,1765898039927,-9,15,3,0,0,0,0,0
1786,1765898040710,-9,15,1,0,0,0,0,0
1787,1765898041992,-10,18,1,0,0,0,0,0
1788,1765898043608,-9,17,2,0,0,0,0,0
1789,1765898045856,-9,18,2,0,0,0,0,0
1790,1765898046255,-9,17,2,0,0,0,0,0
1791,1765898049020,-9,15,2,0,0,0,0,0
1792,1765898050519,-9,16,3,0,0,0,0,0
1793,1765898051900,-9,17,2,0,0,0,0,0
1794,1765898053282,-9,16,2,0,0,0,0,0
1795,1765898053482,-9,17,3,0,0,0,0,0
1796,1765898053948,-9,16,2,0,0,0,0,0
1797,1765898055881,-6,17,2,0,0,0,0,0
1798,1765898056047,-11,14,1,0,0,0,0,0
1799,1765898056381,-9,15,1,0,0,0,0,0
1800,1765898060709,-8,16,1,0,0,0,0,0
1801,1765898061527,-7,17,1,0,0,0,0,0
1802,1765898062107,-9,18,2,0,0,0,0,0
1803,1765898062541,-9,17,2,0,0,0,0,0
1804,1765898062958,-8,14,0,0,0,0,0,0
1805,1765898064541,-8,15,3,0,0,0,0,0
1806,1765898065506,-11,18,0,0,0,0,0,0
1807,1765898065690,-9,14,4,0,0,0,0,0
1808,1765898065773,-9,19,2,0,0,0,0,0
1809,1765898066455,-11,18,1,0,0,0,0,0
1810,1765898069750,-8,18,3,0,0,0,0,0
1811,1765898069786,-10,12,0,0,0,0,0,0
1812,1765898071200,-10,16,1,0,0,0,0,0
1813,1765898072282,-7,14,3,0,0,0,0,0
1814,1765898073981,-9,15,1,0,0,0,0,0
1815,1765898074280,-7,15,1,0,0,0,0,0
1816,1765898074381,-7,15,3,0,0,0,0,0
1817,1765898081059,-7,16,1,0,0,0,0,0
1818,1765898081093,-9,16,2,0,0,0,0,0
1819,1765898081191,-5,14,2,0,0,0,0,0
1820,1765898081625,-11,15,3,0,0,0,0,0
1821,1765898082907,-6,16,2,0,0,0,0,0
1822,1765898083822,-10,16,1,0,0,0,0,0
1823,1765898083940,-9,16,2,0,0,0,0,0
1824,1765898084390,-10,17,1,0,0,0,0,0
1825,1765898087688,-8,17,2,0,0,0,0,0
1826,1765898088153,-7,17,2,0,0,0,0,0
1827,1765898089618,-9,15,2,0,0,0,0,0
1828,1765898092949,-7,18,3,0,0,0,0,0
1829,1765898095080,-9,18,3,0,0,0,0,0
1830,1765898096446,-9,16,2,0,0,0,0,0
1831,1765898099227,-7,16,3,0,0,0,0,0
1832,1765898103174,-9,15,1,0,0,0,0,0
1833,1765898103339,-8,15,3,0,0,0,0,0
1834,1765898112465,-10,16,2,0,0,0,0,0
1835,1765898114547,-6,16,2,0,0,0,0,0
1836,1765898114630,-6,17,3,0,0,0,0,0
1837,1765898115229,-9,16,2,0,0,0,0,0
1838,1765898121225,-9,15,2,0,0,0,0,0
1839,1765898121575,-9,15,3,0,0,0,0,0
1840,1765898123807,-10,15,2,0,0,0,0,0
1841,1765898126087,-8,15,2,0,0,0,0,0
1842,1765898126122,-9,16,2,0,0,0,0,0
1843,1765898127752,-10,15,1,0,0,0,0,0
1844,1765898135796,63,13,36,0,0,0,0,0
1845,1765898138194,27,-4,-4,0,0,0,0,0
1846,1765898141491,-119,-30,-27,0,0,0,0,0
1847,1765898141974,-15,549,-37,0,0,0,0,0
1848,1765898142124,-64,560,-81,0,0,0,0,0
1849,1765898142390,-31,453,-70,0,0,0,0,0
1850,1765898145020,-75,49,12,0,0,0,0,0
1851,1765898145821,-31,-393,-29,0,0,0,0,0
1852,1765898145920,28,-318,30,0,0,0,0,0
1853,1765898146204,99,-392,57,0,0,0,0,0
1854,1765898146255,-64,-459,21,0,0,0,0,0
1855,1765898146721,57,-361,22,0,0,0,0,0
1856,1765898147086,61,-300,27,0,0,0,0,0
1857,1765898147287,-32,-300,16,0,0,0,0,0
1858,1765898147470,-54,-284,16,0,0,0,0,0
1859,1765898147753,11,-281,17,0,0,0,0,0
1860,1765898149435,26,-538,69,0,0,0,0,0
1861,1765898152066,-25,308,32,0,0,0,0,0
1862,1765898152548,-19,-220,-24,0,0,0,0,0
1863,1765898153316,72,-321,65,0,0,0,0,0
1864,1765898153399,-70,-254,31,0,0,0,0,0
1865,1765898154165,-74,580,-33,0,0,0,0,0
1866,1765898154446,-25,541,-47,0,0,0,0,0
1867,1765898154730,-12,484,-19,0,0,0,0,0
1868,1765898155229,29,-202,-17,0,0,0,0,0
1869,1765898155495,-198,-213,-17,0,0,0,0,0
1870,1765898155845,-20,-47,28,0,0,0,0,0
1871,1765898158960,-10,573,-62,0,0,0,0,0
1872,1765898159143,-50,569,-9,0,0,0,0,0
1873,1765898159443,-102,582,-89,0,0,0,0,0
1874,1765898159476,-40,549,-79,0,0,0,0,0
1875,1765898160258,16,600,0,0,0,0,0,0
1876,1765898161474,45,-233,25,0,0,0,0,0
1877,1765898163490,-54,917,-169,0,0,0,0,0
1878,1765898163506,0,471,-64,0,0,0,0,0
1879,1765898163539,-35,-651,-21,0,0,0,0,0
1880,1765898163722,29,-580,53,0,0,0,0,0
1881,1765898164738,54,-564,109,0,0,0,0,0
1882,1765898166386,-67,-567,-138,0,0,0,0,0
1883,1765898166419,126,-481,19,0,0,0,0,0
1884,1765898166669,5,-516,-2,0,0,0,0,0
1885,1765898167419,-18,-346,42,0,0,0,0,0
1886,1765898167585,-37,-386,-6,0,0,0,0,0
1887,1765898167937,-71,28385,200,0,0,0,0,0
1888,1765898168302,51,-242,57,0,0,0,0,0
1889,1765898168602,-4,-170,-48,0,0,0,0,0
1890,1765898168736,-16,-93,-17,0,0,0,0,0
1891,1765898169020,65,-56,33,0,0,0,0,0
1892,1765898169251,-44,-92,1,0,0,0,0,0
1893,1765898169535,5,-106,-238,0,0,0,0,0
1894,1765898169801,42,-46,-22,0,0,0,0,0
1895,1765898169969,-59,-30,43,0,0,0,0,0
1896,1765898170151,-91,-115,-2122,0,0,0,0,0
1897,1765898170650,12,-168,1334,0,0,0,0,0
1898,1765898173098,74,35,-3,0,0,0,0,0
1899,1765898175230,-18,-494,6,0,0,0,0,0
1900,1765898175278,24,-478,9,0,0,0,0,0
1901,1765898175812,-46,-586,-36,0,0,0,0,0
1902,1765898176378,2,-466,-5,0,0,0,0,0
1903,1765898178592,-43,-75,-9,0,0,0,0,0
1904,1765898178726,-91,-130,-12,0,0,0,0,0
1905,1765898179442,-20,-93,-5,0,0,0,0,0
1906,1765898181158,-74,17,10,0,0,0,0,0
1907,1765898184571,-8,16,1,0,0,0,0,0
1908,1765898186670,-10,14,0,0,0,0,0,0
1909,1765898186670,-9,15,1,0,0,0,0,0
1910,1765898186703,-10,14,2,0,0,0,0,0
1911,1765898186720,-8,15,1,0,0,0,0,0
1912,1765898186720,-9,15,1,0,0,0,0,0
1913,1765898189500,-9,14,1,0,0,0,0,0
1914,1765898643901,-10,18,3,0,0,0,0,0
1915,1765898644018,-9,16,2,0,0,0,0,0
1916,1765898644134,-11,18,1,0,0,0,0,0
1917,1765898644267,-10,17,1,0,0,0,0,0
1918,1765898644367,-10,19,2,0,0,0,0,0
1919,1765898644516,-10,17,1,0,0,0,0,0
1920,1765898645449,-11,18,1,0,0,0,0,0
1921,1765898645616,-10,17,0,0,0,0,0,0
1922,1765898645683,-8,17,1,0,0,0,0,0
1923,1765898645817,-9,18,1,0,0,0,0,0
1924,1765898645916,-10,16,3,0,0,0,0,0
1925,1765898646032,-9,17,2,0,0,0,0,0
1926,1765898646132,-9,17,0,0,0,0,0,0
1927,1765898646232,-10,16,4,0,0,0,0,0
1928,1765898646365,-11,17,3,0,0,0,0,0
1929,1765898650079,-8,17,2,0,0,0,0,0
1930,1765898650146,-12,19,2,0,0,0,0,0
1931,1765898650312,-11,18,2,0,0,0,0,0
1932,1765898650411,-9,16,1,0,0,0,0,0
0,1765902320951,5,25,5,0,0,0,0,0
1,1765902321468,-5,29,4,0,0,0,0,0
2,1765902321586,-2,74,7,0,0,0,0,0
3,1765902322685,-17,259,-19,0,0,0,0,0
4,1765902323718,-33,197,15,0,0,0,0,0
5,1765902324305,-60,249,23,0,0,0,0,0
6,1765902326702,-74,295,8,0,0,0,0,0
7,1765902328702,39,-140,-18,0,0,0,0,0
8,1765902329219,-42,-279,-71,0,0,0,0,0
9,1765902330736,34,-363,43,0,0,0,0,0
10,1765902330918,-19,-310,46,0,0,0,0,0
11,1765902331218,33,-270,25,0,0,0,0,0
12,1765902331553,-87,-151,-3,0,0,0,0,0
13,1765902332002,-3,-110,1,0,0,0,0,0
14,1765902332302,-21,-67,7,0,0,0,0,0
15,1765902332601,-26,-37,-56,0,0,0,0,0
16,1765902332885,-31,-32,-21,0,0,0,0,0
17,1765902333217,-11,-16,53,0,0,0,0,0
18,1765902333352,-21,-25,-11,0,0,0,0,0
19,1765902333618,12,-20,-21,0,0,0,0,0
20,1765902334201,-23,-19,58,0,0,0,0,0
21,1765902336585,42,-57,26,0,0,0,0,0
22,1765902336735,-18,-46,-21,0,0,0,0,0
23,1765902337818,1,-124,28,0,0,0,0,0
24,1765902337885,-28,-114,-31,0,0,0,0,0
25,1765902338102,104,-52,44,0,0,0,0,0
26,1765902341152,-23,-345,50,0,0,0,0,0
27,1765902342001,-31,-373,18,0,0,0,0,0
28,1765902346367,-16,-37,14,0,0,0,0,0
29,1765902349835,-74,28,-7,0,0,0,0,0
30,1765902351201,-54,-61,30,0,0,0,0,0
31,1765902351585,8,-252,4,0,0,0,0,0
32,1765902351835,49,-418,15,0,0,0,0,0
33,1765902352253,22,-178,47,0,0,0,0,0
34,1765902354451,13,-431,140,0,0,0,0,0
35,1765902360573,53,-411,106,0,0,0,0,0
36,1765902361702,2,272,-5,0,0,0,0,0
37,1765902362504,53,-498,44,0,0,0,0,0
38,1765902362951,17,-453,-18,0,0,0,0,0
39,1765902363918,-12,561,-19,0,0,0,0,0
40,1765902364202,-32,469,-1,0,0,0,0,0
41,1765902364501,8,182,-92,0,0,0,0,0
42,1765902364718,24,-106,-36,0,0,0,0,0
43,1765902365018,12,-212,-23,0,0,0,0,0
44,1765902365517,-37,-156,0,0,0,0,0,0
45,1765902365784,47,-70,-20,0,0,0,0,0
46,1765902366154,-43,167,-4,0,0,0,0,0
47,1765902366817,-27,388,3,0,0,0,0,0
48,1765902367383,16,541,20,0,0,0,0,0
49,1765902368036,-46,655,65,0,0,0,0,0
50,1765902368085,-58,605,-266,0,0,0,0,0
51,1765902368485,-128,574,-3,0,0,0,0,0
52,1765902369851,14,633,14,0,0,0,0,0
53,1765902370919,-21,697,-58,0,0,0,0,0
54,1765902371821,-33,148,-2,0,0,0,0,0
55,1765902372951,-33,-117,-7,0,0,0,0,0
56,1765902375088,-19,-311,13,0,0,0,0,0
57,1765902375769,40,-485,34,0,0,0,0,0
58,1765902376586,82,-369,34,0,0,0,0,0
59,1765902377036,-12,-376,12,0,0,0,0,0
60,1765902378402,-52,-583,135,0,0,0,0,0
61,1765902379119,29,-618,-10,0,0,0,0,0
62,1765902379134,56,-519,-15,0,0,0,0,0
63,1765902379416,28,-363,56,0,0,0,0,0
64,1765902379751,37,-327,8,0,0,0,0,0
65,1765902379868,31,-278,15,0,0,0,0,0
66,1765902380468,15,-113,14,0,0,0,0,0
67,1765902387386,-7,-610,66,0,0,0,0,0
68,1765902387618,119,-669,5,0,0,0,0,0
69,1765902387667,44,-678,95,0,0,0,0,0
70,1765902387918,18,-663,-14,0,0,0,0,0
71,1765902388319,-75,-181,62,0,0,0,0,0
72,1765902388635,29,-419,84,0,0,0,0,0
73,1765902388754,-17,-464,-14,0,0,0,0,0
74,1765902388869,-12,-487,47,0,0,0,0,0
75,1765902388934,21,-521,59,0,0,0,0,0
76,1765902389217,18,-552,23,0,0,0,0,0
77,1765902389352,70,-517,54,0,0,0,0,0
78,1765902389721,105,-504,31,0,0,0,0,0
79,1765902390571,-36,-202,-63,0,0,0,0,0
80,1765902390949,6,-143,6,0,0,0,0,0
81,1765902391918,41,-53,-17,0,0,0,0,0
82,1765902392183,30,-119,-31,0,0,0,0,0
83,1765902392433,6,-107,10,0,0,0,0,0
84,1765902392518,-18,-68,13,0,0,0,0,0
85,1765902393000,7,-123,9,0,0,0,0,0
86,1765902394202,-19,-9,20,0,0,0,0,0
87,1765902394450,21,25,28,0,0,0,0,0
88,1765902394585,26,-244,-45,0,0,0,0,0
89,1765902395185,38,52,32,0,0,0,0,0
90,1765902395519,-54,22,-3,0,0,0,0,0
91,1765902396085,-80,-11,-10,0,0,0,0,0
92,1765902396352,-34,-35,-2,0,0,0,0,0
93,1765902396668,112,-39,20,0,0,0,0,0
94,1765902397552,16,-276,49,0,0,0,0,0
95,1765902399036,-26,600,-49,0,0,0,0,0
96,1765902399602,10,-573,43,0,0,0,0,0
97,1765902399852,37,-567,-29,0,0,0,0,0
98,1765902403635,-25,-439,-16,0,0,0,0,0
99,1765902406852,-35,553,-66,0,0,0,0,0
100,1765902409152,17,286,8,0,0,0,0,0
101,1765902410851,0,-274,19,0,0,0,0,0
102,1765902411036,48,-239,26,0,0,0,0,0
103,1765902411451,48,87,-10,0,0,0,0,0
104,1765902412519,-34,486,15,0,0,0,0,0
105,1765902413468,8,758,88,0,0,0,0,0
106,1765902414152,-24,676,-16,0,0,0,0,0
107,1765902414685,-76,703,-63,0,0,0,0,0
108,1765902414886,-46,688,-52,0,0,0,0,0
109,1765902414952,-49,721,-120,0,0,0,0,0
110,1765902415218,-56,699,-46,0,0,0,0,0
111,1765902415402,-11,434,-76,0,0,0,0,0
112,1765902415669,5,-88,-15,0,0,0,0,0
113,1765902415935,-3,-142,41,0,0,0,0,0
114,1765902416368,-41,-163,-31,0,0,0,0,0
115,1765902416602,-9,350,13,0,0,0,0,0
116,1765902416718,-1,601,-14,0,0,0,0,0
117,1765902416885,-49,854,-81,0,0,0,0,0
118,1765902417085,-67,869,-88,0,0,0,0,0
119,1765902417585,-8,-250,-41,0,0,0,0,0
120,1765902417652,91,-494,-1,0,0,0,0,0
121,1765902417902,28,-691,-1,0,0,0,0,0
122,1765902420135,-56,-450,-14,0,0,0,0,0
123,1765902421785,29,-253,18,0,0,0,0,0
124,1765902421902,-86,-301,-86,0,0,0,0,0
125,1765902422168,71,-311,12,0,0,0,0,0
126,1765902422335,113,-333,-101,0,0,0,0,0
127,1765902422519,67,-351,11,0,0,0,0,0
128,1765902422685,47,-344,3,0,0,0,0,0
129,1765902423252,33,-354,-15,0,0,0,0,0
130,1765902427552,79,-31,28,0,0,0,0,0
131,1765902432135,60,-15,-14,0,0,0,0,0
132,1765902432985,-37,-46,-5,0,0,0,0,0
133,1765902433368,27,-167,28,0,0,0,0,0
134,1765902435418,-26,378,-45,0,0,0,0,0
135,1765902438385,80,-67,6,0,0,0,0,0
136,1765902441235,2,4,38,0,0,0,0,0
137,1765902441935,-82,14,13,0,0,0,0,0
138,1765902442702,-104,31,51,0,0,0,0,0
139,1765902443468,35,12,-51,0,0,0,0,0
140,1765902445069,2,-62,23,0,0,0,0,0
141,1765902446468,-52,451,254,0,0,0,0,0
142,1765902446718,9,462,1,0,0,0,0,0
143,1765902447935,-214,-360,-11,0,0,0,0,0
144,1765902448451,55,-479,-7,0,0,0,0,0
145,1765902449185,24,192,26,0,0,0,0,0
146,1765902449350,-1,231,3,0,0,0,0,0
147,1765902449802,-1,-137,45,0,0,0,0,0
148,1765902450067,-16,-183,-2,0,0,0,0,0
149,1765902450382,-29,-355,-40,0,0,0,0,0
150,1765902451067,6,-308,60,0,0,0,0,0
151,1765902451333,19,-383,16,0,0,0,0,0
152,1765902451751,27,-419,-14,0,0,0,0,0
153,1765902452033,66,-437,47,0,0,0,0,0
154,1765902452100,-19,-430,15,0,0,0,0,0
155,1765902452233,15,-434,46,0,0,0,0,0
156,1765902452650,32,-387,38,0,0,0,0,0
157,1765902452967,112,-533,-30,0,0,0,0,0
158,1765902453349,-144,-688,-26,0,0,0,0,0
159,1765902453734,85,-505,-115,0,0,0,0,0
160,1765902453983,14,-582,68,0,0,0,0,0
161,1765902454319,-28,-645,67,0,0,0,0,0
162,1765902455418,-11,431,-41,0,0,0,0,0
163,1765902456569,56,-307,-44,0,0,0,0,0
164,1765902456851,52,-474,-25,0,0,0,0,0
165,1765902459368,-31,-146,51,0,0,0,0,0
166,1765902459768,32,205,-16,0,0,0,0,0
167,1765902459935,-1,278,17,0,0,0,0,0
168,1765902460252,-23,443,-34,0,0,0,0,0
169,1765902460717,-77,594,-46,0,0,0,0,0
170,1765902460985,105,633,-228,0,0,0,0,0
171,1765902463601,-44,463,-96,0,0,0,0,0
172,1765902463835,5,-177,-43,0,0,0,0,0
173,1765902464069,13,-405,37,0,0,0,0,0
174,1765902465735,-85,302,-72,0,0,0,0,0
175,1765902466068,30,-479,21,0,0,0,0,0
176,1765902466502,58,-670,44,0,0,0,0,0
177,1765902466551,27,-717,49,0,0,0,0,0
178,1765902466802,42,-736,34,0,0,0,0,0
179,1765902467885,-46,-814,-47,0,0,0,0,0
180,1765902468451,27,-369,-24,0,0,0,0,0
181,1765902470902,-11,-229,30,0,0,0,0,0
182,1765902471269,13,-72,-44,0,0,0,0,0
183,1765902471449,9,-56,-15,0,0,0,0,0
184,1765902471684,-58,-59,-48,0,0,0,0,0
185,1765902472567,-14,-75,25,0,0,0,0,0
186,1765902472784,-22,-66,5,0,0,0,0,0
187,1765902472883,3,-100,65,0,0,0,0,0
188,1765902473267,9,-206,-106,0,0,0,0,0
189,1765902473533,-3106,-2517,21,0,0,0,0,0
190,1765902473951,-9,-95,-84,0,0,0,0,0
191,1765902474302,-15,-122,11,0,0,0,0,0
192,1765902474336,66,-112,16,0,0,0,0,0
193,1765902474901,81,-101,-64,0,0,0,0,0
194,1765902475419,8,-46,4,0,0,0,0,0
195,1765902475700,40,-129,8,0,0,0,0,0
196,1765902476117,-45,-257,54,0,0,0,0,0
197,1765902476518,-57,-644,-154,0,0,0,0,0
198,1765902476635,-41,-797,40,0,0,0,0,0
199,1765902476902,96,-1012,16,0,0,0,0,0
200,1765902477368,-31,-966,231,0,0,0,0,0
201,1765902479919,-1,-26,64,0,0,0,0,0
202,1765902480034,-55,-50,17,0,0,0,0,0
203,1765902480852,-32,-143,75,0,0,0,0,0
204,1765902480901,-36,-129,4,0,0,0,0,0
205,1765902481350,32754,-35,229,0,0,0,0,0
206,1765902481901,14,-32,22,0,0,0,0,0
207,1765902482768,-49,-172,57,0,0,0,0,0
208,1765902483051,25,-58,23,0,0,0,0,0
209,1765902485306,-85,-24,-33,0,0,0,0,0
210,1765902487784,11,-141,78,0,0,0,0,0
211,1765902488668,-5,598,-21,0,0,0,0,0
212,1765902488885,-19,489,44,0,0,0,0,0
213,1765902489268,15,-118,-21,0,0,0,0,0
214,1765902493634,72,-269,29,0,0,0,0,0
215,1765902493767,-5,-258,-2,0,0,0,0,0
216,1765902494017,-22,-229,17,0,0,0,0,0
217,1765902495184,-15,-186,-11,0,0,0,0,0
218,1765902496276,-5,-183,-16,0,0,0,0,0
219,1765902496552,22,-226,25,0,0,0,0,0
220,1765902499684,-5,-100,-13,0,0,0,0,0
221,1765902500334,-5,-61,19,0,0,0,0,0
222,1765902500700,17,-39,13,0,0,0,0,0
223,1765902500935,18,-37,14,0,0,0,0,0
224,1765902501118,-1,-47,-6,0,0,0,0,0
225,1765902501385,16,-53,13,0,0,0,0,0
226,1765902502052,-28,-78,-6,0,0,0,0,0
227,1765902502252,-2,-98,3,0,0,0,0,0
228,1765902504101,-6,-1,-3,0,0,0,0,0
229,1765902505951,-7,11,0,0,0,0,0,0
230,1765902507085,-7,10,0,0,0,0,0,0
231,1765902507134,-6,12,2,0,0,0,0,0
232,1765902507386,-7,11,2,0,0,0,0,0
233,1765902507885,-6,11,1,0,0,0,0,0
234,1765902508002,-8,11,1,0,0,0,0,0
235,1765902508350,-6,12,2,0,0,0,0,0
236,1765902508519,-8,12,2,0,0,0,0,0
237,1765902508702,-7,12,1,0,0,0,0,0
238,1765902509151,-7,13,0,0,0,0,0,0
239,1765902510218,-9,13,1,0,0,0,0,0
240,1765902510750,-6,12,0,0,0,0,0,0
241,1765902511168,-6,13,2,0,0,0,0,0
242,1765902511237,-8,11,0,0,0,0,0,0
243,1765902512202,-6,12,0,0,0,0,0,0
244,1765902512501,-7,12,1,0,0,0,0,0
245,1765902512984,-6,12,3,0,0,0,0,0
246,1765902513418,-7,12,1,0,0,0,0,0
247,1765902514251,-7,12,0,0,0,0,0,0
248,1765902515935,-7,14,2,0,0,0,0,0
249,1765902516201,-7,13,0,0,0,0,0,0
250,1765902516536,-6,12,1,0,0,0,0,0
251,1765902516601,-6,12,1,0,0,0,0,0
252,1765902519700,-7,11,1,0,0,0,0,0
253,1765902520802,-7,10,2,0,0,0,0,0
254,1765902521167,-8,13,1,0,0,0,0,0
255,1765902521401,-6,11,2,0,0,0,0,0
256,1765902521967,-8,11,2,0,0,0,0,0
257,1765902524035,-5,12,1,0,0,0,0,0
258,1765902524367,-6,12,1,0,0,0,0,0
259,1765902524467,-7,12,1,0,0,0,0,0
260,1765902524684,-8,11,1,0,0,0,0,0
261,1765902527919,-7,11,2,0,0,0,0,0
262,1765902527952,-3,11,1,0,0,0,0,0
263,1765902528151,-10,14,3,0,0,0,0,0
264,1765902528301,-4,12,0,0,0,0,0,0
265,1765902528617,-8,12,0,0,0,0,0,0
266,1765902528867,-8,13,1,0,0,0,0,0
267,1765902530984,-8,12,0,0,0,0,0,0
268,1765902531233,-7,12,1,0,0,0,0,0
269,1765902531633,-7,12,0,0,0,0,0,0
270,1765902532768,-8,11,-1,0,0,0,0,0
271,1765902534718,-10,13,3,0,0,0,0,0
272,1765902535100,-8,13,4,0,0,0,0,0
273,1765902538918,-10,9,1,0,0,0,0,0
274,1765902540195,-9,12,2,0,0,0,0,0
275,1765902543651,-6,11,1,0,0,0,0,0
276,1765902543835,-6,12,1,0,0,0,0,0
277,1765902544100,-8,13,2,0,0,0,0,0
278,1765902544767,-9,12,0,0,0,0,0,0
279,1765902545133,-7,11,0,0,0,0,0,0
280,1765902545183,-7,11,0,0,0,0,0,0
281,1765902545434,-8,12,1,0,0,0,0,0
282,1765902545515,-6,13,1,0,0,0,0,0
283,1765902547000,5,15,-3,0,0,0,0,0
284,1765902549048,-7,14,2,0,0,0,0,0
285,1765902549317,-5,11,-1,0,0,0,0,0
286,1765902550200,-8,10,1,0,0,0,0,0
287,1765902551302,-6,12,1,0,0,0,0,0
288,1765902551732,-7,11,0,0,0,0,0,0
289,1765902552101,-7,11,1,0,0,0,0,0
290,1765902552400,-6,13,1,0,0,0,0,0
291,1765902555350,-8,12,1,0,0,0,0,0
292,1765902555935,-6,11,0,0,0,0,0,0
293,1765902556185,-8,11,1,0,0,0,0,0
294,1765902556250,-7,12,2,0,0,0,0,0
295,1765902556585,-7,13,1,0,0,0,0,0
296,1765902557018,-9,13,2,0,0,0,0,0
297,1765902557400,-9,12,0,0,0,0,0,0
298,1765902558883,-8,12,1,0,0,0,0,0
299,1765902559783,-7,12,1,0,0,0,0,0
300,1765902560584,-10,13,0,0,0,0,0,0
301,1765902561418,-7,12,2,0,0,0,0,0
302,1765902561584,-8,12,2,0,0,0,0,0
303,1765902561750,-7,12,2,0,0,0,0,0
304,1765902561952,-8,12,1,0,0,0,0,0
305,1765902562352,-7,12,1,0,0,0,0,0
306,1765902562566,-6,11,1,0,0,0,0,0
307,1765902562686,-8,14,0,0,0,0,0,0
308,1765902562802,-7,12,1,0,0,0,0,0
309,1765902563034,-6,12,2,0,0,0,0,0
310,1765902563216,-8,12,1,0,0,0,0,0
311,1765902563817,-8,12,1,0,0,0,0,0
312,1765902564316,-6,12,1,0,0,0,0,0
313,1765902564535,-7,12,0,0,0,0,0,0
314,1765902564935,-7,12,1,0,0,0,0,0
315,1765902565082,-5,10,2,0,0,0,0,0
316,1765902565401,-7,13,1,0,0,0,0,0
317,1765902565732,-8,14,1,0,0,0,0,0
318,1765902565984,-6,12,2,0,0,0,0,0
319,1765902566434,-9,11,1,0,0,0,0,0
320,1765902566817,-6,12,1,0,0,0,0,0
321,1765902567133,-8,13,1,0,0,0,0,0
322,1765902567317,-7,12,1,0,0,0,0,0
323,1765902567816,-4,12,1,0,0,0,0,0
324,1765902568567,-6,12,1,0,0,0,0,0
325,1765902568934,-7,12,1,0,0,0,0,0
326,1765902570733,-9,-52,5,0,0,0,0,0
327,1765902570932,0,-74,12,0,0,0,0,0
328,1765902571215,0,-100,15,0,0,0,0,0
329,1765902571500,13,-138,-7,0,0,0,0,0
330,1765902571817,36,-178,39,0,0,0,0,0
331,1765902573149,-12,-95,21,0,0,0,0,0
332,1765902573366,54,-33,19,0,0,0,0,0
333,1765902573749,28,105,8,0,0,0,0,0
334,1765902575215,-36,-16,-4,0,0,0,0,0
335,1765902576449,28,33,-17,0,0,0,0,0
336,1765902577618,15,37,-4,0,0,0,0,0
337,1765902577782,41,25,32,0,0,0,0,0
338,1765902578098,2,6,57,0,0,0,0,0
339,1765902581099,-76,570,-10,0,0,0,0,0
340,1765902582883,-8,555,15,0,0,0,0,0
341,1765902583467,3,113,-15,0,0,0,0,0
342,1765902585033,-29,14,-97,0,0,0,0,0
343,1765902585284,-10,-267,-11,0,0,0,0,0
344,1765902585384,42,-425,92,0,0,0,0,0
345,1765902585617,99,-645,181,0,0,0,0,0
346,1765902586050,-64,-855,-253,0,0,0,0,0
347,1765902586117,115,-849,-23,0,0,0,0,0
348,1765902586633,-51,-531,-120,0,0,0,0,0
349,1765902586834,33,-692,66,0,0,0,0,0
350,1765902587216,-41,-568,136,0,0,0,0,0
351,1765902589033,-22,-545,36,0,0,0,0,0
352,1765902589233,-8,-552,35,0,0,0,0,0
353,1765902590151,15,-282,16,0,0,0,0,0
354,1765902591668,-69,-66,-19,0,0,0,0,0
355,1765902594616,83,-73,58,0,0,0,0,0
356,1765902596251,-78,-375,-110,0,0,0,0,0
357,1765902597433,-80,1,169,0,0,0,0,0
358,1765902597698,71,-480,-2080,0,0,0,0,0
359,1765902598383,40,-158,-1,0,0,0,0,0
360,1765902598651,31,292,64,0,0,0,0,0
361,1765902599466,-3,-250,-15,0,0,0,0,0
362,1765902600732,-141,16,-12,0,0,0,0,0
363,1765902601134,-3,-28,-29,0,0,0,0,0
364,1765902602485,84,-14,99,0,0,0,0,0
365,1765902604882,-45,34,2,0,0,0,0,0
366,1765902605166,-88,3,5,0,0,0,0,0
367,1765902605416,39,-5,13,0,0,0,0,0
368,1765902605568,-24,-80,-2,0,0,0,0,0
369,1765902605884,40,-155,-39,0,0,0,0,0
370,1765902609085,7,-93,-21,0,0,0,0,0
371,1765902612417,38,-342,34,0,0,0,0,0
372,1765902613916,36,-680,-10,0,0,0,0,0
373,1765902615132,-58,371,-13,0,0,0,0,0
374,1765902617783,-48,477,-5,0,0,0,0,0
375,1765902618266,23,377,-98,0,0,0,0,0
376,1765902618450,-2,-78,-108,0,0,0,0,0
377,1765902618784,43,-301,-14,0,0,0,0,0
378,1765902619051,-8,-305,22,0,0,0,0,0
379,1765902622634,-59,697,-101,0,0,0,0,0
380,1765902622866,-5,673,-38,0,0,0,0,0
381,1765902623034,24,616,2,0,0,0,0,0
382,1765902623419,-2,809,-25,0,0,0,0,0
383,1765902623649,-68,777,-80,0,0,0,0,0
384,1765902624148,44,-474,11,0,0,0,0,0
385,1765902625017,48,622,-26,0,0,0,0,0
386,1765902625281,30,717,-52,0,0,0,0,0
387,1765902626166,-64,-720,103,0,0,0,0,0
388,1765902632699,-80,-84,24,0,0,0,0,0
389,1765902633032,-70,-129,85,0,0,0,0,0
390,1765902633214,13,-115,-33,0,0,0,0,0
391,1765902633666,6,-132,-77,0,0,0,0,0
392,1765902633814,-17,-127,-28,0,0,0,0,0
393,1765902633982,9,-127,59,0,0,0,0,0
394,1765902634517,-31,-109,-3,0,0,0,0,0
395,1765902634834,-54,-66,47,0,0,0,0,0
396,1765902635333,22,-73,29,0,0,0,0,0
397,1765902635582,-22,-49,-12,0,0,0,0,0
398,1765902635750,1,-66,32,0,0,0,0,0
399,1765902635782,14,-92,26,0,0,0,0,0
400,1765902636116,-87,-165,-24,0,0,0,0,0
401,1765902636449,-33,-280,85,0,0,0,0,0
402,1765902636865,42,-687,-6,0,0,0,0,0
403,1765902637083,27,-737,7,0,0,0,0,0
404,1765902637166,74,-701,1,0,0,0,0,0
405,1765902638249,83,-739,-20,0,0,0,0,0
406,1765902638684,-61,-723,55,0,0,0,0,0
407,1765902640300,2,-107,47,0,0,0,0,0
408,1765902640549,-162,-90,70,0,0,0,0,0
409,1765902640898,-8,-50,13,0,0,0,0,0
410,1765902641249,38,-38,-5,0,0,0,0,0
411,1765902641634,-2,-2,-12,0,0,0,0,0
412,1765902641800,21,-1,1,0,0,0,0,0
413,1765902641982,-23,25,30,0,0,0,0,0
414,1765902642250,-63,-4,-19,0,0,0,0,0
415,1765902642534,-34,-3,36,0,0,0,0,0
416,1765902642800,-61,5,39,0,0,0,0,0
417,1765902643616,-49,51,28,0,0,0,0,0
418,1765902645533,28,-4,-4,0,0,0,0,0
419,1765902646149,-48,-34,29,0,0,0,0,0
420,1765902647533,13,527,-39,0,0,0,0,0
421,1765902647749,-31,539,12,0,0,0,0,0
422,1765902648249,-22,432,-34,0,0,0,0,0
423,1765902648298,-39,403,-89,0,0,0,0,0
424,1765902648601,9,-404,45,0,0,0,0,0
425,1765902648748,62,-432,-26,0,0,0,0,0
426,1765902649747,74,94,2,0,0,0,0,0
427,1765902651101,-42,-645,124,0,0,0,0,0
428,1765902651317,97,-603,56,0,0,0,0,0
429,1765902651666,76,-376,139,0,0,0,0,0
430,1765902652232,89,-365,2,0,0,0,0,0
431,1765902652632,52,-461,-48,0,0,0,0,0
432,1765902653552,37,-480,81,0,0,0,0,0
433,1765902654016,52,-356,114,0,0,0,0,0
434,1765902654133,-50,-391,85,0,0,0,0,0
435,1765902654432,122,-756,83,0,0,0,0,0
436,1765902654732,67,-769,-30,0,0,0,0,0
437,1765902654983,-2,-794,14,0,0,0,0,0
438,1765902655166,15,-791,15,0,0,0,0,0
439,1765902655550,17,-174,78,0,0,0,0,0
440,1765902655798,5,154,28,0,0,0,0,0
441,1765902656132,14,368,11,0,0,0,0,0
442,1765902656332,-75,393,-44,0,0,0,0,0
443,1765902656965,-1,-220,-29,0,0,0,0,0
444,1765902657568,34,-457,57,0,0,0,0,0
445,1765902657832,-5,-503,-10,0,0,0,0,0
446,1765902657950,24,-372,-16,0,0,0,0,0
447,1765902658199,63,-267,113,0,0,0,0,0
448,1765902658399,5,45,147,0,0,0,0,0
449,1765902658465,-80,416,-29,0,0,0,0,0
450,1765902658783,65,487,21,0,0,0,0,0
451,1765902660517,30,-254,70,0,0,0,0,0
452,1765902661116,11,486,-50,0,0,0,0,0
453,1765902663451,-34,659,-18,0,0,0,0,0
454,1765902664465,19,611,-11,0,0,0,0,0
455,1765902664497,-54,561,-14,0,0,0,0,0
456,1765902664749,-45,481,-55,0,0,0,0,0
457,1765902664947,11,-250,-33,0,0,0,0,0
458,1765902665218,15,-326,10,0,0,0,0,0
459,1765902665450,14,-319,29,0,0,0,0,0
460,1765902665767,0,460,-41,0,0,0,0,0
461,1765902666316,-47,848,-73,0,0,0,0,0
462,1765902666548,-36,806,-108,0,0,0,0,0
463,1765902667665,16,-658,50,0,0,0,0,0
464,1765902668732,80,-711,75,0,0,0,0,0
465,1765902669881,0,-253,78,0,0,0,0,0
466,1765902669966,-5,-178,88,0,0,0,0,0
467,1765902671365,70,-435,-11,0,0,0,0,0
468,1765902671929,-8,-299,45,0,0,0,0,0
469,1765902672066,18,-264,45,0,0,0,0,0
470,1765902672332,-7,-247,-5,0,0,0,0,0
471,1765902672681,20,-252,-7,0,0,0,0,0
472,1765902672999,-52,-228,46,0,0,0,0,0
473,1765902673432,66,-101,-33,0,0,0,0,0
474,1765902673665,-16,-113,3,0,0,0,0,0
475,1765902674347,16,-57,-4,0,0,0,0,0
476,1765902677766,-12,-140,-43,0,0,0,0,0
477,1765902678097,-24,-120,57,0,0,0,0,0
478,1765902678833,64,-425,84,0,0,0,0,0
479,1765902679083,66,-651,-28,0,0,0,0,0
480,1765902679399,38,-576,132,0,0,0,0,0
481,1765902682465,-19,-173,-18,0,0,0,0,0
482,1765902682903,73,-130,57,0,0,0,0,0
483,1765902682903,-3,-62,161,0,0,0,0,0
484,1765902683433,19,-53,-16,0,0,0,0,0
485,1765902684715,25,-13,23,0,0,0,0,0
486,1765902686049,-58,12,-55,0,0,0,0,0
487,1765902686315,52,24,1,0,0,0,0,0
488,1765902687081,-42,92,21,0,0,0,0,0
489,1765902687515,-29,97,20,0,0,0,0,0
490,1765902688115,-9,53,-21,0,0,0,0,0
491,1765902689334,42,-132,31,0,0,0,0,0
492,1765902690099,2,-133,17,0,0,0,0,0
493,1765902690981,-6,-20,-1,0,0,0,0,0
494,1765902691300,-43,539,-16,0,0,0,0,0
495,1765902692700,-28,-420,-7,0,0,0,0,0
496,1765902692948,18,-481,-20,0,0,0,0,0
497,1765902693016,-46,-463,72,0,0,0,0,0
498,1765902693298,83,-434,34,0,0,0,0,0
499,1765902693934,-1,22,35,0,0,0,0,0
500,1765902694299,-106,62,-42,0,0,0,0,0
501,1765902694614,24,-160,15,0,0,0,0,0
502,1765902694866,4,-233,38,0,0,0,0,0
503,1765902695334,89,-474,-45,0,0,0,0,0
504,1765902695616,-60,-478,38,0,0,0,0,0
505,1765902695832,-27,-434,57,0,0,0,0,0
506,1765902696083,74,-438,23,0,0,0,0,0
507,1765902696498,-36,-346,-29,0,0,0,0,0
508,1765902697501,8,-208,10,0,0,0,0,0
509,1765902700848,-33,-212,-8,0,0,0,0,0
510,1765902702266,-26,-122,37,0,0,0,0,0
511,1765902702515,35,-107,-25,0,0,0,0,0
512,1765902703349,-23,-17,-11,0,0,0,0,0
513,1765902703798,4,-13,-4,0,0,0,0,0
514,1765902704841,-2,14,1,0,0,0,0,0
515,1765902706247,-6,12,2,0,0,0,0,0
516,1765902706783,-7,12,2,0,0,0,0,0
517,1765902707099,-8,13,3,0,0,0,0,0
518,1765902707317,-5,12,-1,0,0,0,0,0
519,1765902707698,-5,-1,1,0,0,0,0,0
520,1765902708131,-7,8,-3,0,0,0,0,0
521,1765902708166,-23,10,3,0,0,0,0,0
522,1765902708598,7,17,4,0,0,0,0,0
523,1765902708732,-7,18,-5,0,0,0,0,0
524,1765902709014,-5,9,-2,0,0,0,0,0
525,1765902709498,-5,10,0,0,0,0,0,0
526,1765902709531,-8,11,4,0,0,0,0,0
527,1765902710016,-5,11,2,0,0,0,0,0
528,1765902710300,-9,12,0,0,0,0,0,0
529,1765902710765,1,12,1,0,0,0,0,0
530,1765902711332,-6,17,2,0,0,0,0,0
531,1765902711615,-6,15,0,0,0,0,0,0
532,1765902711965,-9,13,1,0,0,0,0,0
533,1765902711999,-8,11,-1,0,0,0,0,0
534,1765902712600,-4,14,2,0,0,0,0,0
535,1765902713815,-7,13,1,0,0,0,0,0
536,1765902715048,-9,12,2,0,0,0,0,0
537,1765902715465,-6,10,2,0,0,0,0,0
538,1765902716548,-6,12,-1,0,0,0,0,0
539,1765902716898,-8,12,2,0,0,0,0,0
540,1765902718349,-8,9,1,0,0,0,0,0
541,1765902718448,-4,10,0,0,0,0,0,0
542,1765902752849,-9,14,1,0,0,0,0,0
543,1765902752964,-8,10,2,0,0,0,0,0
544,1765902753082,-8,11,2,0,0,0,0,0
545,1765902753214,-5,15,0,0,0,0,0,0
546,1765902753315,-3,13,1,0,0,0,0,0
547,1765902753463,-9,12,3,0,0,0,0,0
548,1765902753548,-8,15,0,0,0,0,0,0
549,1765902753698,-10,12,-1,0,0,0,0,0
550,1765902753766,-7,10,3,0,0,0,0,0
551,1765902755948,-6,14,0,0,0,0,0,0
552,1765902756030,-7,12,1,0,0,0,0,0
553,1765902756064,-8,11,1,0,0,0,0,0
554,1765902756899,-6,12,1,0,0,0,0,0
555,1765902757482,-9,11,2,0,0,0,0,0
556,1765902758164,-7,12,2,0,0,0,0,0
557,1765902758333,-7,11,0,0,0,0,0,0
558,1765902758731,-7,12,1,0,0,0,0,0
559,1765902758966,-6,13,1,0,0,0,0,0
560,1765902760330,-9,12,2,0,0,0,0,0
561,1765902760816,-7,11,2,0,0,0,0,0
562,1765902761093,-6,13,0,0,0,0,0,0
563,1765902761966,-8,13,0,0,0,0,0,0
564,1765902762697,-6,12,2,0,0,0,0,0
565,1765902763097,-6,13,1,0,0,0,0,0
566,1765902765897,-8,11,1,0,0,0,0,0
567,1765902766031,-8,12,1,0,0,0,0,0
568,1765902766346,-9,12,2,0,0,0,0,0
569,1765902766464,-7,13,2,0,0,0,0,0
570,1765902766698,-9,11,2,0,0,0,0,0
571,1765902768297,-4,14,4,0,0,0,0,0
572,1765903179542,-6,13,2,0,0,0,0,0
573,1765903179662,-6,12,1,0,0,0,0,0
574,1765903179776,-7,13,2,0,0,0,0,0
575,1765903179909,-6,13,2,0,0,0,0,0
576,1765903180011,-5,10,2,0,0,0,0,0
577,1765903180160,-7,12,2,0,0,0,0,0
578,1765903180242,-6,13,0,0,0,0,0,0
579,1765903180408,-6,12,3,0,0,0,0,0
580,1765903180460,-7,13,1,0,0,0,0,0
581,1765903182430,-8,12,0,0,0,0,0,0
582,1765903183076,-7,12,1,0,0,0,0,0
583,1765903183711,-6,13,0,0,0,0,0,0
584,1765903183976,-6,11,1,0,0,0,0,0
585,1765903184175,-5,11,2,0,0,0,0,0
586,1765903185008,-8,12,1,0,0,0,0,0
587,1765903185807,-9,12,0,0,0,0,0,0
588,1765903189943,-7,12,1,0,0,0,0,0
589,1765903190358,-6,12,1,0,0,0,0,0
590,1765903190409,-6,14,1,0,0,0,0,0
591,1765903190791,-8,12,2,0,0,0,0,0
592,1765903191543,-8,13,0,0,0,0,0,0
593,1765903191744,-6,12,2,0,0,0,0,0
594,1765903192426,-7,13,1,0,0,0,0,0
595,1765903192777,-7,12,0,0,0,0,0,0
596,1765903195226,-5,11,1,0,0,0,0,0
597,1765903195393,-8,11,1,0,0,0,0,0
598,1765903195727,-8,12,-1,0,0,0,0,0
599,1765903195928,-7,12,2,0,0,0,0,0
600,1765903196426,-6,11,0,0,0,0,0,0
601,1765903196609,-5,11,1,0,0,0,0,0
602,1765903196709,-7,11,2,0,0,0,0,0
603,1765903197595,-7,12,2,0,0,0,0,0
604,1765903198509,-7,12,0,0,0,0,0,0
605,1765903199309,-6,13,1,0,0,0,0,0
606,1765903200127,-7,10,1,0,0,0,0,0
607,1765903200542,-7,13,1,0,0,0,0,0
608,1765903201776,-8,11,3,0,0,0,0,0
609,1765903201891,-6,11,1,0,0,0,0,0
610,1765903202594,-7,11,1,0,0,0,0,0
611,1765903203208,-7,13,0,0,0,0,0,0
612,1765903203758,-7,12,0,0,0,0,0,0
613,1765903205261,-8,11,0,0,0,0,0,0
614,1765903205392,-6,11,1,0,0,0,0,0
615,1765903205795,-12,11,1,0,0,0,0,0
616,1765903205991,-7,13,1,0,0,0,0,0
617,1765903206409,-8,12,1,0,0,0,0,0
618,1765903206592,-9,11,3,0,0,0,0,0
619,1765903206891,-6,14,0,0,0,0,0,0
620,1765903206961,-9,11,1,0,0,0,0,0
621,1765903207392,-5,11,2,0,0,0,0,0
622,1765903210060,-6,11,0,0,0,0,0,0
623,1765903210159,-5,14,0,0,0,0,0,0
624,1765903210626,-8,11,1,0,0,0,0,0
625,1765903210926,-7,13,1,0,0,0,0,0
626,1765903211441,-7,10,1,0,0,0,0,0
627,1765903211543,-7,12,0,0,0,0,0,0
628,1765903211708,-7,12,2,0,0,0,0,0
629,1765903212576,-6,11,1,0,0,0,0,0
630,1765903214812,-6,13,1,0,0,0,0,0
631,1765903214977,-7,14,0,0,0,0,0,0
632,1765903215269,-6,13,1,0,0,0,0,0
633,1765903215476,-5,12,1,0,0,0,0,0
634,1765903215727,-9,11,1,0,0,0,0,0
635,1765903215776,-86,-2,0,0,0,0,0,0
636,1765903216093,20,20,21,0,0,0,0,0
637,1765903216577,4,-143,0,0,0,0,0,0
638,1765903216610,-20,-156,24,0,0,0,0,0
639,1765903217428,20,-326,63,0,0,0,0,0
640,1765903217825,23,-272,2,0,0,0,0,0
641,1765903220424,40,76,49,0,0,0,0,0
642,1765903220608,-32,81,-4,0,0,0,0,0
643,1765903220775,4,78,-9,0,0,0,0,0
644,1765903221109,31,64,-32,0,0,0,0,0
645,1765903221291,3,68,26,0,0,0,0,0
646,1765903221545,-21,31,-52,0,0,0,0,0
647,1765903221591,-9,-65,46,0,0,0,0,0
648,1765903222075,-44,-10,-65,0,0,0,0,0
649,1765903222259,-120,-14,66,0,0,0,0,0
650,1765903222592,-251,4,-10,0,0,0,0,0
651,1765903222791,12,18,-9,0,0,0,0,0
652,1765903223228,5,39,-55,0,0,0,0,0
653,1765903224143,-44,38,11,0,0,0,0,0
654,1765903224309,62,67,37,0,0,0,0,0
655,1765903224791,6,167,-38,0,0,0,0,0
656,1765903224825,-5,182,17,0,0,0,0,0
657,1765903225009,-21,303,-6,0,0,0,0,0
658,1765903228510,-97,683,-158,0,0,0,0,0
659,1765903229591,-37,-75,-19,0,0,0,0,0
660,1765903230145,29,362,70,0,0,0,0,0
661,1765903230608,-12,669,-73,0,0,0,0,0
662,1765903230775,-59,667,-175,0,0,0,0,0
663,1765903231910,56,-800,15,0,0,0,0,0
664,1765903234442,-3,-406,224,0,0,0,0,0
665,1765903235708,-9,-370,9,0,0,0,0,0
666,1765903236442,-54,-193,43,0,0,0,0,0
667,1765903236841,19,20,-88,0,0,0,0,0
668,1765903237724,3,-132,43,0,0,0,0,0
669,1765903237774,71,-119,4,0,0,0,0,0
670,1765903238060,27,-68,7,0,0,0,0,0
671,1765903238276,72,-108,14,0,0,0,0,0
672,1765903239493,37,-142,91,0,0,0,0,0
673,1765903240575,18,-68,57,0,0,0,0,0
674,1765903240759,40,-61,-40,0,0,0,0,0
675,1765903242042,30,-671,26,0,0,0,0,0
676,1765903243024,38,-539,-8,0,0,0,0,0
677,1765903243443,145,-665,-15,0,0,0,0,0
678,1765903243842,164,-859,12,0,0,0,0,0
679,1765903248294,-76,-15,-5,0,0,0,0,0
680,1765903248943,-146,1,144,0,0,0,0,0
681,1765903249010,-161,-21,-4,0,0,0,0,0
682,1765903249476,52,5,36,0,0,0,0,0
683,1765903250059,1,-7,33,0,0,0,0,0
684,1765903250476,3,24,40,0,0,0,0,0
685,1765903250708,-20,-26,34,0,0,0,0,0
686,1765903250874,38,-219,-29,0,0,0,0,0
687,1765903251226,-236,-623,47,0,0,0,0,0
688,1765903251274,-14,-598,-44,0,0,0,0,0
689,1765903251674,-40,449,0,0,0,0,0,0
690,1765903251957,-49,613,-44,0,0,0,0,0
691,1765903256543,-7,-483,18,0,0,0,0,0
692,1765903258059,-51,-610,195,0,0,0,0,0
693,1765903260741,34,-561,52,0,0,0,0,0
694,1765903261044,45,-538,24,0,0,0,0,0
695,1765903261075,17,-440,47,0,0,0,0,0
696,1765903261409,5,-267,-1,0,0,0,0,0
697,1765903261542,1,-147,84,0,0,0,0,0
698,1765903261858,19,215,29,0,0,0,0,0
699,1765903262175,-27,356,21,0,0,0,0,0
700,1765903262374,-49,472,5,0,0,0,0,0
701,1765903262725,-21,403,-61,0,0,0,0,0
702,1765903263109,-43,-229,-86,0,0,0,0,0
703,1765903263225,6,-350,13,0,0,0,0,0
704,1765903265344,15,791,26,0,0,0,0,0
705,1765903265742,-16396,750,-3104,0,0,0,0,0
706,1765903267308,44,734,137,0,0,0,0,0
707,1765903274826,61,-257,6,0,0,0,0,0
708,1765903277408,-30,-64,-40,0,0,0,0,0
709,1765903277640,-1,-79,84,0,0,0,0,0
710,1765903277810,-26,-97,-165,0,0,0,0,0
711,1765903277960,3,-142,-90,0,0,0,0,0
712,1765903278207,-59,-151,-13,0,0,0,0,0
713,1765903278691,32,-118,25,0,0,0,0,0
714,1765903279924,29,-73,-5,0,0,0,0,0
715,1765903280744,-40,-219,-88,0,0,0,0,0
716,1765903281270,32,-388,-72,0,0,0,0,0
717,1765903281809,144,-683,3,0,0,0,0,0
718,1765903283241,-7,-328,94,0,0,0,0,0
719,1765903283658,32,-301,16,0,0,0,0,0
720,1765903284074,-86,-169,19,0,0,0,0,0
721,1765903285009,56,-192,-7,0,0,0,0,0
722,1765903286574,12,-159,35,0,0,0,0,0
723,1765903286641,52,-87,47,0,0,0,0,0
724,1765903287091,-43,21,-27,0,0,0,0,0
725,1765903287607,20,42,-2,0,0,0,0,0
726,1765903287760,-2,23,-104,0,0,0,0,0
727,1765903288008,33,49,66,0,0,0,0,0
728,1765903288175,63,29,-111,0,0,0,0,0
729,1765903288376,149,33,-43,0,0,0,0,0
730,1765903288990,-101,30,6,0,0,0,0,0
731,1765903291224,-10,171,27,0,0,0,0,0
732,1765903292857,-127,-369,26,0,0,0,0,0
733,1765903293358,-25,-101,99,0,0,0,0,0
734,1765903293724,-48,-142,2,0,0,0,0,0
735,1765903293976,48,-133,58,0,0,0,0,0
736,1765903294258,13,-274,-39,0,0,0,0,0
737,1765903294510,8,-389,-57,0,0,0,0,0
738,1765903294775,13,-432,112,0,0,0,0,0
739,1765903295075,-206,-353,-11,0,0,0,0,0
740,1765903295508,-24,-417,30,0,0,0,0,0
741,1765903297475,172,-541,92,0,0,0,0,0
742,1765903299495,42,-550,19,0,0,0,0,0
743,1765903300557,-88,244,-30,0,0,0,0,0
744,1765903301492,41,-498,51,0,0,0,0,0
745,1765903302890,26,-155,-92,0,0,0,0,0
746,1765903304993,-52,465,-30,0,0,0,0,0
747,1765903306375,-37,704,-63,0,0,0,0,0
748,1765903308141,24,423,-49,0,0,0,0,0
749,1765903311058,-3,-132,14,0,0,0,0,0
750,1765903313325,-11,45,21,0,0,0,0,0
751,1765903315524,-19,-14,17,0,0,0,0,0
752,1765903315674,-12,-14,3,0,0,0,0,0
753,1765903316876,1,-6,10,0,0,0,0,0
754,1765903317674,-7,7,4,0,0,0,0,0
755,1765903317857,-10,9,2,0,0,0,0,0
756,1765903318774,-5,12,2,0,0,0,0,0
757,1765903318957,-8,12,2,0,0,0,0,0
758,1765903319940,-7,12,1,0,0,0,0,0
759,1765903320024,-7,12,1,0,0,0,0,0
760,1765903321274,-3,13,0,0,0,0,0,0
761,1765903321474,-5,12,0,0,0,0,0,0
762,1765903321640,-1,12,1,0,0,0,0,0
763,1765903324094,-6,11,1,0,0,0,0,0
764,1765903324359,-7,13,2,0,0,0,0,0
765,1765903325241,-9,11,1,0,0,0,0,0
766,1765903325324,-8,13,-1,0,0,0,0,0
767,1765903326224,-5,11,0,0,0,0,0,0
768,1765903326407,-7,12,1,0,0,0,0,0
769,1765903327661,-5,13,1,0,0,0,0,0
770,1765903327857,-6,10,0,0,0,0,0,0
771,1765903328309,-8,11,1,0,0,0,0,0
772,1765903328473,-6,12,1,0,0,0,0,0
773,1765903329407,-6,11,2,0,0,0,0,0
774,1765903329607,-5,18,4,0,0,0,0,0
775,1765903330424,-10,13,0,0,0,0,0,0
776,1765903332323,-6,10,1,0,0,0,0,0
777,1765903334789,-7,12,2,0,0,0,0,0
778,1765903337809,-2,9,-1,0,0,0,0,0
779,1765903337872,-5,11,1,0,0,0,0,0
780,1765903338039,-6,12,1,0,0,0,0,0
781,1765903338124,-8,12,2,0,0,0,0,0
782,1765903338290,-7,12,0,0,0,0,0,0
783,1765903338373,-5,13,2,0,0,0,0,0
784,1765903338527,-7,12,1,0,0,0,0,0
785,1765903338641,-7,11,1,0,0,0,0,0
786,1765903338722,-6,12,1,0,0,0,0,0
787,1765903340439,-6,12,2,0,0,0,0,0
788,1765903340557,-6,11,0,0,0,0,0,0
789,1765903340692,-8,12,1,0,0,0,0,0
790,1765903340806,-8,13,0,0,0,0,0,0
791,1765903340908,-7,11,2,0,0,0,0,0
792,1765903341056,-4,13,2,0,0,0,0,0
793,1765903341140,-6,11,2,0,0,0,0,0
794,1765903341290,-7,12,2,0,0,0,0,0
795,1765903341373,-8,13,2,0,0,0,0,0
796,1765903341940,-7,13,1,0,0,0,0,0
797,1765903342707,-7,13,1,0,0,0,0,0
798,1765903342990,-7,12,1,0,0,0,0,0
799,1765903345355,-7,12,2,0,0,0,0,0
800,1765903345355,-7,11,1,0,0,0,0,0
801,1765903345355,-6,11,1,0,0,0,0,0
802,1765903345355,-7,11,1,0,0,0,0,0
803,1765903347006,-6,11,2,0,0,0,0,0
804,1765903347827,-7,12,1,0,0,0,0,0
805,1765903349406,-7,12,1,0,0,0,0,0
806,1765903349641,-8,12,2,0,0,0,0,0
807,1765903349958,-7,12,1,0,0,0,0,0
808,1765903350773,-7,12,2,0,0,0,0,0
809,1765903350823,-5,13,3,0,0,0,0,0
810,1765903351357,-6,12,1,0,0,0,0,0
811,1765903351622,-5,12,3,0,0,0,0,0
812,1765903351689,-8,12,1,0,0,0,0,0
813,1765903352475,-8,12,1,0,0,0,0,0
814,1765903353742,-8,12,2,0,0,0,0,0
815,1765903356358,-7,12,2,0,0,0,0,0
816,1765903357943,-7,12,1,0,0,0,0,0
817,1765903359291,-9,12,2,0,0,0,0,0
818,1765903360908,-6,13,2,0,0,0,0,0
819,1765903361341,-9,12,2,0,0,0,0,0
820,1765903362023,13,6,-2,0,0,0,0,0
821,1765903363240,10,-309,31,0,0,0,0,0
822,1765903365907,-96,-188,34,0,0,0,0,0
823,1765903366173,-115,-218,-4,0,0,0,0,0
824,1765903366673,-17,-169,21,0,0,0,0,0
825,1765903368889,75,-414,-53,0,0,0,0,0
826,1765903369665,53,-325,24,0,0,0,0,0
827,1765903370659,1,-94,-10,0,0,0,0,0
828,1765903370908,61,-104,-15,0,0,0,0,0
829,1765903371109,-38,-89,-35,0,0,0,0,0
830,1765903371707,39,-52,69,0,0,0,0,0
831,1765903372007,-29,-97,49,0,0,0,0,0
832,1765903372290,-46,-110,-21,0,0,0,0,0
833,1765903372491,-11,-112,-147,0,0,0,0,0
834,1765903372673,29,-85,129,0,0,0,0,0
835,1765903373741,23,-85,-53,0,0,0,0,0
836,1765903374573,-71,-70,52,0,0,0,0,0
837,1765903375024,16,-104,53,0,0,0,0,0
838,1765903375124,11,-140,-36,0,0,0,0,0
839,1765903376359,31,-476,-40,0,0,0,0,0
840,1765903377326,-56,-193,-45,0,0,0,0,0
841,1765903378491,61,-342,-3,0,0,0,0,0
842,1765903378656,54,-329,57,0,0,0,0,0
843,1765903379692,93,-239,11,0,0,0,0,0
844,1765903383474,1,53,-22,0,0,0,0,0
845,1765903384894,3,12,2,0,0,0,0,0
846,1765903388791,-7,12,2,0,0,0,0,0
847,1765903390156,-6,12,1,0,0,0,0,0
848,1765903391824,-5,12,2,0,0,0,0,0
849,1765903422808,-6,14,3,0,0,0,0,0
850,1765903422956,-6,8,3,0,0,0,0,0
851,1765903423039,-8,16,-1,0,0,0,0,0
852,1765903423208,-8,12,1,0,0,0,0,0
853,1765903423274,-5,10,1,0,0,0,0,0
854,1765903423440,-9,13,1,0,0,0,0,0
855,1765903423506,-5,14,3,0,0,0,0,0
856,1765903423691,-9,12,2,0,0,0,0,0
857,1765903423722,-6,13,0,0,0,0,0,0
858,1765903424589,-8,13,1,0,0,0,0,0
859,1765903429356,-7,12,1,0,0,0,0,0
860,1765903430139,-7,12,1,0,0,0,0,0
861,1765903430989,-8,11,1,0,0,0,0,0
862,1765903431022,-6,12,-1,0,0,0,0,0
863,1765903431340,-7,11,2,0,0,0,0,0
864,1765903433122,-7,14,0,0,0,0,0,0
865,1765903433875,-7,12,3,0,0,0,0,0
866,1765903434289,-9,13,0,0,0,0,0,0
867,1765903437559,-9,12,0,0,0,0,0,0
868,1765903437872,-8,12,2,0,0,0,0,0
869,1765903438907,-8,12,2,0,0,0,0,0
870,1765903439056,-7,12,2,0,0,0,0,0
871,1765903440056,-7,13,2,0,0,0,0,0
872,1765903440141,-8,13,1,0,0,0,0,0
873,1765903440374,-8,13,2,0,0,0,0,0
874,1765903441073,-7,13,2,0,0,0,0,0
875,1765903441290,-6,12,1,0,0,0,0,0
876,1765903441772,-7,13,1,0,0,0,0,0
877,1765903441942,-7,13,2,0,0,0,0,0
878,1765903442256,-8,12,1,0,0,0,0,0
879,1765903442774,-6,13,1,0,0,0,0,0
880,1765903443072,-7,13,2,0,0,0,0,0
881,1765903444139,-7,12,2,0,0,0,0,0
882,1765903444809,-6,11,2,0,0,0,0,0
883,1765903445659,-7,13,1,0,0,0,0,0
884,1765903445805,-7,12,1,0,0,0,0,0
885,1765903446005,-7,14,2,0,0,0,0,0
886,1765903447238,-8,13,2,0,0,0,0,0
887,1765903448158,-7,12,3,0,0,0,0,0
888,1765903448456,-8,14,1,0,0,0,0,0
889,1765903448691,-5,12,0,0,0,0,0,0
890,1765903449472,-8,13,1,0,0,0,0,0
891,1765903451056,-7,12,1,0,0,0,0,0
892,1765903451489,-7,13,2,0,0,0,0,0
893,1765903451607,-8,12,1,0,0,0,0,0
894,1765903451908,-7,12,1,0,0,0,0,0
895,1765903452075,-7,13,2,0,0,0,0,0
896,1765903452340,-7,12,2,0,0,0,0,0
897,1765903452706,-7,13,1,0,0,0,0,0
898,1765903452960,-7,12,1,0,0,0,0,0
899,1765903453522,-7,12,2,0,0,0,0,0
900,1765903455510,-5,12,1,0,0,0,0,0
901,1765903455873,-8,12,2,0,0,0,0,0
902,1765903456056,-6,12,1,0,0,0,0,0
903,1765903456657,-7,13,1,0,0,0,0,0
904,1765903456991,-8,13,2,0,0,0,0,0
905,1765903458291,-7,12,2,0,0,0,0,0
906,1765903459957,-6,13,2,0,0,0,0,0
907,1765903460372,-8,12,2,0,0,0,0,0
908,1765903460771,-8,11,2,0,0,0,0,0
909,1765903462224,-7,14,1,0,0,0,0,0
910,1765903462973,-8,11,2,0,0,0,0,0
911,1765903463224,-6,13,0,0,0,0,0,0
912,1765903463288,-8,12,0,0,0,0,0,0
913,1765903464056,-6,12,2,0,0,0,0,0
914,1765903464990,-7,15,1,0,0,0,0,0
915,1765903467091,-5,12,2,0,0,0,0,0
916,1765903468156,-7,10,2,0,0,0,0,0
917,1765903468422,-6,15,1,0,0,0,0,0
918,1765903468656,-8,11,1,0,0,0,0,0
919,1765903468906,-7,10,3,0,0,0,0,0
920,1765903468939,-23,-31,4,0,0,0,0,0
921,1765903469208,6,11,-8,0,0,0,0,0
922,1765903469405,-21,21,29,0,0,0,0,0
923,1765903470240,-4,-89,14,0,0,0,0,0
924,1765903470574,5,-90,-17,0,0,0,0,0
925,1765903470756,23,-72,12,0,0,0,0,0
926,1765903471123,2,-15,-3,0,0,0,0,0
927,1765903471474,-1,-4,-12,0,0,0,0,0
928,1765903471741,-45,6,10,0,0,0,0,0
929,1765903475455,-9,-7,-6,0,0,0,0,0
930,1765903475957,67,4,7,0,0,0,0,0
931,1765903476123,-53,22,-23,0,0,0,0,0
932,1765903476723,-12,9,-4,0,0,0,0,0
933,1765903477045,17,6,-23,0,0,0,0,0
934,1765903477092,-21,-7,29,0,0,0,0,0
935,1765903477672,-63,3,24,0,0,0,0,0
936,1765903477772,22,-5,5,0,0,0,0,0
937,1765903478021,14,-38,-21,0,0,0,0,0
938,1765903478389,-9,-54,13,0,0,0,0,0
939,1765903478441,5,-116,53,0,0,0,0,0
940,1765903478805,-16,-244,29,0,0,0,0,0
941,1765903479322,24,-188,-4,0,0,0,0,0
942,1765903479622,27,-36,20,0,0,0,0,0
943,1765903479659,21,16,3,0,0,0,0,0
944,1765903480855,5,474,-46,0,0,0,0,0
945,1765903481005,-74,407,10,0,0,0,0,0
946,1765903481691,-25,-318,-9,0,0,0,0,0
947,1765903482122,-74,-461,27,0,0,0,0,0
948,1765903482539,-5,-19,-21,0,0,0,0,0
949,1765903482805,13,-22,33,0,0,0,0,0
950,1765903483342,42,-41,22,0,0,0,0,0
951,1765903483955,43,-333,26,0,0,0,0,0
952,1765903484138,44,-312,83,0,0,0,0,0
953,1765903484375,80,-353,127,0,0,0,0,0
954,1765903485955,18,-305,33,0,0,0,0,0
955,1765903488047,158,-436,-10,0,0,0,0,0
956,1765903488558,-39,-537,198,0,0,0,0,0
957,1765903488822,21,-499,12,0,0,0,0,0
958,1765903488957,43,-483,83,0,0,0,0,0
959,1765903489257,11,-396,41,0,0,0,0,0
960,1765903490705,-77,154,1,0,0,0,0,0
961,1765903492988,13,420,-54,0,0,0,0,0
962,1765903493341,-23,116,-70,0,0,0,0,0
963,1765903496738,-23,667,-33,0,0,0,0,0
964,1765903497722,-72,735,-75,0,0,0,0,0
965,1765903497922,-17,768,14,0,0,0,0,0
966,1765903499075,-9,-242,0,0,0,0,0,0
967,1765903500724,6,-197,-81,0,0,0,0,0
968,1765903502624,15,-658,21,0,0,0,0,0
969,1765903502905,13,-629,32,0,0,0,0,0
970,1765903503324,47,-276,53,0,0,0,0,0
971,1765903504306,-48,-287,-39,0,0,0,0,0
972,1765903504557,35,-265,17,0,0,0,0,0
973,1765903504609,24,-290,131,0,0,0,0,0
974,1765903505105,-70,-358,1123,0,0,0,0,0
975,1765903505439,46,-331,-39,0,0,0,0,0
976,1765903505722,16,-346,-17,0,0,0,0,0
977,1765903506255,5,-296,-21,0,0,0,0,0
978,1765903506622,-25,-211,21,0,0,0,0,0
979,1765903507172,-16,-122,41,0,0,0,0,0
980,1765903507708,24,-49,-55,0,0,0,0,0
981,1765903508492,-35,6,-40,0,0,0,0,0
982,1765903510406,-14,-89,9,0,0,0,0,0
983,1765903510725,30,-82,-14,0,0,0,0,0
984,1765903510874,0,-80,-1,0,0,0,0,0
985,1765903511088,-7,-71,60,0,0,0,0,0
986,1765903511459,-20,-112,-53,0,0,0,0,0
987,1765903511839,7,-75,8,0,0,0,0,0
988,1765903512221,-1,-73,-23,0,0,0,0,0
989,1765903512889,28,-42,31,0,0,0,0,0
990,1765903513156,9,-19,44,0,0,0,0,0
991,1765903513255,-23,-1,-1,0,0,0,0,0
992,1765903513571,-59,0,2,0,0,0,0,0
993,1765903513973,-30,-20,22,0,0,0,0,0
994,1765903515406,7,-346,91,0,0,0,0,0
995,1765903515571,50,-371,6,0,0,0,0,0
996,1765903516038,125,-517,102,0,0,0,0,0
997,1765903516738,-107,-464,23,0,0,0,0,0
998,1765903517709,4,-407,-70,0,0,0,0,0
999,1765903517972,29,-412,87,0,0,0,0,0
1000,1765903518388,-54,-370,13,0,0,0,0,0
1001,1765903520221,27,-124,-30,0,0,0,0,0
1002,1765903521456,11,-26,14,0,0,0,0,0
1003,1765903521739,30,-28,38,0,0,0,0,0
1004,1765903522123,-17,-73,-24,0,0,0,0,0
1005,1765903524158,9,25,-22,0,0,0,0,0
1006,1765903524641,80,-26,-8,0,0,0,0,0
1007,1765903524805,-251,-45,-2,0,0,0,0,0
1008,1765903525454,-11,-1,-15,0,0,0,0,0
1009,1765903525638,36,-14,23,0,0,0,0,0
1010,1765903526371,-16,-176,2,0,0,0,0,0
1011,1765903526888,-40,-245,21,0,0,0,0,0
1012,1765903527074,27,-116,103,0,0,0,0,0
1013,1765903528123,-95,536,-46,0,0,0,0,0
1014,1765903528938,-16,-351,-221,0,0,0,0,0
1015,1765903529139,-32,-356,12,0,0,0,0,0
1016,1765903529258,33,-610,-40,0,0,0,0,0
1017,1765903530524,-56,143,-45,0,0,0,0,0
1018,1765903530558,-236,-128,7,0,0,0,0,0
1019,1765903530821,9,-201,4,0,0,0,0,0
1020,1765903532624,-33,-390,40,0,0,0,0,0
1021,1765903535956,76,-468,74,0,0,0,0,0
1022,1765903536741,1,-205,-8,0,0,0,0,0
1023,1765903536821,4,-172,2,0,0,0,0,0
1024,1765903537638,14,-92,-1,0,0,0,0,0
1025,1765903537806,-64,-73,19,0,0,0,0,0
1026,1765903538522,33,-1,34,0,0,0,0,0
1027,1765903538771,-9,5,-24,0,0,0,0,0
1028,1765903538922,-26,74,13,0,0,0,0,0
1029,1765903539221,-47,3,12,0,0,0,0,0
1030,1765903541939,30,46,-40,0,0,0,0,0
1031,1765903542223,53,-276,13,0,0,0,0,0
1032,1765903542920,29,-160,29,0,0,0,0,0
1033,1765903544672,7,590,23,0,0,0,0,0
1034,1765903545704,-134,683,-157,0,0,0,0,0
1035,1765903546040,-53,631,-2,0,0,0,0,0
1036,1765903550888,10,-510,32,0,0,0,0,0
1037,1765903552339,43,-532,34,0,0,0,0,0
1038,1765903552588,26,-523,26,0,0,0,0,0
1039,1765903553173,-27,-443,-20,0,0,0,0,0
1040,1765903553897,78,-340,34,0,0,0,0,0
1041,1765903555171,0,-320,133,0,0,0,0,0
1042,1765903555390,38,-399,35,0,0,0,0,0
1043,1765903555637,-117,-451,-126,0,0,0,0,0
1044,1765903555923,69,-442,-42,0,0,0,0,0
1045,1765903556021,30,-457,-7,0,0,0,0,0
1046,1765903556254,50,-446,-53,0,0,0,0,0
1047,1765903556737,44,-274,-13,0,0,0,0,0
1048,1765903556853,-251,-246,31,0,0,0,0,0
1049,1765903557337,20,-138,16,0,0,0,0,0
1050,1765903557488,-70,-108,37,0,0,0,0,0
1051,1765903558105,113,-87,12,0,0,0,0,0
1052,1765903558420,-49,-104,12,0,0,0,0,0
1053,1765903559271,40,-66,-30,0,0,0,0,0
1054,1765903559521,-58,-104,-37,0,0,0,0,0
1055,1765903559873,10,-105,81,0,0,0,0,0
1056,1765903560089,-45,-108,8,0,0,0,0,0
1057,1765903562171,-11,-70,13,0,0,0,0,0
1058,1765903562304,57,-73,0,0,0,0,0,0
1059,1765903564073,-30,-499,62,0,0,0,0,0
1060,1765903565605,102,-319,-13,0,0,0,0,0
1061,1765903567003,32,-116,52,0,0,0,0,0
1062,1765903567171,15,-93,45,0,0,0,0,0
1063,1765903567337,6,-53,-51,0,0,0,0,0
1064,1765903568473,-11,-44,89,0,0,0,0,0
1065,1765903574156,-7,11,1,0,0,0,0,0
1066,1765903574304,-6,13,1,0,0,0,0,0
1067,1765903575487,-7,11,1,0,0,0,0,0
1068,1765903580453,-8,11,3,0,0,0,0,0
1069,1765903581436,-8,12,3,0,0,0,0,0
1070,1765903581620,-6,11,2,0,0,0,0,0
1071,1765903582370,-7,11,1,0,0,0,0,0
1072,1765903582453,-6,10,2,0,0,0,0,0
1073,1765903583837,-7,10,1,0,0,0,0,0
1074,1765904350594,-8,13,-1,0,0,0,0,0
1075,1765904350777,-8,14,0,0,0,0,0,0
1076,1765904350811,-7,14,2,0,0,0,0,0
1077,1765904351010,-8,14,1,0,0,0,0,0
1078,1765904351061,-9,15,1,0,0,0,0,0
1079,1765904351244,-9,14,0,0,0,0,0,0
1080,1765904351294,-8,14,3,0,0,0,0,0
1081,1765904351477,-8,14,1,0,0,0,0,0
1082,1765904353478,-8,14,1,0,0,0,0,0
1083,1765904353878,-7,14,0,0,0,0,0,0
1084,1765904354027,-10,14,1,0,0,0,0,0
1085,1765904354261,-8,13,3,0,0,0,0,0
1086,1765904355661,-8,14,0,0,0,0,0,0
1087,1765904357361,-8,14,2,0,0,0,0,0
1088,1765904357877,-8,14,2,0,0,0,0,0
1089,1765904358745,-9,14,0,0,0,0,0,0
1090,1765904359661,-8,14,1,0,0,0,0,0
1091,1765904359727,-8,14,1,0,0,0,0,0
1092,1765904360177,-7,14,1,0,0,0,0,0
1093,1765904362228,-9,14,1,0,0,0,0,0
1094,1765904362711,-8,14,2,0,0,0,0,0
1095,1765904365711,-8,12,0,0,0,0,0,0
1096,1765904366028,-8,14,1,0,0,0,0,0
1097,1765904366677,-8,13,2,0,0,0,0,0
1098,1765904367327,-8,13,3,0,0,0,0,0
1099,1765904367595,-8,12,1,0,0,0,0,0
1100,1765904367778,-7,13,1,0,0,0,0,0
1101,1765904369411,-8,14,0,0,0,0,0,0
1102,1765904369577,-7,13,1,0,0,0,0,0
1103,1765904370477,-7,12,2,0,0,0,0,0
1104,1765904370710,-8,13,1,0,0,0,0,0
1105,1765904370994,-9,13,3,0,0,0,0,0
1106,1765904371277,-7,13,1,0,0,0,0,0
1107,1765904373711,-6,13,1,0,0,0,0,0
1108,1765904374143,-7,12,1,0,0,0,0,0
1109,1765904374411,-8,14,1,0,0,0,0,0
1110,1765904375457,-8,14,2,0,0,0,0,0
1111,1765904375476,-14,15,-1,0,0,0,0,0
1112,1765904375544,-13,15,0,0,0,0,0,0
1113,1765904376477,-11,8,8,0,0,0,0,0
1114,1765904379528,-73,90,-2,0,0,0,0,0
1115,1765904379660,-34,86,6,0,0,0,0,0
1116,1765904379977,8,88,-5,0,0,0,0,0
1117,1765904381661,-36,96,-2,0,0,0,0,0
1118,1765904383444,-13,10,3,0,0,0,0,0
1119,1765904385261,31,6,2,0,0,0,0,0
1120,1765904386861,9,37,-7,0,0,0,0,0
1121,1765904387177,14,21,31,0,0,0,0,0
1122,1765904389678,4,15,-256,0,0,0,0,0
1123,1765904390994,38,-94,2,0,0,0,0,0
1124,1765904391144,2,-164,5,0,0,0,0,0
1125,1765904391661,-10,-204,-3,0,0,0,0,0
1126,1765904394262,-37,390,-34,0,0,0,0,0
1127,1765904394359,-44,420,-9,0,0,0,0,0
1128,1765904394611,-34,412,-29,0,0,0,0,0
1129,1765904396376,4,-414,28,0,0,0,0,0
1130,1765904397041,28,-445,14,0,0,0,0,0
1131,1765904397058,-8,-419,21,0,0,0,0,0
1132,1765904397345,55,-414,12,0,0,0,0,0
1133,1765904399008,3,166,-13,0,0,0,0,0
1134,1765904399843,-25,190,7,0,0,0,0,0
1135,1765904399943,-8,169,6,0,0,0,0,0
1136,1765904400726,-23,13,31,0,0,0,0,0
1137,1765904400992,-44,-5,-25,0,0,0,0,0
1138,1765904401345,7,2,-9,0,0,0,0,0
1139,1765904401610,-32,10,10,0,0,0,0,0
1140,1765904402860,32,306,-20,0,0,0,0,0
1141,1765904404377,-15,188,-28,0,0,0,0,0
1142,1765904405843,-23,102,0,0,0,0,0,0
1143,1765904406543,-8,30,0,0,0,0,0,0
1144,1765904406692,-10,21,0,0,0,0,0,0
1145,1765904406744,-8,17,2,0,0,0,0,0
1146,1765904407025,-6,18,2,0,0,0,0,0
1147,1765904407375,-7,23,1,0,0,0,0,0
1148,1765904408043,-8,28,-1,0,0,0,0,0
1149,1765904408060,-8,29,-2,0,0,0,0,0
1150,1765904408160,-9,35,0,0,0,0,0,0
1151,1765904408226,-11,39,0,0,0,0,0,0
1152,1765904408476,-8,43,-5,0,0,0,0,0
1153,1765904410093,6,68,-12,0,0,0,0,0
1154,1765904411660,-7,29,1,0,0,0,0,0
1155,1765904411943,-7,23,-1,0,0,0,0,0
1156,1765904412377,-8,18,1,0,0,0,0,0
1157,1765904416693,-4,38,-1,0,0,0,0,0
1158,1765904417793,-6,36,5,0,0,0,0,0
1159,1765904419643,-4,60,4,0,0,0,0,0
1160,1765904419927,-10,69,-4,0,0,0,0,0
1161,1765904422093,-12,62,3,0,0,0,0,0
1162,1765904423943,-9,14,1,0,0,0,0,0
1163,1765904427097,-16,71,0,0,0,0,0,0
1164,1765904427562,-3,81,-6,0,0,0,0,0
1165,1765904428775,6,46,1,0,0,0,0,0
1166,1765904429009,2,43,-6,0,0,0,0,0
1167,1765904431710,-15,35,31,0,0,0,0,0
1168,1765904432109,-8,32,10,0,0,0,0,0
1169,1765904432359,0,24,-7,0,0,0,0,0
1170,1765904434858,-12,27,-1,0,0,0,0,0
1171,1765904435825,-14,29,4,0,0,0,0,0
1172,1765904436827,-25,53,-9,0,0,0,0,0
1173,1765904438525,-10,35,-2,0,0,0,0,0
1174,1765904439825,-11,42,0,0,0,0,0,0
1175,1765904440974,-13,64,3,0,0,0,0,0
1176,1765904441025,-15,65,1,0,0,0,0,0
1177,1765904443676,-6,158,-12,0,0,0,0,0
1178,1765904443926,-24,172,-9,0,0,0,0,0
1179,1765904444277,-16,177,-10,0,0,0,0,0
1180,1765904447626,7,46,3,0,0,0,0,0
1181,1765904447676,7,45,10,0,0,0,0,0
1182,1765904447926,-25,34,12,0,0,0,0,0
1183,1765904448209,2,28,9,0,0,0,0,0
1184,1765904449558,-18,-5,-8,0,0,0,0,0
1185,1765904449859,-6,19,0,0,0,0,0,0
1186,1765904450275,-6,14,1,0,0,0,0,0
1187,1765904452411,-6,12,1,0,0,0,0,0
1188,1765904454458,-9,11,2,0,0,0,0,0
1189,1765904455141,-7,11,1,0,0,0,0,0
1190,1765904455543,-7,11,1,0,0,0,0,0
1191,1765904457309,-7,11,1,0,0,0,0,0
1192,1765904457593,-7,13,3,0,0,0,0,0
1193,1765904460424,-9,11,1,0,0,0,0,0
1194,1765904460576,-7,14,3,0,0,0,0,0
1195,1765904460875,-5,14,3,0,0,0,0,0
1196,1765904461707,-6,12,1,0,0,0,0,0
0,1765915244808,-8,10,1,0,0,0,0,0
1,1765915245025,-5,11,2,0,0,0,0,0
2,1765915245092,-6,10,1,0,0,0,0,0
3,1765915245309,-6,10,1,0,0,0,0,0
4,1765915245376,-6,11,1,0,0,0,0,0
5,1765915245625,-5,10,1,0,0,0,0,0
6,1765915245708,-5,10,2,0,0,0,0,0
7,1765915245909,-6,9,2,0,0,0,0,0
8,1765915246009,-6,9,2,0,0,0,0,0
9,1765915246208,-7,15,2,0,0,0,0,0
10,1765915246342,-3,15,1,0,0,0,0,0
11,1765915246475,-7,8,0,0,0,0,0,0
12,1765915246625,-2,10,1,0,0,0,0,0
13,1765915246759,-8,11,4,0,0,0,0,0
14,1765915246792,-6,9,0,0,0,0,0,0
15,1765915246975,-6,10,1,0,0,0,0,0
16,1765915247059,-6,12,1,0,0,0,0,0
17,1765915247258,-4,10,1,0,0,0,0,0
18,1765915247342,-6,9,0,0,0,0,0,0
19,1765915247608,-5,11,1,0,0,0,0,0
20,1765915247692,-7,11,2,0,0,0,0,0
21,1765915247908,-6,11,1,0,0,0,0,0
22,1765915248025,-7,11,1,0,0,0,0,0
23,1765915248225,-5,10,0,0,0,0,0,0
24,1765915248292,-6,11,1,0,0,0,0,0
25,1765915248525,-6,8,0,0,0,0,0,0
26,1765915248609,-6,13,1,0,0,0,0,0
27,1765915248841,-8,10,1,0,0,0,0,0
28,1765915248892,-5,9,3,0,0,0,0,0
29,1765915249125,-6,9,0,0,0,0,0,0
30,1765915249242,-5,10,1,0,0,0,0,0
31,1765915249425,-4,10,0,0,0,0,0,0
32,1765915249525,-9,12,1,0,0,0,0,0
33,1765915249742,-5,11,0,0,0,0,0,0
