index,date,ACCEL_X,ACCEL_Y,ACCEL_Z,1,2,3,4,5
0,1765902279375,3902,7400,-424,0,0,0,0,0
1,1765902279809,439,7738,-578,0,0,0,0,0
2,1765902280102,-2014,7920,-318,0,0,0,0,0
3,1765902280607,-2208,7134,-334,0,0,0,0,0
4,1765902280815,-1402,10824,-1338,0,0,0,0,0
5,1765902281279,-54,7954,-700,0,0,0,0,0
6,1765902281760,2137,7260,-1272,0,0,0,0,0
7,1765902282144,2632,8368,-1467,0,0,0,0,0
8,1765902282287,2954,8972,-1420,0,0,0,0,0
9,1765902282750,4472,9387,-1004,0,0,0,0,0
10,1765902283481,4405,12068,-2257,0,0,0,0,0
11,1765902283531,3718,7690,-1728,0,0,0,0,0
12,1765902284763,4179,8830,-1400,0,0,0,0,0
13,1765902286346,-2541,7796,-208,0,0,0,0,0
14,1765902290171,-1870,6953,-5203,0,0,0,0,0
15,1765902290909,159,7668,-220,0,0,0,0,0
16,1765902291376,-349,7725,-374,0,0,0,0,0
17,1765902292941,-283,8348,-435,0,0,0,0,0
18,1765902293424,-297,8334,-457,0,0,0,0,0
19,1765902293674,-317,8367,-534,0,0,0,0,0
20,1765902294123,-383,8365,-636,0,0,0,0,0
21,1765902294491,-86,8021,72,0,0,0,0,0
22,1765902294740,208,8373,82,0,0,0,0,0
23,1765902295223,-208,8172,110,0,0,0,0,0
24,1765902296987,-544,8431,-187,0,0,0,0,0
25,1765902297621,364,8246,-148,0,0,0,0,0
26,1765902297920,498,8705,-223,0,0,0,0,0
27,1765902300485,-171,7940,-2614,0,0,0,0,0
28,1765902301368,-626,8089,-2557,0,0,0,0,0
29,1765902302233,-394,8296,-593,0,0,0,0,0
30,1765902302484,-402,8418,-660,0,0,0,0,0
31,1765902302666,-404,8338,-554,0,0,0,0,0
32,1765902303066,-392,8339,-365,0,0,0,0,0
33,1765902303117,-406,8353,-457,0,0,0,0,0
34,1765902303450,-361,8343,-584,0,0,0,0,0
35,1765902303699,-362,8355,-484,0,0,0,0,0
36,1765902303915,-390,8344,-546,0,0,0,0,0
37,1765902304015,-380,8335,-564,0,0,0,0,0
38,1765902304599,-381,8317,-532,0,0,0,0,0
39,1765902304931,-377,8343,-530,0,0,0,0,0
40,1765902306013,-374,8344,-528,0,0,0,0,0
41,1765902306280,-390,8334,-518,0,0,0,0,0
42,1765902306330,-356,8334,-528,0,0,0,0,0
43,1765902306779,-358,8337,-521,0,0,0,0,0
44,1765902307046,-364,8329,-516,0,0,0,0,0
45,1765902307396,-373,8350,-518,0,0,0,0,0
46,1765902307845,-369,8342,-523,0,0,0,0,0
47,1765902308345,-386,8354,-525,0,0,0,0,0
48,1765902309094,-384,8315,-604,0,0,0,0,0
49,1765902310942,-277,8332,-607,0,0,0,0,0
50,1765902311759,-237,8427,-583,0,0,0,0,0
51,1765902312075,-239,8092,-696,0,0,0,0,0
52,1765902315855,-439,8404,-262,0,0,0,0,0
53,1765902316738,-403,8422,-216,0,0,0,0,0
54,1765902319169,520,8817,161,0,0,0,0,0
55,1765902320218,-266,8404,-162,0,0,0,0,0
56,1765902320368,130,8113,80,0,0,0,0,0
57,1765902320601,-467,8576,-319,0,0,0,0,0
58,1765902320834,-301,7645,-903,0,0,0,0,0
59,1765902321917,-131,8307,-803,0,0,0,0,0
60,1765902323533,282,8363,-1114,0,0,0,0,0
61,1765902325930,868,8351,653,0,0,0,0,0
62,1765902326979,802,7897,650,0,0,0,0,0
63,1765902328844,-861,7984,112,0,0,0,0,0
64,1765902328995,-1106,9564,-500,0,0,0,0,0
65,1765902329544,-1882,9969,-476,0,0,0,0,0
66,1765902330743,-2192,8998,-94,0,0,0,0,0
67,1765902331060,-2750,7785,-596,0,0,0,0,0
68,1765902331193,-2779,8738,-276,0,0,0,0,0
69,1765902331493,-1820,9128,-52,0,0,0,0,0
70,1765902331676,-1962,8404,477,0,0,0,0,0
71,1765902331876,-1315,7941,384,0,0,0,0,0
72,1765902332325,-1186,8031,498,0,0,0,0,0
73,1765902332575,-683,8013,777,0,0,0,0,0
74,1765902332642,-550,8285,890,0,0,0,0,0
75,1765902332925,70,7733,101,0,0,0,0,0
76,1765902333175,-119,7361,153,0,0,0,0,0
77,1765902333541,-814,8121,-188,0,0,0,0,0
78,1765902333591,-307,7009,444,0,0,0,0,0
79,1765902334491,-802,8226,-223,0,0,0,0,0
80,1765902334757,-799,8026,-540,0,0,0,0,0
81,1765902338137,-1841,7647,-899,0,0,0,0,0
82,1765902338170,-2264,6691,-830,0,0,0,0,0
83,1765902338420,-1496,8527,-952,0,0,0,0,0
84,1765902341035,-3548,8921,-539,0,0,0,0,0
85,1765902345814,-897,9765,498,0,0,0,0,0
86,1765902348779,-328,7745,-38,0,0,0,0,0
87,1765902350394,-828,7442,-1037,0,0,0,0,0
88,1765902351260,-1030,7718,-3129,0,0,0,0,0
89,1765902351493,-483,8699,-1212,0,0,0,0,0
90,1765902351909,-4383,8271,-1887,0,0,0,0,0
91,1765902352126,-4967,7024,-1137,0,0,0,0,0
92,1765902352692,3551,8197,-867,0,0,0,0,0
93,1765902355490,2278,6995,-930,0,0,0,0,0
94,1765902357921,-5390,8213,-384,0,0,0,0,0
95,1765902358386,-4222,7925,-699,0,0,0,0,0
96,1765902359153,-4730,8748,-1040,0,0,0,0,0
97,1765902359635,-7084,9818,-1713,0,0,0,0,0
98,1765902360902,-3852,7826,1383,0,0,0,0,0
99,1765902361416,-192,10229,841,0,0,0,0,0
100,1765902361934,1716,8266,-927,0,0,0,0,0
101,1765902363267,-4893,7896,-95,0,0,0,0,0
102,1765902363350,-5126,8254,-832,0,0,0,0,0
103,1765902364232,4999,8700,-1871,0,0,0,0,0
104,1765902364499,4206,8683,-1174,0,0,0,0,0
105,1765902364832,1258,8050,-1259,0,0,0,0,0
106,1765902364881,-96,7836,-1204,0,0,0,0,0
107,1765902365031,-2430,7991,-622,0,0,0,0,0
108,1765902365831,-1488,8043,-336,0,0,0,0,0
109,1765902366130,-514,8889,-655,0,0,0,0,0
110,1765902368413,4490,7701,-692,0,0,0,0,0
111,1765902368697,3755,7591,-1111,0,0,0,0,0
112,1765902369562,-326,7323,-821,0,0,0,0,0
113,1765902374025,604,9192,-306,0,0,0,0,0
114,1765902374909,-189,8813,-1158,0,0,0,0,0
115,1765902376091,-2279,7858,-1270,0,0,0,0,0
116,1765902377755,-3586,9196,281,0,0,0,0,0
117,1765902378687,-4226,9112,293,0,0,0,0,0
118,1765902379720,-2600,8090,-560,0,0,0,0,0
119,1765902379804,-3130,9262,-1037,0,0,0,0,0
120,1765902380071,-2570,7988,-464,0,0,0,0,0
121,1765902383533,-1778,8117,-205,0,0,0,0,0
122,1765902384400,-1718,7364,528,0,0,0,0,0
123,1765902386114,-1231,8472,-304,0,0,0,0,0
124,1765902387380,-1833,6958,-3466,0,0,0,0,0
125,1765902387696,-5312,7304,-1476,0,0,0,0,0
126,1765902387995,-6944,8158,-1162,0,0,0,0,0
127,1765902388947,-2726,9362,-1354,0,0,0,0,0
128,1765902389079,-4483,7015,-957,0,0,0,0,0
129,1765902389262,-7002,8206,-1422,0,0,0,0,0
130,1765902389528,-5938,10955,-819,0,0,0,0,0
131,1765902389628,-4205,7822,-1016,0,0,0,0,0
132,1765902390045,-5920,22470,-18472,0,0,0,0,0
133,1765902395674,-583,5216,102,0,0,0,0,0
134,1765902399886,-6547,7762,-832,0,0,0,0,0
135,1765902404815,-6180,8805,-661,0,0,0,0,0
136,1765902408012,-6226,7575,-348,0,0,0,0,0
137,1765902408279,-5156,8007,206,0,0,0,0,0
138,1765902408332,-5562,8296,374,0,0,0,0,0
139,1765902410727,-5380,6760,-987,0,0,0,0,0
140,1765902411142,-4396,8892,-741,0,0,0,0,0
141,1765902411776,711,10352,-2844,0,0,0,0,0
142,1765902412842,3593,8823,-1157,0,0,0,0,0
143,1765902413791,6154,11851,-2766,0,0,0,0,0
144,1765902414973,4922,9258,-882,0,0,0,0,0
145,1765902415289,6139,8283,-955,0,0,0,0,0
146,1765902415540,5580,8638,-942,0,0,0,0,0
147,1765902415673,1634,8316,-790,0,0,0,0,0
148,1765902416128,-1847,9186,-712,0,0,0,0,0
149,1765902416255,-2384,8509,-1077,0,0,0,0,0
150,1765902416355,-2206,7329,-745,0,0,0,0,0
151,1765902416672,911,8079,128,0,0,0,0,0
152,1765902417038,6299,9694,-311,0,0,0,0,0
153,1765902417172,7286,10289,203,0,0,0,0,0
154,1765902417404,6653,8333,-2167,0,0,0,0,0
155,1765902417938,-6183,9279,-2519,0,0,0,0,0
156,1765902418221,-5326,8049,-854,0,0,0,0,0
157,1765902419153,-3630,8116,-801,0,0,0,0,0
158,1765902420585,-1846,9190,-795,0,0,0,0,0
159,1765902421650,-1991,8702,170,0,0,0,0,0
160,1765902421767,-1370,8252,52,0,0,0,0,0
161,1765902422084,-2092,8527,-576,0,0,0,0,0
162,1765902422216,-1130,7174,-325,0,0,0,0,0
163,1765902422501,-2023,8021,-808,0,0,0,0,0
164,1765902422616,-1286,10332,-1000,0,0,0,0,0
165,1765902422750,-2454,8205,654,0,0,0,0,0
166,1765902423566,-2266,7582,-762,0,0,0,0,0
167,1765902423883,-2090,7810,-559,0,0,0,0,0
168,1765902427080,-706,8294,-55,0,0,0,0,0
169,1765902429628,-1094,7496,-4,0,0,0,0,0
170,1765902432775,-1468,12108,-464,0,0,0,0,0
171,1765902433307,-82,7275,-168,0,0,0,0,0
172,1765902433374,-460,8659,-616,0,0,0,0,0
173,1765902433658,-1958,8980,-858,0,0,0,0,0
174,1765902435256,-7502,6692,-2584,0,0,0,0,0
175,1765902435739,-4465,9805,100,0,0,0,0,0
176,1765902436938,-4394,7181,-56,0,0,0,0,0
177,1765902437387,2451,9640,-871,0,0,0,0,0
178,1765902441950,-617,8528,-319,0,0,0,0,0
179,1765902443032,-1232,6688,-836,0,0,0,0,0
180,1765902443683,-1423,7843,-389,0,0,0,0,0
181,1765902443799,-208,9212,-568,0,0,0,0,0
182,1765902445364,-1057,8244,-1387,0,0,0,0,0
183,1765902446297,-1810,8836,-867,0,0,0,0,0
184,1765902447446,4325,8863,-1082,0,0,0,0,0
185,1765902448261,-4338,8835,343,0,0,0,0,0
186,1765902449461,2907,8501,348,0,0,0,0,0
187,1765902449644,1891,8688,-312,0,0,0,0,0
188,1765902450127,-1458,6998,802,0,0,0,0,0
189,1765902450710,-3380,6717,885,0,0,0,0,0
190,1765902451359,-3737,7814,502,0,0,0,0,0
191,1765902451626,-5225,7246,705,0,0,0,0,0
192,1765902452075,-4806,9118,-374,0,0,0,0,0
193,1765902452391,-4186,9131,690,0,0,0,0,0
194,1765902452559,-4744,8444,-544,0,0,0,0,0
195,1765902452657,-4717,7121,-760,0,0,0,0,0
196,1765902452942,-4612,10276,519,0,0,0,0,0
197,1765902453274,-7297,7150,-784,0,0,0,0,0
198,1765902453566,-6819,9330,-1182,0,0,0,0,0
199,1765902453676,-6785,11342,-1058,0,0,0,0,0
200,1765902454007,-6281,12255,-1434,0,0,0,0,0
201,1765902454275,-7061,8482,-2566,0,0,0,0,0
202,1765902454625,-6203,9038,-850,0,0,0,0,0
203,1765902456988,-4897,8200,55,0,0,0,0,0
204,1765902459689,-1807,7756,-56,0,0,0,0,0
205,1765902460235,2572,8179,-453,0,0,0,0,0
206,1765902461034,5747,8628,-1728,0,0,0,0,0
207,1765902461301,4737,9268,-757,0,0,0,0,0
208,1765902463932,1581,8392,-2155,0,0,0,0,0
209,1765902465081,4502,9600,-294,0,0,0,0,0
210,1765902466063,-1903,7784,-1901,0,0,0,0,0
211,1765902466862,-6004,8320,271,0,0,0,0,0
212,1765902467129,-5891,8483,-186,0,0,0,0,0
213,1765902467528,-6109,7773,-532,0,0,0,0,0
214,1765902469659,-3938,8475,531,0,0,0,0,0
215,1765902471775,-1320,8854,1156,0,0,0,0,0
216,1765902471842,-548,9192,22114,0,0,0,0,0
217,1765902473225,-3265,7234,759,0,0,0,0,0
218,1765902474273,-2180,8800,-275,0,0,0,0,0
219,1765902474491,-1802,9914,1266,0,0,0,0,0
220,1765902474639,-2211,9788,189,0,0,0,0,0
221,1765902475722,-1392,9219,-424,0,0,0,0,0
222,1765902476005,-2060,7422,-1476,0,0,0,0,0
223,1765902477354,-3724,9626,351,0,0,0,0,0
224,1765902477604,-3774,6386,196,0,0,0,0,0
225,1765902478487,-7264,7548,-656,0,0,0,0,0
226,1765902480019,-305,7879,1510,0,0,0,0,0
227,1765902480351,-756,7816,610,0,0,0,0,0
228,1765902481217,-1231,8269,239,0,0,0,0,0
229,1765902481633,-2229,6816,1082,0,0,0,0,0
230,1765902482182,-180,7175,616,0,0,0,0,0
231,1765902488112,-1942,8270,-402,0,0,0,0,0
232,1765902488961,4594,7262,-1758,0,0,0,0,0
233,1765902489360,-392,8122,-2192,0,0,0,0,0
234,1765902490126,-5220,9009,-980,0,0,0,0,0
235,1765902490509,-4315,8552,-1400,0,0,0,0,0
236,1765902492499,-3888,9436,-349,0,0,0,0,0
237,1765902492775,-2862,8734,-1041,0,0,0,0,0
238,1765902494090,-1345,8210,-455,0,0,0,0,0
239,1765902494341,30793,8546,-240,0,0,0,0,0
240,1765902494388,-1475,8249,-860,0,0,0,0,0
241,1765902495772,-1091,8956,-1056,0,0,0,0,0
242,1765902498037,-2060,8123,-882,0,0,0,0,0
243,1765902498769,-910,8538,-1104,0,0,0,0,0
244,1765902499968,-526,8530,-1547,0,0,0,0,0
245,1765902500284,-778,8632,-1544,0,0,0,0,0
246,1765902500651,-544,8226,-1310,0,0,0,0,0
247,1765902500985,-939,8128,-646,0,0,0,0,0
248,1765902501267,-1058,8360,-869,0,0,0,0,0
249,1765902502083,-631,8439,-1029,0,0,0,0,0
250,1765902502366,-856,7863,-1032,0,0,0,0,0
251,1765902502549,-1121,8166,-1077,0,0,0,0,0
252,1765902503899,-440,8533,-1348,0,0,0,0,0
253,1765902504864,-429,8244,-1160,0,0,0,0,0
254,1765902506279,-464,8329,-563,0,0,0,0,0
255,1765902506596,-470,8308,-576,0,0,0,0,0
256,1765902507262,-454,8317,-569,0,0,0,0,0
257,1765902507445,-458,8316,-596,0,0,0,0,0
258,1765902507711,-464,8301,-604,0,0,0,0,0
259,1765902508177,-462,8314,-609,0,0,0,0,0
260,1765902508411,-459,8314,-570,0,0,0,0,0
261,1765902508678,-462,8327,-581,0,0,0,0,0
262,1765902508811,-458,8309,-584,0,0,0,0,0
263,1765902509011,-454,8321,-591,0,0,0,0,0
264,1765902509477,-456,8317,-590,0,0,0,0,0
265,1765902510843,-457,8310,-572,0,0,0,0,0
266,1765902511492,-448,8314,-583,0,0,0,0,0
267,1765902512541,-448,8321,-593,0,0,0,0,0
268,1765902516272,-459,8317,-614,0,0,0,0,0
269,1765902516522,-460,8320,-568,0,0,0,0,0
270,1765902516587,-455,8302,-580,0,0,0,0,0
271,1765902516836,-448,8327,-586,0,0,0,0,0
272,1765902521334,-468,8299,-580,0,0,0,0,0
273,1765902521500,-463,8285,-588,0,0,0,0,0
274,1765902521766,-453,8318,-593,0,0,0,0,0
275,1765902523732,-461,8316,-597,0,0,0,0,0
276,1765902524347,-464,8314,-581,0,0,0,0,0
277,1765902524398,-483,8300,-580,0,0,0,0,0
278,1765902524697,-462,8312,-575,0,0,0,0,0
279,1765902524980,-448,8332,-583,0,0,0,0,0
280,1765902525796,-456,8314,-594,0,0,0,0,0
281,1765902528127,-450,8300,-551,0,0,0,0,0
282,1765902528377,-401,8326,-592,0,0,0,0,0
283,1765902528627,-422,8358,-553,0,0,0,0,0
284,1765902528911,-435,8302,-613,0,0,0,0,0
285,1765902528994,-452,8286,-556,0,0,0,0,0
286,1765902530059,-430,8274,-576,0,0,0,0,0
287,1765902531141,-434,8320,-566,0,0,0,0,0
288,1765902531308,-467,8312,-589,0,0,0,0,0
289,1765902531559,-457,8304,-583,0,0,0,0,0
290,1765902531674,-458,8314,-570,0,0,0,0,0
291,1765902531941,-465,8317,-608,0,0,0,0,0
292,1765902532324,-429,8280,-648,0,0,0,0,0
293,1765902535038,-448,8298,-567,0,0,0,0,0
294,1765902535171,-472,8303,-583,0,0,0,0,0
295,1765902535388,-470,8382,-566,0,0,0,0,0
296,1765902535705,-443,8318,-583,0,0,0,0,0
297,1765902536122,-466,8346,-577,0,0,0,0,0
298,1765902538221,-456,8320,-590,0,0,0,0,0
299,1765902539236,-452,8315,-559,0,0,0,0,0
300,1765902541883,-463,8315,-581,0,0,0,0,0
301,1765902542748,-453,8300,-611,0,0,0,0,0
302,1765902544164,-453,8310,-591,0,0,0,0,0
303,1765902544514,-463,8320,-590,0,0,0,0,0
304,1765902544797,-453,8309,-586,0,0,0,0,0
305,1765902545512,-444,8336,-585,0,0,0,0,0
306,1765902545762,-439,8297,-591,0,0,0,0,0
307,1765902548111,-518,8279,-614,0,0,0,0,0
308,1765902549229,-462,8320,-581,0,0,0,0,0
309,1765902549376,-453,8292,-591,0,0,0,0,0
310,1765902549642,-382,8253,-572,0,0,0,0,0
311,1765902550991,-458,8321,-594,0,0,0,0,0
312,1765902551441,-457,8329,-582,0,0,0,0,0
313,1765902552074,-465,8299,-578,0,0,0,0,0
314,1765902552390,-468,8300,-580,0,0,0,0,0
315,1765902552674,-453,8293,-600,0,0,0,0,0
316,1765902553489,-470,8308,-583,0,0,0,0,0
317,1765902555238,-458,8313,-590,0,0,0,0,0
318,1765902556237,-448,8318,-466,0,0,0,0,0
319,1765902556553,-440,8310,-586,0,0,0,0,0
320,1765902556737,-470,8299,-570,0,0,0,0,0
321,1765902556921,-458,8290,-564,0,0,0,0,0
322,1765902557336,-465,8318,-582,0,0,0,0,0
323,1765902557453,-443,8316,-546,0,0,0,0,0
324,1765902557737,-466,8302,-589,0,0,0,0,0
325,1765902558103,-465,8307,-581,0,0,0,0,0
326,1765902559035,-458,8320,-577,0,0,0,0,0
327,1765902559401,-518,8404,-592,0,0,0,0,0
328,1765902561650,-462,8317,-590,0,0,0,0,0
329,1765902561916,-460,8307,-580,0,0,0,0,0
330,1765902562249,-462,8324,-584,0,0,0,0,0
331,1765902562649,-463,8311,-583,0,0,0,0,0
332,1765902563015,-441,8338,-594,0,0,0,0,0
333,1765902563348,-470,8317,-582,0,0,0,0,0
334,1765902563514,-450,8326,-581,0,0,0,0,0
335,1765902563748,-453,8317,-574,0,0,0,0,0
336,1765902563964,-460,8322,-575,0,0,0,0,0
337,1765902564148,-461,8319,-581,0,0,0,0,0
338,1765902564647,-454,8324,-586,0,0,0,0,0
339,1765902564830,-457,8290,-561,0,0,0,0,0
340,1765902565380,-459,8312,-570,0,0,0,0,0
341,1765902565562,-433,8324,-736,0,0,0,0,0
342,1765902565730,-464,8282,-534,0,0,0,0,0
343,1765902566046,-476,8300,-652,0,0,0,0,0
344,1765902566278,-456,8332,-578,0,0,0,0,0
345,1765902566762,-437,8312,-600,0,0,0,0,0
346,1765902567111,-478,8310,-570,0,0,0,0,0
347,1765902567644,-452,8302,-556,0,0,0,0,0
348,1765902567778,-457,8298,-568,0,0,0,0,0
349,1765902568144,-489,8319,-592,0,0,0,0,0
350,1765902568859,-448,8293,-588,0,0,0,0,0
351,1765902569637,-461,8290,-589,0,0,0,0,0
352,1765902570974,-498,8441,123,0,0,0,0,0
353,1765902571259,-393,8576,566,0,0,0,0,0
354,1765902571557,-564,8840,531,0,0,0,0,0
355,1765902571824,-531,8482,1066,0,0,0,0,0
356,1765902572324,-858,8638,809,0,0,0,0,0
357,1765902573023,-1277,9141,872,0,0,0,0,0
358,1765902573706,-654,8236,556,0,0,0,0,0
359,1765902573772,158,8501,1369,0,0,0,0,0
360,1765902574056,238,8708,1157,0,0,0,0,0
361,1765902575504,-1202,8104,683,0,0,0,0,0
362,1765902575771,-24,8418,647,0,0,0,0,0
363,1765902576737,525,9295,-408,0,0,0,0,0
364,1765902577819,301,8459,-842,0,0,0,0,0
365,1765902578069,-396,8175,-457,0,0,0,0,0
366,1765902578436,-789,8646,-821,0,0,0,0,0
367,1765902579218,1434,9151,-1890,0,0,0,0,0
368,1765902579301,842,7453,-1552,0,0,0,0,0
369,1765902580100,3502,8096,-1127,0,0,0,0,0
370,1765902581533,2437,6606,-1372,0,0,0,0,0
371,1765902581882,4471,10230,698,0,0,0,0,0
372,1765902584014,-1126,8643,-106,0,0,0,0,0
373,1765902584797,6579,8216,-1230,0,0,0,0,0
374,1765902585713,-4591,7295,-750,0,0,0,0,0
375,1765902585945,-5738,4906,-1268,0,0,0,0,0
376,1765902586029,-5454,11237,-1234,0,0,0,0,0
377,1765902586461,-5260,9456,-377,0,0,0,0,0
378,1765902586945,-4071,8250,-1096,0,0,0,0,0
379,1765902587110,-6404,6772,-2420,0,0,0,0,0
380,1765902587544,-3232,9043,3406,0,0,0,0,0
381,1765902587627,-707,7373,1048,0,0,0,0,0
382,1765902589193,-4641,8836,-464,0,0,0,0,0
383,1765902589409,-4730,8117,-209,0,0,0,0,0
384,1765902590460,-3889,8184,538,0,0,0,0,0
385,1765902590708,-3676,7944,377,0,0,0,0,0
386,1765902591641,-2046,8381,374,0,0,0,0,0
387,1765902593771,-1915,7443,-302,0,0,0,0,0
388,1765902597386,-6176,9048,69,0,0,0,0,0
389,1765902597718,-8621,9700,-310,0,0,0,0,0
390,1765902598218,-6779,9558,-2306,0,0,0,0,0
391,1765902598519,-4904,9151,9,0,0,0,0,0
392,1765902598701,-3980,8124,570,0,0,0,0,0
393,1765902599018,953,8286,-1102,0,0,0,0,0
394,1765902605879,-2530,9074,-3823,0,0,0,0,0
395,1765902606144,-2021,7366,-1239,0,0,0,0,0
396,1765902609109,1897,8284,-626,0,0,0,0,0
397,1765902609376,-2215,7093,-1119,0,0,0,0,0
398,1765902611408,-2351,6988,731,0,0,0,0,0
399,1765902612207,-4989,8173,103,0,0,0,0,0
400,1765902613090,-4150,8217,541,0,0,0,0,0
401,1765902616986,-4411,8466,-349,0,0,0,0,0
402,1765902617985,5417,7522,-190,0,0,0,0,0
403,1765902618768,-2811,7953,-1375,0,0,0,0,0
404,1765902619100,-4044,7636,-741,0,0,0,0,0
405,1765902619201,-4142,8506,-514,0,0,0,0,0
406,1765902621565,5693,10286,-1443,0,0,0,0,0
407,1765902622798,5030,8055,-752,0,0,0,0,0
408,1765902623363,5051,7686,-1441,0,0,0,0,0
409,1765902623979,6962,8020,-684,0,0,0,0,0
410,1765902624751,-4786,8201,-688,0,0,0,0,0
411,1765902625296,5696,8683,-1604,0,0,0,0,0
412,1765902625578,4866,8922,-2278,0,0,0,0,0
413,1765902626860,-6981,6890,-724,0,0,0,0,0
414,1765902628593,-3705,8946,-107,0,0,0,0,0
415,1765902629493,-5762,4996,1290,0,0,0,0,0
416,1765902629959,-4640,7883,-735,0,0,0,0,0
417,1765902632907,-2746,8566,56,0,0,0,0,0
418,1765902633490,-2640,8058,-400,0,0,0,0,0
419,1765902634122,-2596,9294,-242,0,0,0,0,0
420,1765902634222,-2966,6834,52,0,0,0,0,0
421,1765902634855,-2099,8769,-178,0,0,0,0,0
422,1765902636087,-1763,7438,-2143,0,0,0,0,0
423,1765902636120,-2770,7698,-2647,0,0,0,0,0
424,1765902636403,-1446,8401,-2382,0,0,0,0,0
425,1765902637152,-6965,8346,-1059,0,0,0,0,0
426,1765902637484,-5810,8788,-1018,0,0,0,0,0
427,1765902638152,-5255,7304,-973,0,0,0,0,0
428,1765902640615,-755,10350,432,0,0,0,0,0
429,1765902640881,-591,7820,664,0,0,0,0,0
430,1765902640916,-198,8680,544,0,0,0,0,0
431,1765902641183,-1305,8200,659,0,0,0,0,0
432,1765902641964,937,9206,1046,0,0,0,0,0
433,1765902642314,-535,8140,1283,0,0,0,0,0
434,1765902642396,636,9896,352,0,0,0,0,0
435,1765902643130,-906,8130,568,0,0,0,0,0
436,1765902643180,-323,9281,604,0,0,0,0,0
437,1765902643462,-831,8402,78,0,0,0,0,0
438,1765902643546,198,6746,1153,0,0,0,0,0
439,1765902643946,-619,7957,46,0,0,0,0,0
440,1765902644344,-105,8662,452,0,0,0,0,0
441,1765902646778,-5797,7482,-1576,0,0,0,0,0
442,1765902647679,4464,8100,-1234,0,0,0,0,0
443,1765902648093,4803,7711,-1503,0,0,0,0,0
444,1765902648410,3984,8049,-1318,0,0,0,0,0
445,1765902648627,3306,8166,-1257,0,0,0,0,0
446,1765902649077,-3087,8675,-688,0,0,0,0,0
447,1765902650075,697,9012,632,0,0,0,0,0
448,1765902650540,-3692,8404,-558,0,0,0,0,0
449,1765902651407,-5460,5620,-294,0,0,0,0,0
450,1765902651756,-6961,7761,450,0,0,0,0,0
451,1765902651990,-5971,7132,401,0,0,0,0,0
452,1765902652356,-4530,6312,-564,0,0,0,0,0
453,1765902652972,-4893,8070,-406,0,0,0,0,0
454,1765902653239,-6460,7755,-1127,0,0,0,0,0
455,1765902653522,-5672,7761,108,0,0,0,0,0
456,1765902653839,-4102,8340,-84,0,0,0,0,0
457,1765902654355,-4505,7439,-2229,0,0,0,0,0
458,1765902654421,-6122,9708,-2376,0,0,0,0,0
459,1765902655037,-7576,8313,-1210,0,0,0,0,0
460,1765902655287,-6610,8504,-1392,0,0,0,0,0
461,1765902655354,-8466,8642,-1296,0,0,0,0,0
462,1765902655836,-1384,8729,264,0,0,0,0,0
463,1765902656103,1880,7483,-189,0,0,0,0,0
464,1765902656452,2743,10058,-1093,0,0,0,0,0
465,1765902656669,2905,8999,-1194,0,0,0,0,0
466,1765902658175,-4384,7358,386,0,0,0,0,0
467,1765902658202,-4760,8215,1461,0,0,0,0,0
468,1765902658285,-2836,8075,736,0,0,0,0,0
469,1765902658717,34,7960,748,0,0,0,0,0
470,1765902658785,3746,8342,334,0,0,0,0,0
471,1765902658835,5369,8967,217,0,0,0,0,0
472,1765902659100,4341,8169,-26,0,0,0,0,0
473,1765902660364,-3949,8308,312,0,0,0,0,0
474,1765902660649,-4036,7938,-1078,0,0,0,0,0
475,1765902663779,4655,8170,-1354,0,0,0,0,0
476,1765902664496,4978,8925,-1536,0,0,0,0,0
477,1765902664829,3500,8016,-619,0,0,0,0,0
478,1765902665079,2652,8311,-822,0,0,0,0,0
479,1765902665246,-2593,9876,-447,0,0,0,0,0
480,1765902665345,-3152,7499,-634,0,0,0,0,0
481,1765902665545,-3476,9094,-490,0,0,0,0,0
482,1765902665628,-2908,7806,-283,0,0,0,0,0
483,1765902666111,5115,8312,-798,0,0,0,0,0
484,1765902666295,5046,7608,-1048,0,0,0,0,0
485,1765902666611,6288,8619,-1808,0,0,0,0,0
486,1765902669441,-3554,8499,-514,0,0,0,0,0
487,1765902671240,-3628,6646,589,0,0,0,0,0
488,1765902671707,-3785,8843,599,0,0,0,0,0
489,1765902671823,-2980,8718,272,0,0,0,0,0
490,1765902672506,-3014,8773,604,0,0,0,0,0
491,1765902672972,-3526,8246,323,0,0,0,0,0
492,1765902673289,-2399,8419,211,0,0,0,0,0
493,1765902676452,-2025,8473,911,0,0,0,0,0
494,1765902677835,-2816,8508,-770,0,0,0,0,0
495,1765902678101,-1872,7929,-1891,0,0,0,0,0
496,1765902678317,-2430,8586,-2023,0,0,0,0,0
497,1765902678434,-2130,4692,31578,0,0,0,0,0
498,1765902679117,-5577,9540,-3875,0,0,0,0,0
499,1765902679501,-6256,9228,-1344,0,0,0,0,0
500,1765902679733,-3920,7340,-1379,0,0,0,0,0
501,1765902684263,-1122,8366,287,0,0,0,0,0
502,1765902686378,-451,7734,-368,0,0,0,0,0
503,1765902686994,33,7966,10,0,0,0,0,0
504,1765902687360,-261,6860,621,0,0,0,0,0
505,1765902687977,1234,6213,294,0,0,0,0,0
506,1765902688026,632,9855,-165,0,0,0,0,0
507,1765902689657,-1896,7689,-276,0,0,0,0,0
508,1765902690390,-896,7432,-1153,0,0,0,0,0
509,1765902691106,108,8926,-629,0,0,0,0,0
510,1765902692138,3832,8515,-1594,0,0,0,0,0
511,1765902693023,-5023,7208,-1337,0,0,0,0,0
512,1765902693322,-4717,8242,-1551,0,0,0,0,0
513,1765902693605,-3775,8096,-456,0,0,0,0,0
514,1765902694122,-651,7708,-87,0,0,0,0,0
515,1765902694221,-600,6976,-734,0,0,0,0,0
516,1765902694637,1422,8809,-817,0,0,0,0,0
517,1765902694955,-1275,9096,638,0,0,0,0,0
518,1765902695169,-2916,7981,-731,0,0,0,0,0
519,1765902695935,-3078,8758,-61,0,0,0,0,0
520,1765902696152,-3632,7132,-975,0,0,0,0,0
521,1765902697968,-1636,8228,-947,0,0,0,0,0
522,1765902699417,-1564,8999,-1160,0,0,0,0,0
523,1765902699516,-1782,9869,-1089,0,0,0,0,0
524,1765902700547,-2069,7819,-820,0,0,0,0,0
525,1765902700781,-2083,8499,-1020,0,0,0,0,0
526,1765902701631,-1023,9111,-1229,0,0,0,0,0
527,1765902702863,-1288,8634,-2240,0,0,0,0,0
528,1765902704129,-573,8571,-1322,0,0,0,0,0
529,1765902704529,-468,8254,-921,0,0,0,0,0
530,1765902705012,-451,8462,-545,0,0,0,0,0
531,1765902706577,-468,8296,-560,0,0,0,0,0
532,1765902707143,-430,8290,-572,0,0,0,0,0
533,1765902707426,-518,8262,-648,0,0,0,0,0
534,1765902707643,-448,8251,-629,0,0,0,0,0
535,1765902707976,-435,8264,-311,0,0,0,0,0
536,1765902708459,-452,8064,-498,0,0,0,0,0
537,1765902708609,-612,8001,26,0,0,0,0,0
538,1765902708892,-620,8358,-1088,0,0,0,0,0
539,1765902709058,-351,8595,-539,0,0,0,0,0
540,1765902709341,-380,8260,-525,0,0,0,0,0
541,1765902710074,-438,8366,-612,0,0,0,0,0
542,1765902710191,-414,8227,-506,0,0,0,0,0
543,1765902710641,-474,8280,-521,0,0,0,0,0
544,1765902711057,-376,8329,-576,0,0,0,0,0
545,1765902712055,-428,8344,-674,0,0,0,0,0
546,1765902712287,-432,8277,-587,0,0,0,0,0
547,1765902714103,-431,8316,-627,0,0,0,0,0
548,1765902717451,-476,8289,-619,0,0,0,0,0
549,1765902718650,-536,8375,-556,0,0,0,0,0
550,1765902753172,-472,8296,-596,0,0,0,0,0
551,1765902753254,-456,8324,-632,0,0,0,0,0
552,1765902753420,-441,8322,-602,0,0,0,0,0
553,1765902753520,-479,8291,-654,0,0,0,0,0
554,1765902753654,-463,8331,-654,0,0,0,0,0
555,1765902753753,-450,8285,-630,0,0,0,0,0
556,1765902753870,-465,8298,-639,0,0,0,0,0
557,1765902754004,-518,8383,-632,0,0,0,0,0
558,1765902754103,-472,8278,-530,0,0,0,0,0
559,1765902755338,-486,8292,-541,0,0,0,0,0
560,1765902756267,-458,8297,-578,0,0,0,0,0
561,1765902756401,-452,8290,-606,0,0,0,0,0
562,1765902757817,-459,8330,-588,0,0,0,0,0
563,1765902758666,-463,8315,-598,0,0,0,0,0
564,1765902759201,-445,8316,-586,0,0,0,0,0
565,1765902760315,-474,8332,-590,0,0,0,0,0
566,1765902761148,-477,8329,-605,0,0,0,0,0
567,1765902761263,-464,8322,-606,0,0,0,0,0
568,1765902761463,-469,8298,-583,0,0,0,0,0
569,1765902762296,-474,8318,-601,0,0,0,0,0
570,1765902762680,-454,8317,-614,0,0,0,0,0
571,1765902762714,-466,8290,-581,0,0,0,0,0
572,1765902763012,-472,8298,-588,0,0,0,0,0
573,1765902763430,-466,8314,-552,0,0,0,0,0
574,1765902764128,-464,8330,-597,0,0,0,0,0
575,1765902764162,-462,8296,-537,0,0,0,0,0
576,1765902766310,-467,8301,-584,0,0,0,0,0
577,1765902766343,-448,8285,-572,0,0,0,0,0
578,1765902766659,-441,8272,-646,0,0,0,0,0
579,1765903179894,-475,8294,-596,0,0,0,0,0
580,1765903179978,-452,8304,-595,0,0,0,0,0
581,1765903180128,-462,8322,-571,0,0,0,0,0
582,1765903180228,-486,8310,-583,0,0,0,0,0
583,1765903180361,-462,8294,-594,0,0,0,0,0
584,1765903180460,-461,8334,-587,0,0,0,0,0
585,1765903180577,-470,8322,-592,0,0,0,0,0
586,1765903180710,-469,8291,-598,0,0,0,0,0
587,1765903180811,-470,8302,-590,0,0,0,0,0
588,1765903182775,-430,8320,-576,0,0,0,0,0
589,1765903183407,-450,8292,-581,0,0,0,0,0
590,1765903183457,-484,8302,-580,0,0,0,0,0
591,1765903184007,-477,8310,-579,0,0,0,0,0
592,1765903184474,-466,8312,-576,0,0,0,0,0
593,1765903184523,-461,8322,-583,0,0,0,0,0
594,1765903185356,-463,8314,-569,0,0,0,0,0
595,1765903185707,-456,8307,-584,0,0,0,0,0
596,1765903186522,-472,8311,-575,0,0,0,0,0
597,1765903188719,-459,8323,-571,0,0,0,0,0
598,1765903190252,-478,8296,-582,0,0,0,0,0
599,1765903190702,-471,8308,-580,0,0,0,0,0
600,1765903190735,-455,8320,-588,0,0,0,0,0
601,1765903191085,-468,8328,-581,0,0,0,0,0
602,1765903191900,-476,8314,-586,0,0,0,0,0
603,1765903192067,-469,8296,-577,0,0,0,0,0
604,1765903193616,-481,8301,-587,0,0,0,0,0
605,1765903195349,-472,8322,-576,0,0,0,0,0
606,1765903195747,-478,8312,-590,0,0,0,0,0
607,1765903196030,-472,8321,-567,0,0,0,0,0
608,1765903196281,-476,8315,-577,0,0,0,0,0
609,1765903196746,-492,8304,-580,0,0,0,0,0
610,1765903196930,-467,8324,-578,0,0,0,0,0
611,1765903197162,-460,8294,-612,0,0,0,0,0
612,1765903197896,-467,8305,-577,0,0,0,0,0
613,1765903198845,-501,8312,-572,0,0,0,0,0
614,1765903199178,-471,8298,-592,0,0,0,0,0
615,1765903199995,-464,8313,-583,0,0,0,0,0
616,1765903202108,-462,8314,-567,0,0,0,0,0
617,1765903202208,-463,8300,-590,0,0,0,0,0
618,1765903202441,-476,8315,-582,0,0,0,0,0
619,1765903202492,-462,8317,-554,0,0,0,0,0
620,1765903202908,-483,8312,-594,0,0,0,0,0
621,1765903203309,-470,8303,-562,0,0,0,0,0
622,1765903204673,-473,8313,-558,0,0,0,0,0
623,1765903205606,-470,8274,-540,0,0,0,0,0
624,1765903206138,-411,8193,-554,0,0,0,0,0
625,1765903206172,-451,8286,-561,0,0,0,0,0
626,1765903206655,-484,8300,-633,0,0,0,0,0
627,1765903206938,-480,8253,-525,0,0,0,0,0
628,1765903207720,-446,8349,-585,0,0,0,0,0
629,1765903209737,-504,8282,-559,0,0,0,0,0
630,1765903210484,-464,8318,-575,0,0,0,0,0
631,1765903210502,-455,8310,-579,0,0,0,0,0
632,1765903210985,-486,8298,-578,0,0,0,0,0
633,1765903211085,-476,8316,-574,0,0,0,0,0
634,1765903211751,-468,8309,-571,0,0,0,0,0
635,1765903211933,-460,8311,-577,0,0,0,0,0
636,1765903215314,-472,8295,-574,0,0,0,0,0
637,1765903215814,-484,8327,-578,0,0,0,0,0
638,1765903216097,-331,9130,2817,0,0,0,0,0
639,1765903216429,-942,8027,-132,0,0,0,0,0
640,1765903216580,54,7969,926,0,0,0,0,0
641,1765903216962,-986,8162,956,0,0,0,0,0
642,1765903217928,-1686,7836,928,0,0,0,0,0
643,1765903218128,-1561,7765,478,0,0,0,0,0
644,1765903218562,-548,7053,32,0,0,0,0,0
645,1765903218994,-350,8659,635,0,0,0,0,0
646,1765903220860,537,7882,676,0,0,0,0,0
647,1765903221109,494,9240,1396,0,0,0,0,0
648,1765903221407,504,9283,610,0,0,0,0,0
649,1765903221624,151,9219,1189,0,0,0,0,0
650,1765903221907,-1548,7696,593,0,0,0,0,0
651,1765903222242,-1254,7492,205,0,0,0,0,0
652,1765903222408,635,9016,642,0,0,0,0,0
653,1765903222573,-1222,7654,845,0,0,0,0,0
654,1765903222924,-95,7718,1211,0,0,0,0,0
655,1765903223107,-544,8126,937,0,0,0,0,0
656,1765903223574,-128,8784,-1612,0,0,0,0,0
657,1765903223624,-257,8874,-1884,0,0,0,0,0
658,1765903224457,-46,7901,-1100,0,0,0,0,0
659,1765903224640,307,9114,-1082,0,0,0,0,0
660,1765903225107,1123,9779,-637,0,0,0,0,0
661,1765903225173,924,8962,-990,0,0,0,0,0
662,1765903225324,2198,8109,-884,0,0,0,0,0
663,1765903226939,4514,9199,-1765,0,0,0,0,0
664,1765903228654,3146,5930,1,0,0,0,0,0
665,1765903229620,-322,8674,-553,0,0,0,0,0
666,1765903229837,-1122,8202,-89,0,0,0,0,0
667,1765903230103,-1236,8056,-188,0,0,0,0,0
668,1765903230486,4146,7985,-43,0,0,0,0,0
669,1765903231018,4923,8615,-874,0,0,0,0,0
670,1765903235531,-4380,9248,332,0,0,0,0,0
671,1765903236647,-2236,7320,1620,0,0,0,0,0
672,1765903236829,-321,10273,899,0,0,0,0,0
673,1765903237080,288,8452,755,0,0,0,0,0
674,1765903238030,-2673,8911,1090,0,0,0,0,0
675,1765903238129,-1708,8943,946,0,0,0,0,0
676,1765903238411,-1116,8846,268,0,0,0,0,0
677,1765903240178,-3114,6558,-6,0,0,0,0,0
678,1765903240960,-1470,8484,-3254,0,0,0,0,0
679,1765903241477,-870,9322,-4056,0,0,0,0,0
680,1765903243576,-6745,7614,-189,0,0,0,0,0
681,1765903243757,-5748,7685,-726,0,0,0,0,0
682,1765903244189,-11257,7667,-557,0,0,0,0,0
683,1765903249352,602,5148,233,0,0,0,0,0
684,1765903249652,-1567,8322,-112,0,0,0,0,0
685,1765903249785,-1734,7998,-2203,0,0,0,0,0
686,1765903250418,-1150,7115,-3825,0,0,0,0,0
687,1765903250967,-1524,8107,-926,0,0,0,0,0
688,1765903251219,-5470,7869,-1359,0,0,0,0,0
689,1765903251251,-6868,8402,-2319,0,0,0,0,0
690,1765903251550,-6048,7712,-1374,0,0,0,0,0
691,1765903252017,4692,8163,-770,0,0,0,0,0
692,1765903252052,4128,8303,-1246,0,0,0,0,0
693,1765903252316,6643,8870,-1289,0,0,0,0,0
694,1765903256063,-6520,11144,1903,0,0,0,0,0
695,1765903260809,-1391,9616,-137,0,0,0,0,0
696,1765903261092,-6012,7068,-885,0,0,0,0,0
697,1765903261425,-3983,8724,179,0,0,0,0,0
698,1765903261642,-1225,9148,1342,0,0,0,0,0
699,1765903261858,-1905,7548,744,0,0,0,0,0
700,1765903262192,2181,9111,803,0,0,0,0,0
701,1765903262492,2887,9378,851,0,0,0,0,0
702,1765903262723,4122,7323,1124,0,0,0,0,0
703,1765903263074,4087,8080,350,0,0,0,0,0
704,1765903263574,-5062,8084,-109,0,0,0,0,0
705,1765903264156,-2126,7891,180,0,0,0,0,0
706,1765903265874,7416,7934,-2318,0,0,0,0,0
707,1765903266354,5872,9218,-2064,0,0,0,0,0
708,1765903268569,-5225,9708,-379,0,0,0,0,0
709,1765903271317,-5661,7657,-1301,0,0,0,0,0
710,1765903272133,-1006,9038,-404,0,0,0,0,0
711,1765903272566,-1392,7657,-693,0,0,0,0,0
712,1765903273065,-1400,7288,263,0,0,0,0,0
713,1765903274848,-2990,8612,777,0,0,0,0,0
714,1765903276547,-921,8644,300,0,0,0,0,0
715,1765903277760,-2451,8672,375,0,0,0,0,0
716,1765903277960,-1964,8119,776,0,0,0,0,0
717,1765903278027,-1348,8232,376,0,0,0,0,0
718,1765903278310,-1324,9031,20,0,0,0,0,0
719,1765903279776,-1390,5860,356,0,0,0,0,0
720,1765903280193,-1642,8110,-299,0,0,0,0,0
721,1765903281025,-1916,7071,-3634,0,0,0,0,0
722,1765903281458,-4910,6994,31235,0,0,0,0,0
723,1765903281975,-28816,10722,714,0,0,0,0,0
724,1765903284839,-3203,-26991,-31509,0,0,0,0,0
725,1765903286970,-737,8289,452,0,0,0,0,0
726,1765903287404,144,7584,1306,0,0,0,0,0
727,1765903287669,656,7752,1484,0,0,0,0,0
728,1765903288103,228,9794,470,0,0,0,0,0
729,1765903288486,985,9964,496,0,0,0,0,0
730,1765903289101,977,8198,414,0,0,0,0,0
731,1765903290583,-3047,8545,-738,0,0,0,0,0
732,1765903293198,-2900,7756,-658,0,0,0,0,0
733,1765903293448,-4446,8473,-1325,0,0,0,0,0
734,1765903294064,-1991,6177,411,0,0,0,0,0
735,1765903294314,-90,7596,-386,0,0,0,0,0
736,1765903294363,-1654,7626,38,0,0,0,0,0
737,1765903294613,-4087,8081,-400,0,0,0,0,0
738,1765903294849,-4470,11746,-174,0,0,0,0,0
739,1765903295113,-4446,8138,60,0,0,0,0,0
740,1765903295530,-5912,8288,-326,0,0,0,0,0
741,1765903295829,-4697,7202,630,0,0,0,0,0
742,1765903300175,4776,9498,-1200,0,0,0,0,0
743,1765903300876,-2468,6650,-1664,0,0,0,0,0
744,1765903301740,-5541,7224,886,0,0,0,0,0
745,1765903302440,5580,8928,-1291,0,0,0,0,0
746,1765903303073,2068,8127,-1384,0,0,0,0,0
747,1765903303240,-2068,8672,-1551,0,0,0,0,0
748,1765903306870,5872,8892,-1437,0,0,0,0,0
749,1765903308203,2639,8857,-3458,0,0,0,0,0
750,1765903309518,1949,8090,-1066,0,0,0,0,0
751,1765903311516,-1153,8139,-852,0,0,0,0,0
752,1765903313064,-195,8433,-725,0,0,0,0,0
753,1765903315713,-846,8292,-1113,0,0,0,0,0
754,1765903317127,-498,8330,-1121,0,0,0,0,0
755,1765903317644,-514,8257,-1111,0,0,0,0,0
756,1765903318960,-512,8308,-446,0,0,0,0,0
757,1765903319043,-446,8313,-451,0,0,0,0,0
758,1765903320009,-483,8307,-430,0,0,0,0,0
759,1765903321059,-488,8322,-458,0,0,0,0,0
760,1765903321324,-504,8310,-416,0,0,0,0,0
761,1765903321493,-498,8296,-286,0,0,0,0,0
762,1765903321708,-573,8198,-431,0,0,0,0,0
763,1765903323271,-494,8310,-424,0,0,0,0,0
764,1765903323555,-509,8282,-467,0,0,0,0,0
765,1765903324338,-498,8293,-437,0,0,0,0,0
766,1765903324620,-480,8334,-402,0,0,0,0,0
767,1765903325287,-487,8302,-396,0,0,0,0,0
768,1765903325488,-494,8292,-391,0,0,0,0,0
769,1765903327320,-488,8310,-413,0,0,0,0,0
770,1765903327502,-496,8308,-418,0,0,0,0,0
771,1765903327919,-522,8336,-453,0,0,0,0,0
772,1765903328568,-501,8312,-436,0,0,0,0,0
773,1765903329667,-486,8293,-395,0,0,0,0,0
774,1765903329851,-448,8262,-396,0,0,0,0,0
775,1765903330534,-455,8336,-412,0,0,0,0,0
776,1765903332515,-487,8331,-437,0,0,0,0,0
777,1765903338160,-472,8345,-434,0,0,0,0,0
778,1765903338194,-472,8320,-424,0,0,0,0,0
779,1765903338394,-488,8300,-431,0,0,0,0,0
780,1765903338443,-486,8320,-424,0,0,0,0,0
781,1765903338643,-476,8321,-421,0,0,0,0,0
782,1765903338676,-496,8303,-412,0,0,0,0,0
783,1765903338877,-471,8333,-420,0,0,0,0,0
784,1765903338943,-483,8320,-439,0,0,0,0,0
785,1765903340792,-484,8315,-417,0,0,0,0,0
786,1765903340876,-456,8310,-434,0,0,0,0,0
787,1765903341042,-502,8347,-423,0,0,0,0,0
788,1765903341125,-486,8321,-434,0,0,0,0,0
789,1765903341258,-500,8286,-432,0,0,0,0,0
790,1765903341375,-471,8324,-380,0,0,0,0,0
791,1765903341493,-482,8323,-428,0,0,0,0,0
792,1765903341607,-501,8304,-424,0,0,0,0,0
793,1765903341724,-489,8288,-486,0,0,0,0,0
794,1765903342258,-481,8303,-389,0,0,0,0,0
795,1765903342740,-470,8299,-414,0,0,0,0,0
796,1765903343707,-483,8324,-428,0,0,0,0,0
797,1765903344056,-481,8322,-423,0,0,0,0,0
798,1765903346753,-484,8308,-416,0,0,0,0,0
799,1765903346985,-484,8315,-437,0,0,0,0,0
800,1765903347586,-475,8312,-430,0,0,0,0,0
801,1765903349752,-467,8321,-440,0,0,0,0,0
802,1765903350268,-480,8304,-425,0,0,0,0,0
803,1765903351166,-496,8312,-423,0,0,0,0,0
804,1765903351699,-487,8276,-464,0,0,0,0,0
805,1765903351932,-497,8354,-470,0,0,0,0,0
806,1765903352049,-460,8298,-455,0,0,0,0,0
807,1765903352831,-487,8316,-426,0,0,0,0,0
808,1765903354614,-480,8318,-430,0,0,0,0,0
809,1765903357843,-476,8311,-451,0,0,0,0,0
810,1765903359142,-484,8330,-442,0,0,0,0,0
811,1765903361258,-542,8288,-436,0,0,0,0,0
812,1765903361641,-477,8301,-435,0,0,0,0,0
813,1765903361891,-473,8308,-417,0,0,0,0,0
814,1765903364455,-1182,8231,113,0,0,0,0,0
815,1765903365638,-2224,8419,846,0,0,0,0,0
816,1765903366254,-1570,8323,423,0,0,0,0,0
817,1765903367272,-936,8746,878,0,0,0,0,0
818,1765903368150,-2460,9519,938,0,0,0,0,0
819,1765903371166,-869,7331,1129,0,0,0,0,0
820,1765903371433,-1170,-20257,-27781,0,0,0,0,0
821,1765903371532,-306,9606,867,0,0,0,0,0
822,1765903372016,-1975,7458,285,0,0,0,0,0
823,1765903372365,-3472,7909,352,0,0,0,0,0
824,1765903372632,-1369,9150,976,0,0,0,0,0
825,1765903372798,-1426,9394,-120,0,0,0,0,0
826,1765903372898,-2710,8377,313,0,0,0,0,0
827,1765903374813,-2148,7073,-990,0,0,0,0,0
828,1765903375262,-1963,7139,-1060,0,0,0,0,0
829,1765903376495,-4128,9589,-2384,0,0,0,0,0
830,1765903376645,-3978,7958,-587,0,0,0,0,0
831,1765903377610,-1468,8802,-1425,0,0,0,0,0
832,1765903380991,-892,7003,-505,0,0,0,0,0
833,1765903387453,-485,8309,-376,0,0,0,0,0
834,1765903389001,-478,8316,-416,0,0,0,0,0
835,1765903391898,-461,8320,-416,0,0,0,0,0
836,1765903423156,-489,8360,-489,0,0,0,0,0
837,1765903423272,-379,8348,-526,0,0,0,0,0
838,1765903423388,-492,8277,-463,0,0,0,0,0
839,1765903423522,-522,8299,-466,0,0,0,0,0
840,1765903423623,-411,8362,-418,0,0,0,0,0
841,1765903423772,-457,8314,-396,0,0,0,0,0
842,1765903423855,-475,8332,-372,0,0,0,0,0
843,1765903424006,-438,8340,-364,0,0,0,0,0
844,1765903424088,-463,8305,-385,0,0,0,0,0
845,1765903426019,-464,8341,-406,0,0,0,0,0
846,1765903429084,-470,8317,-405,0,0,0,0,0
847,1765903431811,-448,8329,-423,0,0,0,0,0
848,1765903431831,-466,8328,-398,0,0,0,0,0
849,1765903431846,-480,8347,-413,0,0,0,0,0
850,1765903432363,-450,8324,-406,0,0,0,0,0
851,1765903436595,-456,8314,-438,0,0,0,0,0
852,1765903436710,-464,8327,-406,0,0,0,0,0
853,1765903437527,-424,8306,-413,0,0,0,0,0
854,1765903439225,-475,8308,-392,0,0,0,0,0
855,1765903439308,-474,8323,-410,0,0,0,0,0
856,1765903440490,-483,8318,-407,0,0,0,0,0
857,1765903441240,-480,8312,-418,0,0,0,0,0
858,1765903441423,-471,8313,-406,0,0,0,0,0
859,1765903441623,-450,8330,-413,0,0,0,0,0
860,1765903442915,-466,8322,-418,0,0,0,0,0
861,1765903442915,-462,8320,-418,0,0,0,0,0
862,1765903442924,-463,8326,-422,0,0,0,0,0
863,1765903443421,-465,8327,-405,0,0,0,0,0
864,1765903443937,-476,8329,-422,0,0,0,0,0
865,1765903445152,-463,8328,-432,0,0,0,0,0
866,1765903445604,-474,8433,-400,0,0,0,0,0
867,1765903445837,-477,8322,-408,0,0,0,0,0
868,1765903445969,-464,8297,-397,0,0,0,0,0
869,1765903446154,-455,8329,-422,0,0,0,0,0
870,1765903448817,-456,8322,-404,0,0,0,0,0
871,1765903448900,-465,8325,-398,0,0,0,0,0
872,1765903450149,-452,8318,-414,0,0,0,0,0
873,1765903450966,-455,8311,-405,0,0,0,0,0
874,1765903451814,-484,8325,-405,0,0,0,0,0
875,1765903451914,-461,8330,-414,0,0,0,0,0
876,1765903452382,-463,8324,-423,0,0,0,0,0
877,1765903452415,-461,8332,-409,0,0,0,0,0
878,1765903452648,-472,8323,-416,0,0,0,0,0
879,1765903452980,-472,8326,-418,0,0,0,0,0
880,1765903453247,-460,8332,-406,0,0,0,0,0
881,1765903453313,-466,8320,-417,0,0,0,0,0
882,1765903454263,-465,8324,-418,0,0,0,0,0
883,1765903455861,-459,8326,-420,0,0,0,0,0
884,1765903455893,-475,8325,-417,0,0,0,0,0
885,1765903456193,-456,8323,-409,0,0,0,0,0
886,1765903456377,-458,8316,-407,0,0,0,0,0
887,1765903456644,-466,8324,-413,0,0,0,0,0
888,1765903457009,-466,8320,-414,0,0,0,0,0
889,1765903458193,-450,8342,-432,0,0,0,0,0
890,1765903459025,-460,8308,-424,0,0,0,0,0
891,1765903459525,-458,8311,-412,0,0,0,0,0
892,1765903459907,-464,8324,-423,0,0,0,0,0
893,1765903460457,-461,8327,-435,0,0,0,0,0
894,1765903460707,-470,8316,-422,0,0,0,0,0
895,1765903461124,-468,8332,-403,0,0,0,0,0
896,1765903461391,-447,8322,-410,0,0,0,0,0
897,1765903461691,-459,8336,-400,0,0,0,0,0
898,1765903462122,-461,8332,-420,0,0,0,0,0
899,1765903462888,-464,8328,-422,0,0,0,0,0
900,1765903463638,-460,8327,-418,0,0,0,0,0
901,1765903463920,-460,8315,-405,0,0,0,0,0
902,1765903466950,-466,8326,-414,0,0,0,0,0
903,1765903468516,-464,8318,-397,0,0,0,0,0
904,1765903468770,-466,8332,-482,0,0,0,0,0
905,1765903469300,-72,8841,1514,0,0,0,0,0
906,1765903469567,-492,8703,1102,0,0,0,0,0
907,1765903469765,-618,7815,658,0,0,0,0,0
908,1765903470565,-999,8488,1237,0,0,0,0,0
909,1765903470732,-341,8289,776,0,0,0,0,0
910,1765903470932,-363,8008,660,0,0,0,0,0
911,1765903471064,-191,7970,810,0,0,0,0,0
912,1765903471297,-857,8484,582,0,0,0,0,0
913,1765903471467,-792,8436,214,0,0,0,0,0
914,1765903471799,84,8582,669,0,0,0,0,0
915,1765903472063,-192,9029,686,0,0,0,0,0
916,1765903475061,336,7302,-73,0,0,0,0,0
917,1765903475911,-751,9464,126,0,0,0,0,0
918,1765903476444,-34,8304,42,0,0,0,0,0
919,1765903476677,-426,9873,-146,0,0,0,0,0
920,1765903477309,-1162,7457,-781,0,0,0,0,0
921,1765903478575,-271,8669,-641,0,0,0,0,0
922,1765903478576,-962,7328,-502,0,0,0,0,0
923,1765903478576,-850,7802,-550,0,0,0,0,0
924,1765903478708,-1004,8004,-713,0,0,0,0,0
925,1765903478908,-2663,8455,-746,0,0,0,0,0
926,1765903479157,-2332,7232,-222,0,0,0,0,0
927,1765903479225,-1669,8577,-498,0,0,0,0,0
928,1765903479690,-1304,8413,28,0,0,0,0,0
929,1765903480006,712,8192,168,0,0,0,0,0
930,1765903480922,2970,8424,-764,0,0,0,0,0
931,1765903481172,2417,6485,-912,0,0,0,0,0
932,1765903481356,2061,8758,-920,0,0,0,0,0
933,1765903482039,-2630,9415,217,0,0,0,0,0
934,1765903482439,-3812,8396,-444,0,0,0,0,0
935,1765903482688,-4215,8078,-294,0,0,0,0,0
936,1765903482705,-2503,7628,175,0,0,0,0,0
937,1765903482887,-191,8038,159,0,0,0,0,0
938,1765903483121,-854,7463,6,0,0,0,0,0
939,1765903483688,-1023,7810,135,0,0,0,0,0
940,1765903483937,-434,8558,-125,0,0,0,0,0
941,1765903484221,-2604,8066,-639,0,0,0,0,0
942,1765903484486,-3387,7034,825,0,0,0,0,0
943,1765903484736,-3768,7182,-378,0,0,0,0,0
944,1765903484839,-3841,8655,-430,0,0,0,0,0
945,1765903485202,-3154,9557,-126,0,0,0,0,0
946,1765903485603,-2434,7172,124,0,0,0,0,0
947,1765903485703,-2720,8796,-303,0,0,0,0,0
948,1765903488517,-5198,6040,-1072,0,0,0,0,0
949,1765903489550,-3915,6777,-563,0,0,0,0,0
950,1765903490898,948,8618,-243,0,0,0,0,0
951,1765903494545,-2104,7974,260,0,0,0,0,0
952,1765903495743,4211,7508,-1053,0,0,0,0,0
953,1765903496561,6378,8332,-1633,0,0,0,0,0
954,1765903497092,5573,5672,-1429,0,0,0,0,0
955,1765903497176,5528,10215,-1452,0,0,0,0,0
956,1765903497893,5469,8551,-1330,0,0,0,0,0
957,1765903498042,5845,8337,402,0,0,0,0,0
958,1765903498242,5901,9110,-1043,0,0,0,0,0
959,1765903499074,-3312,8488,-1476,0,0,0,0,0
960,1765903499374,-2034,7780,-323,0,0,0,0,0
961,1765903500739,5363,8474,-1523,0,0,0,0,0
962,1765903500939,1308,7742,-2130,0,0,0,0,0
963,1765903501688,-6071,7070,-1212,0,0,0,0,0
964,1765903502103,-5256,8774,-1089,0,0,0,0,0
965,1765903504637,-1161,7300,-142,0,0,0,0,0
966,1765903504952,-2472,7437,-710,0,0,0,0,0
967,1765903505436,-2265,6207,-129,0,0,0,0,0
968,1765903505785,-2445,8752,146,0,0,0,0,0
969,1765903505952,-2808,8580,-285,0,0,0,0,0
970,1765903506103,-3050,8084,-300,0,0,0,0,0
971,1765903506618,-2563,8668,-100,0,0,0,0,0
972,1765903506735,-2233,7380,-158,0,0,0,0,0
973,1765903506884,-1526,8474,211,0,0,0,0,0
974,1765903507151,-1926,8253,-110,0,0,0,0,0
975,1765903507517,-886,8353,69,0,0,0,0,0
976,1765903508051,-615,8158,257,0,0,0,0,0
977,1765903508700,515,8744,-14,0,0,0,0,0
978,1765903508900,-265,9153,49,0,0,0,0,0
979,1765903510715,-922,7921,-59,0,0,0,0,0
980,1765903510898,-1964,7804,361,0,0,0,0,0
981,1765903511081,-940,9531,-3,0,0,0,0,0
982,1765903512013,-2169,6771,-234,0,0,0,0,0
983,1765903512196,-1457,7769,-358,0,0,0,0,0
984,1765903512429,-1503,8126,-78,0,0,0,0,0
985,1765903512580,-682,9306,-84,0,0,0,0,0
986,1765903513212,-339,8083,-182,0,0,0,0,0
987,1765903513612,-310,7506,-208,0,0,0,0,0
988,1765903515177,-1995,9184,-800,0,0,0,0,0
989,1765903517875,-3994,6818,-670,0,0,0,0,0
990,1765903518026,-4061,9907,-1275,0,0,0,0,0
991,1765903518375,-4518,7198,-442,0,0,0,0,0
992,1765903520439,-1805,8295,110,0,0,0,0,0
993,1765903520591,-1754,8214,102,0,0,0,0,0
994,1765903524520,-1006,8444,-396,0,0,0,0,0
995,1765903524536,-578,8163,-1201,0,0,0,0,0
996,1765903525136,-122,8222,-136,0,0,0,0,0
997,1765903525784,-344,9318,-388,0,0,0,0,0
998,1765903525967,-1484,7532,-402,0,0,0,0,0
999,1765903526601,-3146,9596,-1681,0,0,0,0,0
1000,1765903526785,-2550,8191,-481,0,0,0,0,0
1001,1765903527251,-2690,7134,-658,0,0,0,0,0
1002,1765903527400,-2585,7565,-1241,0,0,0,0,0
1003,1765903527684,405,8694,-1435,0,0,0,0,0
1004,1765903528450,4750,9146,-1264,0,0,0,0,0
1005,1765903529332,-4672,8663,-544,0,0,0,0,0
1006,1765903529615,-6658,9266,-960,0,0,0,0,0
1007,1765903530915,-2403,7524,-880,0,0,0,0,0
1008,1765903531181,-2019,8656,-604,0,0,0,0,0
1009,1765903534560,-4012,7649,-1055,0,0,0,0,0
1010,1765903536208,-4076,6647,-1244,0,0,0,0,0
1011,1765903536308,-4132,8348,-939,0,0,0,0,0
1012,1765903537076,-1592,7728,-1084,0,0,0,0,0
1013,1765903537124,-1237,8811,-762,0,0,0,0,0
1014,1765903537458,-1634,7062,-872,0,0,0,0,0
1015,1765903537958,-1058,8230,-1159,0,0,0,0,0
1016,1765903538159,-881,7626,-758,0,0,0,0,0
1017,1765903538841,-272,8922,-1182,0,0,0,0,0
1018,1765903539291,253,8953,68,0,0,0,0,0
1019,1765903539690,-126,9213,630,0,0,0,0,0
1020,1765903541071,596,7673,548,0,0,0,0,0
1021,1765903541987,915,10139,223,0,0,0,0,0
1022,1765903542254,139,8812,471,0,0,0,0,0
1023,1765903542321,-2765,7873,-310,0,0,0,0,0
1024,1765903542588,-3198,8160,-32,0,0,0,0,0
1025,1765903543270,-543,7421,252,0,0,0,0,0
1026,1765903544204,3082,8140,-976,0,0,0,0,0
1027,1765903545135,5398,7316,-1708,0,0,0,0,0
1028,1765903546068,3129,9102,-1608,0,0,0,0,0
1029,1765903546901,2944,7881,-1668,0,0,0,0,0
1030,1765903552396,-2897,8720,-1199,0,0,0,0,0
1031,1765903552663,-2623,8341,-860,0,0,0,0,0
1032,1765903552912,-2362,8211,-798,0,0,0,0,0
1033,1765903553961,-1353,9197,1305,0,0,0,0,0
1034,1765903555527,-3888,7964,-16,0,0,0,0,0
1035,1765903555743,-2435,9192,110,0,0,0,0,0
1036,1765903555992,-1894,8257,285,0,0,0,0,0
1037,1765903556026,-4694,8798,-474,0,0,0,0,0
1038,1765903556326,-3869,7657,-158,0,0,0,0,0
1039,1765903556576,-2922,8679,362,0,0,0,0,0
1040,1765903557093,-2229,9094,758,0,0,0,0,0
1041,1765903557159,-3102,8164,650,0,0,0,0,0
1042,1765903557542,-1236,8340,1014,0,0,0,0,0
1043,1765903558473,-2670,7048,142,0,0,0,0,0
1044,1765903559873,-1550,8692,1311,0,0,0,0,0
1045,1765903559922,-1769,8687,345,0,0,0,0,0
1046,1765903560221,-2298,8540,1188,0,0,0,0,0
1047,1765903560421,-1903,8653,655,0,0,0,0,0
1048,1765903561356,-1449,7312,-567,0,0,0,0,0
1049,1765903561572,-1795,13128,-19652,0,0,0,0,0
1050,1765903562455,-1822,9015,-772,0,0,0,0,0
1051,1765903564336,-5414,7192,-1098,0,0,0,0,0
1052,1765903565885,-6986,8652,-1432,0,0,0,0,0
1053,1765903566667,-3932,7824,-628,0,0,0,0,0
1054,1765903566934,-3997,8981,-910,0,0,0,0,0
1055,1765903567217,-1398,8386,11,0,0,0,0,0
1056,1765903567234,-2088,7565,-446,0,0,0,0,0
1057,1765903568249,-551,8703,-2561,0,0,0,0,0
1058,1765903568748,-1253,8752,-1628,0,0,0,0,0
1059,1765903570930,-939,8706,-1672,0,0,0,0,0
1060,1765903573078,-329,8216,-434,0,0,0,0,0
1061,1765903575676,-266,8321,-358,0,0,0,0,0
1062,1765903577541,-251,8340,-369,0,0,0,0,0
1063,1765903579673,-275,8260,-339,0,0,0,0,0
1064,1765903581189,-260,8335,-342,0,0,0,0,0
1065,1765903581671,-244,8319,-359,0,0,0,0,0
1066,1765903582620,-244,8321,-353,0,0,0,0,0
1067,1765903583819,-248,8340,-386,0,0,0,0,0
1068,1765903584003,-251,8330,-381,0,0,0,0,0
1069,1765903584102,-247,8338,-359,0,0,0,0,0
1070,1765904393756,541,8409,-264,0,0,0,0,0
1071,1765904394507,1075,8618,-943,0,0,0,0,0
1072,1765904394707,1118,8418,-793,0,0,0,0,0
1073,1765904397144,-1611,7578,-562,0,0,0,0,0
1074,1765904397432,-1830,8314,-733,0,0,0,0,0
1075,1765904398388,150,8704,-88,0,0,0,0,0
1076,1765904400414,461,7936,-917,0,0,0,0,0
1077,1765904400414,-70,8185,-613,0,0,0,0,0
1078,1765904400864,-941,8274,-455,0,0,0,0,0
1079,1765904401113,411,8100,-629,0,0,0,0,0
1080,1765904401446,-322,8280,-591,0,0,0,0,0
1081,1765904401531,-523,8259,-778,0,0,0,0,0
1082,1765904405162,-262,8082,-655,0,0,0,0,0
1083,1765904405510,-357,8658,-899,0,0,0,0,0
1084,1765904405943,-388,8285,-954,0,0,0,0,0
1085,1765904406292,-448,8228,-1004,0,0,0,0,0
1086,1765904406675,-464,8327,-953,0,0,0,0,0
1087,1765904406875,-398,8294,-610,0,0,0,0,0
1088,1765904407159,-368,8326,-371,0,0,0,0,0
1089,1765904407841,-335,8387,-296,0,0,0,0,0
1090,1765904408124,-289,8395,-238,0,0,0,0,0
1091,1765904408357,-274,8314,-237,0,0,0,0,0
1092,1765904408625,-314,8351,-245,0,0,0,0,0
1093,1765904411754,-396,8310,-320,0,0,0,0,0
1094,1765904413619,-422,8268,-376,0,0,0,0,0
1095,1765904416551,-451,8262,-164,0,0,0,0,0
1096,1765904416800,-420,8469,-229,0,0,0,0,0
1097,1765904419581,-243,8618,-238,0,0,0,0,0
1098,1765904419781,-270,8348,-305,0,0,0,0,0
1099,1765904424210,-298,8314,-341,0,0,0,0,0
1100,1765904424526,-354,8343,-404,0,0,0,0,0
1101,1765904426392,-312,8317,-238,0,0,0,0,0
1102,1765904426759,-345,8357,-221,0,0,0,0,0
1103,1765904428391,-127,8072,-166,0,0,0,0,0
1104,1765904428874,-299,8457,-350,0,0,0,0,0
1105,1765904429273,-261,8518,-318,0,0,0,0,0
1106,1765904430505,-207,8048,-512,0,0,0,0,0
1107,1765904432054,-279,7935,-700,0,0,0,0,0
1108,1765904432237,-260,8304,-672,0,0,0,0,0
1109,1765904432487,-448,8437,-806,0,0,0,0,0
1110,1765904433870,-253,8241,-764,0,0,0,0,0
1111,1765904434653,-289,8314,-713,0,0,0,0,0
1112,1765904434952,-376,8224,-633,0,0,0,0,0
1113,1765904435934,-204,8292,-602,0,0,0,0,0
1114,1765904439065,-343,8322,-463,0,0,0,0,0
1115,1765904439947,-289,8336,-350,0,0,0,0,0
1116,1765904440531,-296,8271,-372,0,0,0,0,0
1117,1765904440863,-310,8351,-390,0,0,0,0,0
1118,1765904441113,-269,8247,-302,0,0,0,0,0
1119,1765904443810,-138,8442,-200,0,0,0,0,0
1120,1765904444444,-147,8326,-249,0,0,0,0,0
1121,1765904444444,-81,8428,-226,0,0,0,0,0
1122,1765904444460,-145,8398,-125,0,0,0,0,0
1123,1765904444460,47,8336,-79,0,0,0,0,0
1124,1765904445460,33,8416,-526,0,0,0,0,0
1125,1765904445892,-37,8212,-299,0,0,0,0,0
1126,1765904447790,-322,8353,-383,0,0,0,0,0
1127,1765904448057,-161,8228,-403,0,0,0,0,0
1128,1765904453186,-314,8324,-410,0,0,0,0,0
1129,1765904454735,-312,8322,-448,0,0,0,0,0
1130,1765904457266,-330,8311,-428,0,0,0,0,0
1131,1765904457449,-315,8334,-372,0,0,0,0,0
1132,1765904457732,-310,8336,-465,0,0,0,0,0
1133,1765904460679,-242,8377,-474,0,0,0,0,0
1134,1765904461062,-337,8198,-652,0,0,0,0,0
1135,1765904463728,-285,8339,-414,0,0,0,0,0
1136,1765904463994,-252,8408,-439,0,0,0,0,0
1137,1765904464043,-356,8276,-461,0,0,0,0,0
1138,1765904464293,-314,8290,-450,0,0,0,0,0
1139,1765904466725,-259,8285,-400,0,0,0,0,0
1140,1765904467590,-360,8441,-472,0,0,0,0,0
1141,1765904468257,-335,8335,-416,0,0,0,0,0
1142,1765904468540,-293,8334,-465,0,0,0,0,0
