index,date,GYRO_X,GYRO_Y,GYRO_Z
0,1780260522137,274,-5610,6177
1,1780260522304,264,-5592,6178
2,1780260522420,262,-5613,6191
3,1780260523337,268,-5600,6188
4,1780260524152,245,-5588,6186
5,1780260524453,256,-5579,6202
6,1780260524486,259,-5601,6188
7,1780260525939,268,-5597,6198
8,1780260526052,272,-5612,6188
9,1780260526170,258,-5600,6178
10,1780260526420,260,-5607,6185
11,1780260527419,268,-5605,6183
12,1780260527670,260,-5592,6189
13,1780260527903,260,-5602,6192
14,1780260528453,258,-5592,6182
15,1780260529520,229,-5589,6202
16,1780260529602,297,-5589,6184
17,1780260530469,284,-5595,6175
18,1780260530836,326,-5594,6134
19,1780260531052,264,-5597,6168
20,1780260532403,268,-5599,6188
21,1780260532702,268,-5602,6168
22,1780260532936,272,-5603,6180
23,1780260535335,272,-5602,6172
24,1780260536036,270,-5596,6168
25,1780260536286,241,-5608,6169
26,1780260536318,274,-5580,6194
27,1780260536986,262,-5621,6188
28,1780260537802,296,-5600,6177
29,1780260538302,249,-5583,6177
30,1780260538752,272,-5597,6168
31,1780260538803,274,-5611,6174
32,1780260538970,247,-5589,6194
33,1780260539669,285,-5587,6187
34,1780260539952,285,-5593,6189
35,1780260540285,261,-5582,6169
36,1780260540868,310,-5636,6153
37,1780260541936,238,-5593,6190
38,1780260542686,264,-5592,6184
39,1780260543169,255,-5598,6182
40,1780260543369,235,-5612,6149
41,1780260543753,6134,0,0
42,1780260544452,234,-5555,6171
43,1780260545036,380,-5603,6191
44,1780260545185,309,-5648,6127
45,1780260545235,186,-5547,6277
46,1780260545352,314,-5600,6261
47,1780260546385,266,-5588,6186
48,1780260547453,267,-5624,6240
49,1780260548818,256,-5605,6183
50,1780260549186,253,-5608,6166
51,1780260549968,261,-5616,6158
52,1780260550185,245,-5604,6156
53,1780260550435,255,-5642,6186
54,1780260552702,260,-5570,6199
55,1780260553068,292,-5596,6236
56,1780260553684,252,-5629,6161
57,1780260554635,255,-5588,6183
58,1780260554768,270,-5588,6177
59,1780260555668,220,-5552,6174
60,1780260555918,250,-5584,6138
61,1780260558401,266,-5585,6179
62,1780260559719,266,-5583,6144
63,1780260560035,272,-5588,6150
64,1780260560534,248,-5606,6183
65,1780260561900,263,-5589,6171
66,1780260562018,262,-5602,6189
67,1780260562550,278,-5572,6204
68,1780260564334,262,-5568,6194
69,1780260564451,278,-5573,6181
70,1780260565285,232,-5608,6168
71,1780260566901,257,-5598,6166
72,1780260567218,268,-5611,6178
73,1780260567950,245,-5591,6189
74,1780260568236,264,-5600,6186
75,1780260568869,234,-5604,6178
76,1780260569400,264,-5586,6193
77,1780260570518,273,-5598,6184
78,1780260571385,253,-5594,6184
79,1780260573850,240,-5324,6114
80,1780260574467,279,-5567,6144
81,1780260575000,274,-5564,6176
82,1780260575451,228,-5599,6132
83,1780260575834,310,-5627,6248
84,1780260576001,250,-5580,6197
85,1780260576983,-559,-5096,6376
86,1780260577233,-177,-5290,6255
87,1780260577600,-1295,-5162,7156
88,1780260577733,-1444,-4532,6335
89,1780260577984,-1559,-6413,5879
90,1780260580200,-873,-7103,7380
91,1780260580418,-1951,-5036,5284
92,1780260581734,2748,-5052,13276
93,1780260582016,2272,114,18873
94,1780260582134,4636,-4873,9610
95,1780260583216,37,-3264,8438
96,1780260585516,1044,-1928,8046
97,1780260585650,120,-6400,7813
98,1780260585683,3162,-3545,8210
99,1780260586016,2530,-3880,8417
100,1780260587583,1162,-4889,6048
101,1780260588033,1210,-4099,6436
102,1780260588652,1096,-4450,5584
103,1780260590316,135,-6063,6078
104,1780260590766,533,-6480,5709
105,1780260591100,2944,-5750,5743
106,1780260591216,2989,-6217,5372
107,1780260591633,-1203,-5414,6599
108,1780260592750,-136,-5397,6313
109,1780260593283,-234,-5525,6322
110,1780260593932,-366,-5625,6315
111,1780260594400,-439,-5538,6316
112,1780260594799,-351,-5402,6372
113,1780260595016,-476,-5446,6368
114,1780260595883,-222,-5428,6276
115,1780260595916,-227,-5437,6304
116,1780260595951,-272,-5448,6310
117,1780260596082,-324,-5393,6315
118,1780260596449,-248,-5474,6334
119,1780260597315,-278,-5451,6266
120,1780260597816,-229,-5445,6300
121,1780260599998,-254,-5452,6300
122,1780260600833,-267,-5453,6309
123,1780260601065,6308,0,0
124,1780260602098,-258,-5433,6293
125,1780260602632,6314,0,0
126,1780260602716,-260,-5441,6301
127,1780260602933,-267,-5438,6305
128,1780260604165,-260,-5440,6348
129,1780260604415,-276,-5463,6306
130,1780260605115,-279,-5455,6322
131,1780260605449,-262,-5442,6341
132,1780260605699,-270,-5442,6332
133,1780260605816,-256,-5453,6314
134,1780260605899,-248,-5436,6302
135,1780260606482,-275,-5443,6311
136,1780260606932,-260,-5446,6314
137,1780260607632,-224,-5427,6308
138,1780260610032,-292,-5456,6318
139,1780260610482,-266,-5459,6291
140,1780260611832,-270,-5428,6331
141,1780260612299,-264,-5464,6288
142,1780260612665,-300,-5449,6318
143,1780260612998,-248,-5434,6296
144,1780260613698,-262,-5438,6306
145,1780260615015,-265,-5446,6298
146,1780260615432,-290,-5455,6305
147,1780260615465,-256,-5422,6298
148,1780260615598,-258,-5460,6310
149,1780260615749,-282,-5438,6315
150,1780260615914,-256,-5461,6296
151,1780260617281,-272,-5438,6299
152,1780260617316,-265,-5441,6313
153,1780260619515,-256,-5472,6302
154,1780260620047,-285,-5439,6315
155,1780260620164,-236,-5454,6308
156,1780260620415,-263,-5428,6305
157,1780260620714,-263,-5444,6290
158,1780260620798,-264,-5440,6326
159,1780260620914,-256,-5438,6300
160,1780260622113,-284,-5443,6310
161,1780260622647,-264,-5462,6305
162,1780260623298,-255,-5434,6322
163,1780260623380,-260,-5464,6301
164,1780260623599,-268,-5455,6308
165,1780260623715,-270,-5462,6318
166,1780260623881,-258,-5444,6320
167,1780260624214,-274,-5426,6298
168,1780260624331,-261,-5458,6319
169,1780260624580,-264,-5437,6306
0,1780259510892,-436,-5034,7189
1,1780259512195,5311,0,0
2,1780259512329,4956,-5423,4496
3,1780259512396,5048,-6860,5675
4,1780259513762,-3,-4968,6640
5,1780259513963,6594,0,414
6,1780259514013,-154,-5154,6586
7,1780259514179,6602,0,0
8,1780259514429,-108,-5134,6572
9,1780259515380,-184,-5127,6608
10,1780259516949,-136,-5131,6568
11,1780259518279,-122,-5099,6607
12,1780259518646,-122,-5098,6581
13,1780259520246,-130,-5124,6565
14,1780259523096,-135,-5104,6608
15,1780259523230,-126,-5084,6584
16,1780259523429,-128,-5099,6610
17,1780259524163,-132,-5099,6632
18,1780259525412,-142,-5083,6553
19,1780259525579,-161,-5090,6643
20,1780259527849,-132,-5131,6608
21,1780259528212,-155,-5105,6642
22,1780259528462,-98,-5103,6599
23,1780259529463,-160,-5132,6646
24,1780259530080,-117,-5096,6623
25,1780259531096,-109,-5107,6602
26,1780259532295,-1,-5120,6571
27,1780259532429,-292,-5070,6625
28,1780259532912,-162,-5069,6565
29,1780259607190,312,-5555,6249
30,1780259609041,323,-5527,6130
31,1780259611091,308,-5570,6230
32,1780259611207,294,-5565,6241
33,1780259611707,300,-5566,6219
34,1780259613074,288,-5545,6217
35,1780259613308,287,-5563,6224
36,1780259613557,344,-5553,6183
37,1780259614425,323,-5558,6222
38,1780259614575,328,-5578,6223
39,1780259615042,411,-5576,6173
40,1780259616673,333,-5548,6220
41,1780259617274,315,-5535,6211
42,1780259617357,302,-5576,6226
43,1780259617890,325,-5580,6218
44,1780259618324,310,-5544,6249
45,1780259618440,357,-5572,6202
46,1780259619491,338,-5550,6204
47,1780259627209,288,-5580,6235
48,1780259628139,352,-5563,6212
49,1780259628456,311,-5538,6207
50,1780259629740,319,-5572,6230
51,1780259631272,323,-5570,6212
52,1780259631806,298,-5554,6224
53,1780259631924,361,-5560,6279
54,1780259632872,316,-5532,6207
55,1780259632923,312,-5560,6230
56,1780259633006,300,-5570,6256
57,1780259634274,343,-5536,6202
58,1780259634889,310,-5570,6233
59,1780259635339,316,-5536,6207
60,1780259635472,321,-5546,6196
61,1780259635790,326,-5571,6242
62,1780259637140,317,-5566,6222
63,1780259637707,313,-5566,6217
64,1780259638089,330,-5565,6240
65,1780259639772,297,-5604,6255
66,1780259640022,370,-5554,6162
67,1780259640272,334,-5550,6226
68,1780259640439,325,-5593,6221
69,1780259640605,330,-5539,6265
70,1780259641338,331,-5560,6212
71,1780259641472,299,-5570,6229
72,1780259641556,328,-5565,6235
73,1780259642255,288,-5531,6225
74,1780259642339,305,-5539,6250
75,1780259642705,300,-5546,6214
76,1780259644689,281,-5478,6247
77,1780259644722,372,-5555,6231
78,1780259644889,309,-5578,6225
79,1780259645106,297,-5533,6180
80,1780259646039,270,-5544,6196
81,1780259646740,329,-5564,6196
82,1780259647038,309,-5601,6206
83,1780259648355,318,-5566,6246
84,1780259649173,310,-5563,6234
85,1780259650539,308,-5554,6222
86,1780259650704,304,-5565,6207
87,1780259650954,323,-5578,6230
88,1780259651205,333,-5549,6233
89,1780259651371,295,-5591,6241
90,1780259652521,305,-5560,6230
91,1780259652638,319,-5555,6220
92,1780259653221,312,-5548,6226
93,1780259653588,304,-5574,6234
94,1780259653755,310,-5553,6226
95,1780259654537,328,-5558,6214
96,1780259655072,353,-5582,6217
97,1780259655540,316,-5564,6224
98,1780259656154,266,-5534,6249
99,1780259657020,325,-5565,6225
100,1780259657137,316,-5550,6210
101,1780259657471,312,-5544,6222
102,1780259657554,318,-5582,6221
103,1780259659538,334,-5533,6150
104,1780259659872,304,-5590,6212
105,1780259659938,295,-5530,6231
106,1780259660271,338,-5585,6261
107,1780259661054,312,-5549,6250
108,1780259661471,282,-5631,6267
109,1780259662504,320,-5555,6212
110,1780259663622,322,-5602,6202
111,1780259663789,288,-5526,6254
112,1780259664403,304,-5563,6264
113,1780259664520,334,-5535,6139
114,1780259664853,276,-5555,6274
115,1780259665021,288,-5586,6330
116,1780259665921,303,-5554,6270
117,1780259666587,325,-5556,6220
118,1780259667403,317,-5558,6244
119,1780259667737,328,-5559,6203
120,1780259668320,304,-5559,6249
121,1780259668520,320,-5558,6221
122,1780259670004,279,-5534,6210
123,1780259671037,312,-5552,6223
124,1780259671704,348,-5571,6220
125,1780259673020,307,-5548,6241
126,1780259673104,314,-5543,6196
127,1780259673720,304,-5562,6256
128,1780259673887,332,-5556,6200
129,1780259673970,318,-5588,6232
130,1780259675338,310,-5570,6191
131,1780259676361,338,-5551,6228
132,1780259676769,314,-5558,6242
133,1780259677222,321,-5564,6232
134,1780259677470,318,-5553,6229
135,1780259678087,6222,0,0
136,1780259678220,314,-5538,6206
137,1780259678487,306,-5598,6235
138,1780259678653,6215,0,0
139,1780259678987,322,-5598,6217
140,1780259679521,337,-5570,6234
141,1780259679639,325,-5556,6231
142,1780259680187,316,-5550,6214
143,1780259680636,322,-5549,6264
144,1780259681154,300,-5551,6230
145,1780259681653,302,-5559,6248
146,1780259682569,317,-5564,6235
147,1780259683788,291,-5568,6226
148,1780259685319,312,-5540,6226
149,1780259686720,349,-5574,6217
150,1780259687786,293,-5562,6228
151,1780259688203,320,-5573,6238
152,1780259688736,322,-5556,6217
153,1780259689069,312,-5569,6220
154,1780259689521,286,-5554,6242
155,1780259691053,311,-5552,6245
156,1780259691136,315,-5564,6224
157,1780259692086,325,-5556,6229
158,1780259692420,316,-5544,6219
159,1780259696621,375,-5592,6185
160,1780259696687,363,-5600,6186
161,1780259697589,319,-5543,6232
162,1780259698819,327,-5553,6227
163,1780259700020,327,-5552,6220
164,1780259700502,298,-5568,6235
165,1780259700585,302,-5546,6218
166,1780259701452,353,-5550,6213
167,1780259702219,324,-5572,6215
168,1780259703285,302,-5558,6214
169,1780259703619,306,-5533,6217
170,1780259703852,308,-5562,6254
171,1780259704368,324,-5591,6204
172,1780259704420,255,-5566,6242
173,1780259704668,366,-5552,6201
174,1780259704785,334,-5528,6234
175,1780259706003,318,-5554,6220
176,1780259706252,308,-5550,6219
177,1780259706936,323,-5558,6228
178,1780259707435,324,-5556,6206
179,1780259707885,322,-5560,6214
180,1780259708869,304,-5551,6222
181,1780259708985,286,-5539,6178
182,1780259709021,310,-5570,6317
183,1780259709537,344,-5550,6229
184,1780259710735,308,-5552,6225
185,1780259711101,303,-5605,6249
186,1780259711717,303,-5572,6222
187,1780259712185,316,-5558,6243
188,1780259712235,326,-5549,6236
189,1780259712884,319,-5551,6250
190,1780259714785,321,-5516,6252
191,1780259715485,336,-5602,6267
192,1780259716234,316,-5565,6240
193,1780259716917,311,-5554,6226
194,1780259718401,288,-5546,6250
195,1780259718517,332,-5608,6264
196,1780259719584,322,-5525,6222
197,1780259719934,401,-5643,6077
198,1780259720485,284,-5606,6158
199,1780259721217,6246,0,0
200,1780259721751,315,-5560,6224
201,1780259723301,326,-5560,6201
202,1780259725683,322,-5558,6223
203,1780259725817,340,-5546,6207
204,1780259726301,332,-5564,6212
205,1780259727600,332,-5564,6213
206,1780259728417,308,-5556,6217
207,1780259729701,312,-5559,6220
208,1780259729817,321,-5534,6245
209,1780259730035,296,-5574,6244
210,1780259730317,316,-5568,6236
211,1780259731017,310,-5558,6224
212,1780259731384,321,-5550,6217
213,1780259731435,327,-5571,6190
214,1780259732334,348,-5530,6237
215,1780259733334,267,-5582,6270
216,1780259733868,294,-5558,6243
217,1780259733984,328,-5548,6210
218,1780259734400,288,-5555,6240
219,1780259735766,306,-5580,6258
220,1780259735967,308,-5536,6185
221,1780259736084,296,-5574,6256
222,1780259736800,340,-5549,6237
223,1780259737733,270,-5337,6004
224,1780259738067,286,-5462,6156
225,1780259739183,316,-5560,6244
226,1780259739716,328,-5520,6232
227,1780259741199,307,-5576,6247
228,1780259741749,298,-5551,6230
229,1780259741817,316,-5565,6232
230,1780259742649,316,-5572,6228
231,1780259743233,318,-5561,6240
232,1780259744383,324,-5544,6201
233,1780259744917,322,-5559,6233
234,1780259745616,304,-5570,6216
235,1780259746366,316,-5552,6255
236,1780259747399,315,-5539,6206
237,1780259747933,317,-5554,6220
238,1780259748383,320,-5558,6216
239,1780259749283,312,-5563,6219
240,1780259752632,299,-5566,6229
241,1780259752832,304,-5556,6217
242,1780259752966,320,-5561,6228
243,1780259753132,311,-5556,6234
244,1780259753200,320,-5550,6227
245,1780259754599,310,-5557,6232
246,1780259755082,340,-5597,6228
247,1780259756082,309,-5558,6222
248,1780259756398,303,-5561,6228
249,1780259756548,323,-5547,6230
250,1780259757066,310,-5564,6213
251,1780259757099,291,-5564,6224
252,1780259758148,318,-5554,6232
253,1780259758932,314,-5574,6232
254,1780259758967,308,-5556,6221
255,1780259759432,312,-5559,6210
256,1780259759465,299,-5556,6231
257,1780259760232,325,-5548,6215
258,1780259762582,316,-5538,6207
259,1780259762698,369,-5546,6220
260,1780259763065,348,-5560,6189
261,1780259763316,327,-5558,6226
262,1780259763865,315,-5567,6286
263,1780259764668,182,-5521,6148
264,1780259766704,372,-5617,6192
265,1780259767198,392,-5569,6219
266,1780259767315,391,-5609,6199
267,1780259767648,396,-5575,6174
268,1780259768065,408,-5579,6212
269,1780259768964,248,-5514,6236
270,1780259769798,338,-5558,6236
271,1780259769881,318,-5557,6221
272,1780259770365,320,-5566,6234
273,1780259770484,288,-5582,6234
274,1780259770948,350,-5554,6237
275,1780259771897,370,-5565,6293
276,1780259772548,314,-5576,6234
277,1780259772964,352,-5571,6197
278,1780259775447,318,-5576,6199
279,1780259776064,315,-5553,6248
280,1780259778332,313,-5571,6228
281,1780259779682,334,-5556,6230
282,1780259780465,320,-5558,6244
283,1780259780764,352,-5584,6234
284,1780259780930,299,-5557,6192
285,1780259781332,325,-5674,6582
286,1780259781497,339,-5840,6434
287,1780259781631,469,-5392,5653
288,1780259783114,339,-5462,6142
289,1780259785297,405,-5510,6187
290,1780259785880,452,-5722,6244
291,1780259786497,531,-5620,6149
292,1780259789630,761,-5863,5913
293,1780259789963,624,-5363,6114
294,1780259790330,72,-5386,6275
295,1780259790664,-162,-5242,6313
296,1780259791147,710,-5491,6320
297,1780259791646,224,-5580,6278
298,1780259791814,414,-5554,6198
299,1780259792385,315,-5538,6248
300,1780259794797,328,-5541,6149
301,1780259796330,346,-5563,6255
302,1780259797713,344,-5558,6222
303,1780259798664,304,-5554,6211
304,1780259798863,326,-5550,6226
305,1780259799196,329,-5555,6205
306,1780259799397,327,-5550,6205
307,1780259801047,328,-5556,6221
308,1780259801579,325,-5560,6222
309,1780259801746,325,-5560,6214
310,1780259802246,323,-5550,6245
311,1780259804063,310,-5594,6252
312,1780259804313,334,-5536,6219
313,1780259806414,6229,0,1
314,1780259807079,367,-5542,6229
315,1780259807229,277,-5578,6206
316,1780259807764,342,-5558,6234
317,1780259809129,329,-5566,6232
318,1780259809379,304,-5545,6217
319,1780259810281,328,-5562,6228
320,1780259810662,274,-5565,6236
321,1780259810912,316,-5568,6231
322,1780259811279,320,-5560,6226
323,1780259811363,340,-5531,6215
324,1780259812429,299,-5554,6222
325,1780259812562,338,-5566,6220
326,1780259812646,308,-5538,6228
327,1780259812880,298,-5524,6218
328,1780259814495,306,-5546,6236
329,1780259814545,330,-5570,6199
330,1780259814745,334,-5552,6212
331,1780259814779,311,-5563,6236
332,1780259815562,298,-5562,6199
333,1780259817429,334,-5576,6197
334,1780259817711,328,-5557,6178
335,1780259818545,318,-5570,6234
336,1780259818995,321,-5554,6234
337,1780259821762,340,-5570,6230
338,1780259822012,295,-5550,6224
339,1780259822145,340,-5549,6224
340,1780259823963,320,-5566,6217
341,1780259824128,325,-5581,6238
342,1780259824678,306,-5545,6212
343,1780259825078,328,-5572,6214
344,1780259825228,308,-5552,6236
345,1780259828279,323,-5560,6240
346,1780259828694,320,-5566,6260
347,1780259828744,286,-5568,6228
348,1780259829079,329,-5557,6246
349,1780259829544,326,-5566,6212
350,1780259830028,320,-5541,6231
351,1780259830445,318,-5561,6222
352,1780259831429,316,-5561,6233
353,1780259831595,324,-5564,6222
354,1780259832628,322,-5564,6238
355,1780259833128,328,-5556,6230
356,1780259833945,317,-5545,6218
357,1780259834111,324,-5566,6234
358,1780259834494,314,-5554,6222
359,1780259834944,311,-5567,6230
360,1780259835144,318,-5558,6218
361,1780259836461,314,-5551,6232
362,1780259837695,313,-5556,6237
363,1780259838811,318,-5549,6229
364,1780259839510,315,-5551,6218
365,1780259839560,314,-5566,6238
366,1780259839644,316,-5555,6232
367,1780259840061,324,-5559,6228
368,1780259840527,310,-5547,6206
369,1780259841144,315,-5568,6230
370,1780259841811,319,-5542,6216
371,1780259841927,316,-5560,6232
372,1780259842229,307,-5560,6224
373,1780259842294,314,-5551,6235
374,1780259843111,332,-5551,6213
375,1780259843277,298,-5558,6230
376,1780259844194,320,-5570,6207
377,1780259844679,340,-5599,6197
378,1780259845061,312,-5541,6193
379,1780259845310,322,-5567,6195
380,1780259845761,322,-5551,6230
381,1780259845878,334,-5561,6228
382,1780259845997,318,-5567,6224
383,1780259847127,308,-5556,6223
384,1780259847243,314,-5570,6229
385,1780259847743,325,-5554,6231
386,1780259847977,340,-5559,6244
387,1780259848110,294,-5542,6210
388,1780259848893,361,-5601,6292
389,1780259849010,270,-5537,6114
390,1780259849060,38,-5582,6232
391,1780259849177,353,-5488,5973
392,1780259849260,28,-5505,6288
393,1780259849676,267,-5600,6193
394,1780259850493,336,-5600,6236
395,1780259853093,-832,-5044,7128
396,1780259853427,-727,-5892,5086
397,1780259853710,-814,-5437,5983
398,1780259858626,-1499,-7568,5696
399,1780259858877,350,-5771,6756
400,1780259858961,1223,-4861,7478
401,1780259859076,1520,-3560,9942
402,1780259859128,3192,-242,9464
403,1780259859278,2440,-716,10608
404,1780259860443,5042,-6917,13598
405,1780259862376,-346,-3465,6921
406,1780259862542,-484,-3944,8890
407,1780259863113,-1071,-3890,6802
408,1780259866292,-211,-5022,5791
409,1780259866959,6303,-4236,4368
410,1780259867126,4271,-6155,4839
411,1780259867993,745,-5550,6067
412,1780259868145,172,-5005,6514
413,1780259868476,301,-5031,6602
414,1780259868526,-52,-5322,6478
415,1780259870043,-108,-5117,6592
416,1780259870259,-145,-5114,6576
417,1780259870375,-149,-5112,6590
418,1780259870709,-140,-5109,6590
419,1780259871043,6583,0,0
420,1780259871742,-133,-5114,6592
421,1780259871826,-135,-5133,6598
422,1780259872311,-146,-5120,6603
423,1780259872975,-128,-5114,6601
424,1780259873059,-138,-5112,6599
425,1780259873592,-144,-5118,6609
426,1780259874876,-142,-5190,6585
427,1780259875293,-146,-5091,6658
428,1780259877142,-136,-5093,6570
429,1780259877592,-153,-5158,6622
0,1780260955995,42,-5166,6479
1,1780260956412,211,-4732,4892
2,1780260956662,-734,-6028,6341
3,1780260957645,379,-5233,6114
4,1780260959745,-418,-5008,7136
5,1780260959996,44,-5275,6682
6,1780260960279,-201,-3485,6026
7,1780260961396,-822,-6592,5244
8,1780260961930,-424,-5644,5346
9,1780260962761,-92,-5600,7492
10,1780260963911,-324,-5299,7398
11,1780260964079,254,-5159,7514
12,1780260964746,-413,-5263,5732
13,1780260965146,764,-5820,7072
14,1780260965395,30,-5800,6705
15,1780260967746,-2296,-12167,4144
16,1780260969644,-1266,-7018,4315
17,1780260970311,-1799,-6010,3778
18,1780260970428,-1462,-8293,6250
19,1780260970678,-1224,-8517,5936
20,1780260971794,1515,-2778,9173
21,1780260972661,1468,-3277,8910
22,1780260972827,-125,-2150,8294
23,1780260973028,1974,-3753,8616
24,1780260973161,2459,-227,9248
25,1780260973861,261,-4136,8754
26,1780260974311,822,-3929,7878
27,1780260976044,-1143,-5461,10932
28,1780260976120,1475,-4227,6026
29,1780260976295,534,-6556,8467
30,1780260978111,5673,1867,7456
31,1780260978311,4141,-2767,10806
32,1780260979461,1388,-4321,8920
33,1780260980529,1139,-3903,8446
34,1780260981412,1015,-3796,6183
35,1780260981561,1287,-4217,6173
36,1780260981861,1062,-5456,6584
37,1780260981977,983,-5412,6081
38,1780260982227,1613,-4664,6087
39,1780260982427,1082,-5238,6710
40,1780260983960,-1371,-4494,7549
41,1780260984627,-1284,-4430,7552
42,1780260984827,-1467,-3410,6898
43,1780260985110,-1452,-5360,7713
44,1780260985410,-418,-3432,6780
45,1780260985727,-702,-5508,7401
46,1780260986110,115,-3511,5650
47,1780260986143,-44,-6268,5958
48,1780260986427,-154,-4722,8940
49,1780260986927,94,-5630,7552
50,1780260987343,-555,-4645,8327
51,1780260987512,38,-5680,6909
52,1780260987878,6216,0,0
53,1780260988410,427,-4589,7672
54,1780260988577,311,-3536,6229
55,1780260988627,-510,-5016,8394
56,1780260989811,61,-6168,5828
57,1780260990227,1030,-4256,9782
58,1780260990510,632,-2958,12413
59,1780260991260,3677,-1316,10796
60,1780260991844,1271,-460,10699
61,1780260992326,2026,1596,9371
62,1780260992459,1115,-190,9357
63,1780260993042,-51,-2193,12143
64,1780260993327,897,-2357,8247
65,1780260993893,136,-2112,6168
66,1780260994926,-2139,-5696,8108
67,1780260994977,-136,-5456,6528
68,1780260996744,-56,-11691,3302
69,1780260997076,1245,-13357,2261
70,1780260998143,-1203,-9491,2170
71,1780260998361,112,-10418,2159
72,1780260998760,672,-6880,5004
73,1780261000742,-238,-5258,5264
74,1780261001043,-516,-5160,6801
75,1780261001577,-965,-2300,7334
76,1780261002392,-713,-6496,6916
77,1780261003143,-412,-3238,6883
78,1780261003477,-192,-5032,7873
79,1780261003759,-614,-5926,7258
80,1780261005043,277,-4793,6120
81,1780261005443,-291,-4344,4902
82,1780261005577,-948,-6172,5859
83,1780261005743,-136,-6532,5897
84,1780261007509,320,-3712,6596
85,1780261008492,-788,-6168,6041
86,1780261009692,-548,-4989,6550
87,1780261010809,-920,-8070,7069
88,1780261011092,166,-6694,6253
89,1780261011627,-236,-5038,5923
90,1780261014192,230,-4378,6730
91,1780261015226,961,-4236,7419
92,1780261015560,-40,-3769,5873
93,1780261016175,-180,-5921,5582
94,1780261016710,-530,-8234,5071
95,1780261017443,818,-6908,5000
96,1780261017742,226,-6829,5485
97,1780261017942,-66,-6398,5031
98,1780261018808,983,-5037,5389
99,1780261019710,-126,-5861,6104
100,1780261021492,589,-2467,7735
101,1780261022891,-51,-4320,6750
102,1780261023092,-60,-4786,7974
103,1780261023341,910,-4892,6480
104,1780261024291,151,-5695,6672
105,1780261024458,137,-5854,7894
106,1780261026243,3141,-1965,8670
107,1780261026443,2700,-3092,8623
108,1780261026558,2450,-2963,8137
109,1780261026692,3440,-3516,9411
110,1780261026859,2338,-1232,9085
111,1780261026941,2622,-2264,8296
112,1780261027259,3026,-4392,9235
113,1780261027425,1816,-1816,8072
114,1780261027758,1913,-2688,9439
115,1780261028208,1761,-1387,6308
116,1780261028543,-636,-6832,8615
117,1780261028842,550,-5028,6264
118,1780261029041,654,-1700,6821
119,1780261029858,-66,-6282,8495
120,1780261030325,287,-4406,6820
121,1780261031307,-218,-5319,6749
122,1780261031758,200,-5255,7324
123,1780261032425,-162,-5330,7009
124,1780261032541,54,-4264,6416
125,1780261032874,-1032,-6553,7384
126,1780261034393,118,-4468,6034
127,1780261035058,-1111,-6184,5636
128,1780261035507,-351,-5014,6216
129,1780261035591,-125,-5205,6982
130,1780261036457,272,-5502,5568
131,1780261036591,45,-5172,7181
132,1780261036758,-447,-5416,6480
133,1780261037124,-85,-7504,5917
134,1780261037541,162,-5021,6261
135,1780261038274,-530,-7205,6081
136,1780261039891,534,-5196,5626
137,1780261040541,215,-3374,6456
138,1780261041407,6670,0,0
139,1780261042607,-159,-4945,4687
140,1780261042857,-81,-7142,6126
141,1780261043024,-936,-5502,5732
142,1780261043357,-2080,-6418,6257
143,1780261043890,1537,-5020,5869
144,1780261044340,-1116,-7086,5584
145,1780261045123,-337,-8530,4567
146,1780261045490,176,-5562,4861
147,1780261046607,-175,-6160,6994
148,1780261048225,2853,-36,8169
149,1780261048390,2912,-180,10848
150,1780261048674,1746,-565,11679
151,1780261048757,5020,-4359,10212
152,1780261049573,1696,-4687,9730
153,1780261049790,1240,-3826,6986
154,1780261050573,2177,-2109,9327
155,1780261050774,2298,220,6998
156,1780261051923,-1916,-5299,4378
157,1780261052256,-1502,-7052,4365
158,1780261052340,-2039,-11072,11462
159,1780261053657,32,-2926,3606
160,1780261054406,-2765,-8188,6848
161,1780261054856,1090,-5863,7462
162,1780261055556,-147,-5356,5772
163,1780261055924,8915,0,0
164,1780261058406,-150,-4245,7040
165,1780261058823,143,-3260,7283
166,1780261060172,842,-3862,6911
167,1780261060390,-44,-5355,6018
168,1780261061006,-866,-6262,5480
169,1780261062109,88,-3931,5827
170,1780261064957,-44,-7252,5628
171,1780261065340,391,-4848,6925
172,1780261066072,629,-4897,6254
173,1780261066156,1508,-4394,7716
174,1780261066489,1691,-2810,6955
175,1780261066656,932,-4448,8078
176,1780261067356,158,-3880,7730
177,1780261068222,1270,-3992,6345
178,1780261069955,-188,-4019,5194
179,1780261070072,-1366,-5663,9284
180,1780261070239,-456,-9136,5246
181,1780261072672,69,-6122,6041
182,1780261074039,-329,-6858,6901
183,1780261074239,-1766,-8253,8320
184,1780261074855,-710,-4311,5710
185,1780261074905,-303,-7069,5319
186,1780261075323,1026,-4278,7552
187,1780261075772,-824,-5276,6434
188,1780261076638,-148,-5823,4009
189,1780261077872,-464,-6207,3512
190,1780261078072,-433,-8854,3412
191,1780261081055,-1307,-5802,5160
192,1780261082372,-623,-2772,7043
193,1780261082821,-425,-5560,6010
194,1780261083105,1190,-3986,6891
195,1780261083271,957,-3928,7732
196,1780261083605,1047,-3090,8944
197,1780261084104,2342,206,10628
198,1780261084505,1456,628,9706
199,1780261085455,-954,94,11426
200,1780261086371,1433,-3575,7599
201,1780261086538,2511,-3016,13141
202,1780261086939,572,-3164,6136
203,1780261087688,2515,-2273,6966
204,1780261088189,383,-1696,8911
205,1780261089421,404,-3462,4859
206,1780261089504,5007,-3291,10387
207,1780261089672,3104,-6867,6885
208,1780261090322,-80,-4532,8851
209,1780261091405,4664,-1704,8292
210,1780261091488,3002,-2170,9159
211,1780261091723,3540,-1362,9776
212,1780261092303,1586,-900,6270
213,1780261092388,1822,-2710,8680
214,1780261095404,1513,-5222,6129
215,1780261095438,981,-5100,6333
216,1780261096355,-1190,-4951,7145
217,1780261096838,-1851,-3553,6869
218,1780261098704,-647,-5300,6810
219,1780261099520,-1140,-4660,6248
220,1780261100187,-146,-4458,6098
221,1780261100887,-356,-3895,7122
222,1780261101420,14,-4078,7306
223,1780261101587,-820,-4486,5448
224,1780261101953,-1734,-9443,4179
225,1780261102037,-1532,-7792,4198
226,1780261102287,-1850,-10014,4572
227,1780261102871,-1410,-4995,5884
228,1780261103438,-991,-7126,3507
229,1780261103988,-1192,-9533,5716
230,1780261104271,-1524,-7344,7634
231,1780261104938,-33,-5150,5540
232,1780261105004,-257,-4604,5711
233,1780261105253,-688,-7229,5728
234,1780261105871,9783,0,-1
235,1780261106537,280,-4748,6901
236,1780261107273,-642,-10426,4567
237,1780261108020,-3026,-9306,1747
238,1780261108270,-1825,-6535,4234
239,1780261108970,-353,-5186,3851
240,1780261109021,-2068,-5218,4252
241,1780261109503,10387,130,1404
242,1780261109639,-3544,0,0
243,1780261110737,6470,-21564,5564
244,1780261111486,-101,-2002,2546
245,1780261111819,-228,-11874,4662
246,1780261113186,-1216,-8858,4372
247,1780261114336,-1132,-6687,3687
248,1780261114786,-180,-3466,8665
249,1780261115153,-64,-3446,8168
250,1780261115369,-1106,-3472,5500
251,1780261115653,1099,-1160,11514
252,1780261116153,200,-1511,9104
253,1780261116769,1689,-2952,9506
254,1780261117187,1897,-332,6948
255,1780261118286,-1290,-6426,6580
256,1780261118669,150,-3287,7776
257,1780261119536,1092,-2474,10158
258,1780261120355,-311,-3185,9821
259,1780261120638,1534,-1854,9061
260,1780261120803,19,-2859,8702
261,1780261121026,1406,-4417,7282
262,1780261121803,-557,-4331,6666
263,1780261122086,334,-1867,7464
264,1780261122336,2352,-3502,7052
265,1780261122619,2807,-4627,7074
266,1780261122786,2127,-3393,6896
267,1780261123236,3741,-6810,8889
268,1780261123402,3136,-4992,1960
269,1780261123735,965,-6496,8420
270,1780261124568,5298,-1370,5733
271,1780261124969,1900,-2399,10309
272,1780261125103,5829,-4568,5516
273,1780261125386,4358,-2156,13534
274,1780261125503,1847,541,8783
275,1780261127569,1059,-5300,6804
276,1780261127902,723,-3150,5304
277,1780261128518,678,-2728,7968
278,1780261129018,1064,-4537,6597
279,1780261129135,655,-3210,8717
280,1780261130302,-505,-5702,7103
281,1780261132485,153,-6520,5192
282,1780261133219,-892,-6202,4333
283,1780261133352,-490,-8248,3620
284,1780261133519,122,-8952,4859
285,1780261135536,3,-6029,4658
286,1780261136435,3626,-2104,8943
287,1780261137052,1967,-3434,9911
288,1780261137435,2033,-1620,8526
289,1780261139035,365,-7433,4100
290,1780261139168,-346,-3830,4735
291,1780261139818,-1094,-9130,4008
292,1780261140768,-274,-7306,5334
293,1780261140935,-288,-4587,5539
294,1780261141752,76,-5362,5904
295,1780261143252,-1847,-6845,6164
296,1780261143368,-854,-5384,6500
297,1780261144236,-672,-5466,7022
298,1780261144318,566,-5234,7912
299,1780261145101,-135,-6941,4302
300,1780261146417,2404,2322,191
301,1780261146951,2482,260,7593
302,1780261147118,901,-4017,9533
303,1780261147618,159,-7552,4419
304,1780261147652,-2599,-12185,3814
305,1780261148117,-906,-10946,902
306,1780261150384,614,-5980,5634
307,1780261150551,1040,-6901,4717
308,1780261155501,-186,-4754,6733
309,1780261155785,-157,-4921,6894
310,1780261156436,80,-4894,6628
311,1780261156518,106,-4973,6754
312,1780261158418,-1108,-5372,6219
313,1780261158802,-749,-4570,6651
314,1780261160533,-1032,-3978,7663
315,1780261160734,-1374,-5365,6972
316,1780261161068,-1527,-3744,6951
317,1780261161468,-1833,-5413,6080
318,1780261161851,-1583,-3941,5666
319,1780261161967,-1384,-6034,6736
320,1780261162551,-1064,-4660,6288
321,1780261163000,-411,-3418,7754
322,1780261163117,1326,-1952,6765
323,1780261163200,-428,-2380,9258
324,1780261163750,1396,-3662,7637
325,1780261163867,1071,-3262,8468
326,1780261164650,1897,-1606,7666
327,1780261164734,1546,-1623,8601
328,1780261164983,1126,-3032,7778
329,1780261165235,835,-2816,7147
330,1780261165434,993,-2478,9130
331,1780261165551,1296,-3810,7194
332,1780261165767,863,-3131,7635
333,1780261166133,848,-5260,8053
334,1780261166550,734,-8370,3174
335,1780261166667,225,-8018,4195
336,1780261167584,-201,-7498,5384
337,1780261167617,1094,-7102,4776
338,1780261167984,428,-5238,7264
339,1780261168734,880,-4005,7159
340,1780261169067,121,-4355,5820
341,1780261169516,-393,-4242,7418
342,1780261171333,-1359,-3695,6460
343,1780261171500,-1656,-4521,6642
344,1780261171917,-858,-3311,6274
345,1780261172367,-832,-4068,6904
346,1780261172934,-743,-2354,7742
347,1780261173150,-878,-3246,9195
348,1780261174636,660,-2398,5696
349,1780261174800,18,-5540,7511
350,1780261175333,1091,-660,10666
351,1780261175533,1476,-4909,4386
352,1780261176482,380,-6839,4185
353,1780261176899,370,-12702,3630
354,1780261176949,-1041,-14489,4636
355,1780261177316,1043,-11875,2179
356,1780261177717,-1602,-9093,2960
357,1780261177816,-1441,-10196,2418
358,1780261178749,-645,-7307,4982
359,1780261178832,-1852,-7129,5388
360,1780261178966,-2078,-3400,3844
361,1780261179082,-2528,-10310,4638
362,1780261182216,-1283,-6256,7607
363,1780261182501,-968,-5070,6794
364,1780261182632,-1222,-5685,6526
365,1780261182916,-1643,-5250,6069
366,1780261183533,3562,0,1
367,1780261183833,-1929,-7313,3717
368,1780261185066,-1208,-7653,5075
369,1780261185101,-1651,-7280,5961
370,1780261186466,504,-6295,4504
371,1780261186549,-1164,-4979,5960
372,1780261186750,-641,-5498,5286
373,1780261188282,40,-9275,3162
374,1780261188448,881,-9693,5097
375,1780261188532,-730,-5308,4161
376,1780261189116,-1268,-9119,3347
377,1780261190465,57,2999,5516
378,1780261190598,2016,-6563,5300
379,1780261190682,1012,-11064,3317
380,1780261191415,3376,-6174,5650
381,1780261191466,2012,-5552,3941
382,1780261191749,-256,-8866,4799
383,1780261192248,276,-9874,1592
384,1780261192533,-221,-8541,3158
385,1780261192698,616,-9208,4964
386,1780261193065,-121,-8713,3173
387,1780261194298,-1282,-6420,4804
388,1780261194767,-1905,-5655,5584
389,1780261194998,-2390,-8526,3074
390,1780261195332,-1874,-7299,4412
391,1780261195617,-2091,-7186,5152
392,1780261195949,-2114,-7485,3764
393,1780261196499,-1409,-7515,5156
394,1780261197065,-130,-6458,7066
395,1780261198382,-535,-4240,16832
396,1780261198681,4165,-1006,9050
397,1780261199414,2309,-2878,9792
398,1780261200114,757,-5432,9680
399,1780261200331,-1268,-4332,5564
400,1780261200852,-815,-2797,5021
401,1780261203048,-412,-3327,11472
402,1780261203215,74,-1739,7852
403,1780261205848,2777,-2198,8758
404,1780261206264,2845,-3531,6525
405,1780261206299,1826,-3028,7176
406,1780261208331,2212,318,5694
407,1780261208614,4424,-5274,8340
408,1780261209147,1406,-3133,12424
409,1780261209815,-600,-1563,11444
410,1780261211015,2463,-406,10747
411,1780261213397,-54,-4974,7387
412,1780261213731,-2080,-7314,4876
413,1780261214180,-1400,-6719,5511
414,1780261214564,-1492,-6230,4341
415,1780261214964,-2487,-6815,3296
416,1780261215381,-2265,-9214,2956
417,1780261217447,-372,-7455,3180
418,1780261218097,-255,-5002,6220
419,1780261218314,1200,-5918,7962
420,1780261218597,-78,-7859,2981
421,1780261218880,-1602,-7554,4859
422,1780261219047,-2452,-11684,5270
423,1780261219631,-2449,-8048,3692
424,1780261220414,-1592,-11461,3720
425,1780261220997,-238,-9180,3128
426,1780261221147,2432,-9844,4182
427,1780261222430,1593,-8918,2830
428,1780261223380,-192,-7506,3688
429,1780261224130,-1280,-7680,4197
430,1780261224780,-344,-8270,5167
431,1780261226929,666,-5485,6743
432,1780261227748,6074,0,110
433,1780261228047,1008,-4994,7115
434,1780261228296,404,-5073,6840
435,1780261228413,416,-5080,6816
436,1780261229113,446,-5005,6674
437,1780261229979,-340,-4824,6787
438,1780261230029,-224,-4825,6882
439,1780261230398,-773,-4801,6885
440,1780261230480,-766,-4658,6835
441,1780261231963,-237,-4853,6756
442,1780261232212,-152,-4921,6783
443,1780261233414,-217,-4880,6811
444,1780261234146,-252,-4876,6842
445,1780261234813,-8,-4926,6756
446,1780261237362,-730,-4364,6991
447,1780261237696,-410,-4898,6413
448,1780261237812,-463,-5001,7189
449,1780261238229,72,-2788,7330
450,1780261238479,-623,-4177,6588
451,1780261239680,1911,-5275,6623
452,1780261240296,242,-4946,6518
453,1780261242113,-268,-4947,6758
454,1780261242596,-235,-4879,6717
455,1780261243096,-231,-4917,6709
456,1780261244463,-220,-4898,6730
457,1780261245112,-219,-4894,6724
458,1780261245612,-220,-4907,6749
459,1780261245895,-234,-4905,6733
460,1780261246062,-226,-4908,6731
461,1780261247879,-225,-4926,6727
462,1780261248629,-252,-4910,6742
463,1780261248698,-251,-4898,6734
464,1780261248745,-246,-4885,6752
465,1780261249112,-240,-4906,6748
466,1780261249362,-234,-4913,6730
467,1780261615442,-222,-4881,6734
468,1780261615442,-249,-4888,6739
469,1780261615442,-235,-4887,6731
470,1780261615442,-231,-4885,6737
471,1780261615442,-221,-4885,6734
472,1780261615458,-249,-4889,6746
473,1780261615458,-248,-4874,6727
474,1780261615458,-234,-4881,6737
475,1780261615458,-243,-4900,6759
476,1780261615458,-248,-4902,6738
477,1780261615458,-227,-4868,6732
478,1780261615458,-238,-4892,6741
479,1780261615458,-230,-4895,6740
480,1780261615541,-236,-4883,6725
481,1780261615592,-244,-4881,6743
482,1780261616574,-234,-4887,6742
483,1780261617191,-235,-4882,6734
484,1780261618177,-237,-4884,6744
485,1780261618259,-234,-4885,6740
486,1780261618841,-242,-4900,6718
487,1780261619175,-224,-4870,6739
488,1780261619458,-225,-4882,6738
489,1780261620407,6748,0,0
490,1780261620940,-222,-4891,6738
491,1780261621440,-251,-4887,6720
492,1780261621774,-224,-4864,6764
493,1780261621891,-223,-4858,6723
494,1780261622508,-199,-4880,6740
495,1780261623424,-248,-4861,6729
496,1780261623791,-238,-4871,6730
497,1780261623926,-230,-4882,6742
498,1780261624541,-224,-4888,6736
499,1780261624626,-236,-4875,6740
500,1780261624858,-233,-4870,6745
501,1780261625107,-215,-4901,6718
502,1780261625974,-230,-4870,6739
503,1780261626192,-225,-4888,6729
504,1780261626441,-210,-4883,6733
505,1780261627210,-200,-4882,6728
506,1780261627340,-248,-4886,6751
507,1780261627624,-241,-4887,6753
508,1780261627925,-233,-4877,6731
509,1780261628040,-229,-4890,6729
510,1780261628290,-231,-4888,6746
511,1780261628707,-237,-4886,6743
512,1780261629024,-223,-4894,6738
513,1780261630307,6745,0,0
514,1780261630891,-229,-4932,6728
515,1780261632490,-244,-4890,6731
516,1780261633824,-230,-4878,6737
517,1780261634390,-236,-4879,6749
518,1780261635173,-233,-4884,6739
519,1780261635557,-224,-4886,6739
520,1780261635590,-234,-4876,6730
521,1780261637773,-236,-4882,6740
522,1780261638057,-228,-4884,6728
523,1780261640373,-210,-4871,6732
524,1780261642389,-241,-4882,6742
525,1780261642772,-236,-4890,6731
526,1780261644341,-228,-4890,6733
527,1780261646356,-257,-4897,6752
528,1780261646556,-228,-4862,6741
529,1780261646941,-219,-4882,6734
530,1780261647007,-215,-4888,6718
531,1780261647422,-257,-4866,6763
532,1780261647923,-237,-4878,6739
533,1780261649441,-216,-4895,6742
534,1780261649523,-229,-4901,6742
535,1780261649739,-292,-4860,6752
536,1780261651223,-239,-4898,6766
537,1780261651723,-228,-4886,6734
538,1780261651923,-236,-4883,6745
539,1780261652173,-230,-4893,6742
540,1780261652423,-249,-4950,6880
541,1780261652956,-234,-4891,6768
542,1780261653122,-246,-4881,6741
543,1780261653572,-227,-4873,6729
544,1780261653855,-254,-4873,6746
545,1780261654639,-240,-4892,6749
546,1780261654857,-220,-4901,6750
547,1780261656039,-221,-4894,6759
548,1780261657373,-230,-4887,6749
549,1780261657655,-226,-4898,6742
550,1780261659105,-234,-4893,6740
551,1780261659674,-229,-4885,6746
552,1780261661122,-235,-4892,6742
553,1780261661238,-232,-4890,6741
554,1780261661322,-234,-4882,6728
555,1780261662240,-311,-4874,6748
556,1780261662272,-210,-4874,6739
557,1780261663805,-240,-4886,6760
558,1780261664172,-200,-4892,6750
559,1780261664589,-216,-4891,6713
560,1780261664673,-240,-4876,6749
561,1780261665623,-227,-4890,6741
562,1780261665905,-232,-4883,6738
563,1780261666239,-232,-4886,6745
564,1780261666522,-228,-4885,6739
565,1780261667271,-232,-4893,6736
566,1780261667805,-225,-4892,6740
567,1780261669239,-248,-4877,6736
568,1780261670155,-230,-4890,6743
569,1780261670605,-223,-4890,6744
570,1780261671221,-231,-4890,6736
571,1780261671971,-226,-4890,6732
572,1780261672338,-230,-4889,6736
573,1780261673038,-237,-4887,6747
574,1780261673089,-240,-4886,6738
575,1780261673705,-233,-4890,6728
576,1780261674438,-224,-4900,6742
577,1780261674905,-223,-4897,6746
578,1780261675271,-234,-4888,6737
579,1780261677321,-226,-4871,6747
580,1780261677454,-245,-4886,6768
581,1780261678237,-252,-4886,6731
582,1780261678771,-241,-4881,6756
583,1780261679155,-211,-4883,6737
584,1780261680587,-214,-4892,6741
585,1780261682737,-221,-4871,6731
586,1780261682987,-238,-4908,6772
587,1780261683238,-233,-4877,6775
588,1780261683638,-250,-4899,6780
589,1780261683770,-238,-4893,6724
590,1780261684053,-243,-4895,6743
591,1780261684137,-227,-4871,6742
592,1780261684387,-230,-4891,6748
593,1780261684588,-233,-4900,6738
594,1780261685004,-241,-4893,6744
595,1780261685337,-214,-4873,6731
596,1780261686204,-260,-4916,6756
597,1780261686404,-226,-4913,6754
598,1780261687404,-214,-4868,6752
599,1780261687721,-242,-4892,6736
600,1780261688504,-232,-4896,6736
601,1780261688754,-242,-4898,6746
602,1780261689371,-234,-4894,6746
603,1780261689755,-240,-4902,6738
604,1780261689870,-232,-4878,6734
605,1780261690120,-230,-4890,6735
606,1780261691237,-230,-4893,6740
607,1780261692187,-233,-4895,6740
608,1780261692754,-227,-4878,6743
609,1780261694169,-232,-4889,6741
610,1780261694871,-232,-4892,6742
611,1780261695570,-234,-4887,6741
612,1780261696020,6748,0,0
613,1780261696187,-276,-4904,6744
614,1780261696303,-262,-4904,6750
615,1780261697586,-240,-4895,6738
616,1780261697621,-232,-4887,6740
617,1780261697870,-239,-4892,6746
618,1780261698203,-253,-4895,6732
619,1780261698369,-257,-4886,6727
620,1780261698788,-218,-4890,6751
621,1780261699570,-244,-4892,6733
622,1780261700770,-228,-4894,6730
623,1780261700887,-222,-4889,6750
624,1780261701953,-215,-4884,6736
625,1780261703736,-234,-4889,6740
626,1780261704770,-234,-4882,6736
627,1780261705004,-229,-4884,6736
628,1780261705503,-237,-4883,6729
629,1780261706254,-256,-4868,6744
630,1780261706452,-238,-4882,6757
631,1780261706986,-234,-4878,6732
632,1780261708519,-208,-4868,6736
633,1780261708854,-222,-4887,6720
634,1780261709669,-224,-4866,6743
635,1780261710086,-240,-4891,6760
636,1780261711236,-246,-4906,6754
637,1780261711319,-236,-4882,6730
638,1780261711569,-221,-4883,6728
639,1780261711652,-242,-4897,6753
640,1780261711769,-215,-4884,6730
641,1780261712603,-227,-4890,6740
642,1780261713170,-234,-4888,6736
643,1780261713253,-250,-4896,6733
644,1780261713752,-247,-4893,6748
645,1780261714452,-226,-4891,6739
646,1780261714536,-229,-4882,6744
647,1780261715652,-248,-4894,6742
648,1780261716870,-241,-4913,6737
649,1780261718119,-212,-4901,6717
650,1780261718318,-234,-4862,6734
651,1780261719436,-222,-4882,6733
652,1780261719769,-244,-4896,6742
653,1780261720802,-249,-4908,6726
654,1780261721036,6759,0,0
655,1780261721252,-241,-4924,6749
656,1780261721919,-220,-4900,6732
657,1780261722351,-233,-4892,6744
658,1780261724535,-224,-4886,6727
659,1780261724803,-232,-4894,6739
660,1780261725368,-235,-4891,6738
661,1780261725568,-226,-4903,6758
662,1780261725784,-228,-4891,6739
663,1780261726485,-220,-4882,6748
664,1780261726568,-264,-4886,6750
665,1780261726851,-232,-4868,6745
666,1780261727101,-233,-4895,6719
667,1780261728052,-227,-4885,6732
668,1780261728135,-233,-4893,6732
669,1780261728167,-234,-4892,6755
670,1780261728418,-227,-4883,6729
671,1780261729168,-227,-4898,6756
672,1780261730118,-220,-4894,6736
673,1780261733502,-237,-4893,6738
674,1780261734285,-224,-4895,6752
675,1780261735235,-245,-4893,6732
676,1780261735968,-236,-4898,6750
677,1780261736885,-278,-4907,6761
678,1780261737000,-209,-4914,6754
679,1780261737451,-259,-4881,6767
680,1780261738067,-206,-4920,6773
681,1780261738767,-209,-4888,6712
682,1780261739350,-284,-4862,6804
683,1780261740468,-143,-4936,6701
684,1780261740501,-125,-4920,6721
685,1780261742734,-399,-4739,6830
686,1780261742768,-617,-4674,6953
687,1780261742934,-750,-4987,6814
688,1780261743800,-714,-4452,6873
689,1780261744550,-318,-4499,6874
690,1780261744583,-224,-4586,6774
691,1780261745835,-590,-4851,6720
692,1780261747234,-327,-4871,7374
693,1780261748434,-401,-4576,6555
694,1780261748718,-97,-5690,6486
695,1780261751433,-504,-4450,6548
696,1780261751884,-46,-4617,6401
697,1780261752668,85,-5440,6982
698,1780261752800,286,-5772,6117
699,1780261753166,211,-5323,5567
700,1780261753667,358,-5430,5962
701,1780261753783,256,-4838,5378
702,1780261754084,636,-5255,6189
703,1780261754483,-253,-6648,6537
704,1780261754899,214,-5298,6686
705,1780261755316,686,-4402,6104
706,1780261755350,-49,-6022,7140
707,1780261755433,499,-4744,6212
708,1780261755599,518,-5143,7620
709,1780261755733,290,-3827,7360
710,1780261755766,305,-4678,7167
711,1780261756267,1557,-3429,9669
712,1780261757134,952,-3572,7262
713,1780261757384,1568,-4446,7728
714,1780261758082,1490,-5506,6641
715,1780261758899,593,-4091,6940
716,1780261760299,-561,-4089,6765
717,1780261760668,-82,-4267,7683
718,1780261760767,20,-3912,5906
719,1780261760834,160,-4254,7293
720,1780261761534,-72,-4472,7197
721,1780261761833,684,-4546,6363
722,1780261762283,162,-4064,7436
723,1780261763066,-96,-4614,7365
724,1780261764299,-363,-5506,5990
725,1780261765783,84,-5564,6072
726,1780261766199,631,-5406,6605
727,1780261767199,-223,-5111,6623
728,1780261767848,-224,-5040,6816
729,1780261768349,-233,-5055,6574
730,1780261768433,-319,-4822,6684
731,1780261768516,-382,-5055,6671
732,1780261769535,-295,-4966,6630
733,1780261769800,-202,-4912,6701
734,1780261770282,-275,-5049,6659
735,1780261770449,3,-4946,6678
736,1780261771682,-238,-4988,6691
737,1780261772319,-293,-4809,6551
738,1780261772548,130,-5122,6846
739,1780261772599,-124,-4958,6580
740,1780261772716,-147,-4791,6664
741,1780261773000,-224,-4923,6719
742,1780261773465,-99,-5062,6654
743,1780261774166,-191,-5008,6691
744,1780261775115,83,-4656,6287
745,1780261775148,-11,-5134,6791
746,1780261775283,-68,-4772,6799
747,1780261776432,-160,-4925,6650
748,1780261777716,-82,-4834,6865
749,1780261778449,-142,-4870,6718
750,1780261778832,39,-4963,6812
751,1780261778949,15,-4902,6760
752,1780261780682,-159,-4622,6808
753,1780261780965,-495,-4712,6865
754,1780261781382,20,-4842,6606
755,1780261783398,-697,-5181,7265
756,1780261783600,-352,-4540,6894
757,1780261785048,-205,-5126,6959
758,1780261786215,-602,-4843,6644
759,1780261786983,-437,-4904,6697
760,1780261787365,64,-5104,6673
761,1780261787731,80,-4914,6580
762,1780261788181,-63,-5169,6534
763,1780261788265,-108,-4763,6667
764,1780261788633,-125,-5357,6509
765,1780261789831,-389,-5015,6386
766,1780261790615,-608,-5191,6703
767,1780261791815,-394,-5086,6644
768,1780261792316,-338,-5004,6666
769,1780261793431,-158,-5016,6645
770,1780261793664,-158,-5076,6594
771,1780261794164,-127,-5046,6635
772,1780261794215,-289,-5117,6636
773,1780261794665,-345,-5076,6646
774,1780261794781,-307,-5011,6644
775,1780261795814,-224,-4944,6607
776,1780261795949,-311,-4918,6698
777,1780261796031,-411,-5086,6631
778,1780261796231,-176,-4932,6643
779,1780261797265,-158,-5007,6590
780,1780261797714,-163,-5045,6586
781,1780261797881,-324,-5186,6576
782,1780261799364,-184,-5049,6675
783,1780261800731,-108,-5076,6692
784,1780261801831,-264,-5023,6702
785,1780261802130,-292,-5123,6668
786,1780261802330,-234,-5047,6610
787,1780261802864,-332,-5076,6692
788,1780261803166,-352,-5064,6494
789,1780261803813,-294,-5101,6637
790,1780261804981,-351,-5282,6508
791,1780261805348,-88,-5118,6620
792,1780261805598,-82,-5229,6634
793,1780261805915,-117,-5097,6485
794,1780261806533,-182,-5118,6576
795,1780261806830,-217,-5220,6516
796,1780261808147,-150,-5213,6446
797,1780261809147,58,-5247,6490
798,1780261809380,-371,-5239,6724
799,1780261809547,-191,-5071,6462
800,1780261809630,-226,-5250,6474
801,1780261809963,-177,-5150,6508
802,1780261809997,-298,-5189,6533
803,1780261810164,-217,-5078,6455
804,1780261810831,-161,-5124,6510
805,1780261813347,-245,-5154,6544
806,1780261813463,-230,-5103,6545
807,1780261813598,-232,-5139,6532
808,1780261814247,-234,-5142,6565
809,1780261814865,-253,-5145,6560
810,1780261817631,-230,-5152,6546
811,1780261818246,-248,-5149,6553
812,1780261818830,6537,0,0
813,1780261819731,-233,-5166,6554
814,1780261820930,-232,-5154,6549
815,1780261821513,-218,-5148,6537
816,1780261822330,-236,-5152,6568
817,1780261822799,-214,-5168,6496
818,1780261822866,-204,-5155,6557
819,1780261823263,-227,-5142,6560
820,1780261823348,-205,-5154,6546
821,1780261823546,-272,-5130,6523
822,1780261824547,-234,-5160,6588
823,1780261826230,-102,-5090,6509
824,1780261827263,-230,-5136,6538
825,1780261827346,6546,0,372
826,1780261828829,-275,-5108,6576
827,1780261830146,-148,-5024,6412
828,1780261830897,-501,-5185,6506
829,1780261831146,-625,-5569,6422
830,1780261831345,-279,-5307,6628
831,1780261831681,-178,-4820,6380
832,1780261833412,706,-4573,6507
833,1780261834111,-118,-4660,6515
834,1780261834347,-437,-5335,5724
835,1780261835062,-248,-5162,6543
836,1780261835629,-251,-5146,6548
837,1780261836545,-248,-5144,6528
838,1780261836596,-246,-5163,6550
839,1780261836962,-239,-5152,6548
840,1780261838079,-232,-5152,6538
841,1780261838728,-245,-5158,6547
842,1780261838979,-236,-4991,6592
843,1780261839263,-285,-5215,6597
844,1780261840762,-226,-5186,6606
845,1780261840795,-231,-5129,6565
846,1780261841429,-232,-5080,6790
847,1780261841545,-275,-5124,6336
848,1780261841712,-136,-5081,6670
849,1780261841995,-222,-5149,6556
850,1780261843645,-127,-5086,6448
851,1780261845178,-192,-5166,6552
852,1780261845794,-150,-5009,6867
853,1780261846162,-320,-5114,6563
854,1780261847979,-230,-5150,6549
855,1780261848361,-190,-5038,6518
856,1780261848645,-131,-5096,6377
857,1780261848978,-287,-5234,6442
858,1780261849228,-207,-5186,6526
859,1780261849311,-236,-5092,6624
860,1780261849511,-236,-5058,6594
861,1780261850322,-224,-5159,6523
862,1780261850594,-242,-5168,6544
863,1780261853595,-243,-5152,6546
864,1780261854011,-250,-5141,6533
865,1780261854544,-247,-5132,6543
866,1780261854761,-240,-5146,6542
867,1780261855461,-233,-5142,6541
868,1780261856578,-229,-5160,6550
869,1780261856811,-249,-5144,6550
870,1780261858877,-250,-5141,6558
871,1780261859011,-248,-5150,6541
872,1780261859210,-279,-5219,6422
873,1780261859328,-190,-5146,6605
874,1780261859494,-212,-5072,6614
875,1780261859910,-80,-5161,6709
876,1780261863011,-152,-5116,6612
877,1780261865110,-166,-5261,6524
878,1780261865726,-293,-5134,6546
879,1780261865844,-272,-5172,6544
880,1780261866343,-290,-5110,6565
881,1780261866677,-227,-5161,6553
882,1780261868277,-134,-5127,6588
883,1780261868359,-242,-5214,6563
884,1780261868443,-326,-5095,6691
885,1780261868895,-305,-5138,6706
886,1780261868977,-285,-5114,6562
887,1780261869361,-238,-5180,6516
888,1780261869393,-237,-5177,6540
889,1780261870760,-215,-5119,6562
890,1780261871659,-288,-5444,6448
891,1780261872126,-251,-5226,6613
892,1780261873693,-177,-5316,6479
893,1780261874843,-256,-5110,6552
894,1780261875593,-258,-5163,6610
895,1780261875660,-234,-5154,6405
896,1780261876827,-222,-5160,6490
897,1780261877360,-271,-4930,6626
898,1780261877642,-194,-5162,6559
899,1780261877976,-284,-5138,6680
900,1780261878177,-212,-5048,6452
901,1780261878343,-246,-5219,6368
902,1780261879543,-276,-5140,6623
903,1780261879959,-247,-5144,6549
904,1780261880210,-268,-5144,6573
905,1780261880743,-258,-5140,6546
906,1780261881726,-239,-5143,6521
907,1780261882177,-258,-5174,6568
908,1780261882310,-292,-5200,6526
909,1780261882476,-348,-5092,6539
910,1780261882509,-336,-5163,6554
911,1780261883292,-120,-5146,6354
912,1780261884076,-278,-5132,6633
913,1780261884126,-240,-5163,6491
914,1780261884992,-228,-5135,6528
915,1780261885977,-237,-5106,6586
916,1780261886093,-270,-5148,6542
917,1780261886559,-166,-5144,6588
918,1780261887376,-174,-5170,6532
919,1780261888326,-205,-5121,6603
920,1780261889525,-197,-5179,6599
921,1780261890842,-226,-5182,6535
922,1780261891709,-248,-5188,6477
923,1780261892125,-192,-5096,6628
924,1780261893359,-559,-4986,6578
925,1780261893892,-277,-5148,6522
926,1780261894141,-97,-5150,6551
927,1780261894475,-187,-5157,6574
928,1780261895426,-253,-5197,6482
929,1780261895910,-270,-5085,6558
930,1780261896242,-162,-5188,6522
931,1780261896541,-382,-5118,6612
932,1780261896627,-299,-5036,6535
933,1780261896709,-183,-5136,6598
934,1780261898058,-214,-5108,6532
935,1780261898642,-249,-5089,6529
936,1780261899425,-174,-5140,6498
937,1780261899747,-283,-5182,6594
938,1780261900208,-190,-5121,6612
939,1780261900626,-174,-5148,6540
940,1780261900942,-259,-5152,6942
941,1780261901358,-272,-5250,6519
942,1780261902359,111,-5292,6527
943,1780261903045,-33,-5045,6666
944,1780261906676,-236,-5130,6515
945,1780261906808,-189,-5206,6590
946,1780261907058,-228,-5148,6444
947,1780261907459,-186,-5110,6812
948,1780261908242,-264,-5214,6620
949,1780261909109,-228,-5206,6542
950,1780261909408,186,-5252,6281
951,1780261909441,-846,-4891,6857
952,1780261909775,363,-5188,5943
953,1780261911459,-228,-5110,6541
954,1780261912040,-241,-5084,6501
955,1780261912124,-248,-5077,6580
956,1780261912791,-195,-5154,6538
957,1780261913743,-256,-5122,6551
958,1780261914226,-228,-5147,6542
959,1780261915708,-238,-5144,6558
960,1780261916161,-214,-5122,6544
961,1780261916708,-240,-5254,6395
962,1780261916908,-225,-5185,6520
963,1780261916958,-75,-5088,6422
964,1780261917124,-212,-5151,6521
965,1780261917811,-185,-5100,6568
966,1780261920540,-217,-5159,6550
967,1780261921324,-233,-5162,6550
968,1780261921690,-302,-5152,6602
969,1780261921825,-123,-5142,6495
970,1780261922274,-266,-5153,6549
971,1780261924874,-200,-5116,6521
972,1780261925858,195,-5654,6624
973,1780261926158,-124,-5220,6451
974,1780261927057,-185,-5126,6548
975,1780261927340,-214,-5118,6580
976,1780261927923,-213,-5136,6552
977,1780261928741,-217,-5148,6551
978,1780261929457,-232,-5137,6554
979,1780261930074,-230,-5129,6558
980,1780261930557,-224,-5154,6552
981,1780261930607,-219,-5148,6559
982,1780261931507,-242,-5133,6562
983,1780261932340,-225,-5144,6588
984,1780261933290,-216,-5140,6533
985,1780261934073,-253,-5126,6558
986,1780261935108,-208,-5160,6562
987,1780261935224,-209,-5129,6485
988,1780261935640,-249,-5037,6455
989,1780261935959,-224,-5130,6559
990,1780261937240,-222,-5148,6574
991,1780261937906,-214,-5132,6535
992,1780261938023,-224,-5148,6554
993,1780261940990,-231,-5134,6556
994,1780261941457,-224,-5138,6553
995,1780261941625,-227,-5142,6553
996,1780261942392,-225,-5138,6556
997,1780261942773,-225,-5136,6567
998,1780261942940,6550,0,2
999,1780261943756,-226,-5140,6554
1000,1780261944457,-236,-5138,6560
1001,1780261944589,-222,-5144,6560
1002,1780261944622,-234,-5141,6557
1003,1780261945206,-230,-5138,6560
1004,1780261945457,-219,-5139,6564
1005,1780261945624,-231,-5139,6550
1006,1780261946072,-225,-5137,6546
1007,1780261946323,-224,-5132,6559
1008,1780261946439,-220,-5145,6555
1009,1780261946558,-229,-5144,6548
1010,1780261947974,-214,-5127,6563
1011,1780261948224,-228,-5158,6562
1012,1780261948590,-204,-5147,6571
1013,1780261951305,-230,-5114,6568
1014,1780261952139,-226,-5145,6540
1015,1780261953572,-194,-5164,6585
1016,1780261954772,-5794,-3362,8432
1017,1780261955188,-2232,-5072,6607
1018,1780261957205,976,-4585,5344
1019,1780261957406,1088,-5348,4316
1020,1780261959922,748,-7744,8175
1021,1780261960172,389,-7018,7249
1022,1780261963355,431,-5505,7175
1023,1780261963388,390,-5074,7496
1024,1780261963606,470,-5892,6270
1025,1780261963972,887,-5172,7262
1026,1780261964054,-492,-6317,6335
1027,1780261964421,65,-5926,6703
1028,1780261965988,540,-4831,6183
1029,1780261966238,412,-5236,6454
1030,1780261966572,579,-4838,7234
1031,1780261968221,514,-4653,6819
1032,1780261969038,376,-5072,6685
1033,1780261970238,-272,-5029,6618
1034,1780261970571,-89,-5045,6597
1035,1780261972504,-125,-5038,6645
1036,1780261972805,-123,-5034,6636
1037,1780261974071,-46,-5057,6576
1038,1780261974371,-171,-5018,6672
1039,1780261974687,-143,-5002,6636
1040,1780261974988,-168,-5016,6642
1041,1780261975188,-92,-5024,6612
1042,1780261975438,-96,-5046,6620
1043,1780261976754,-144,-5032,6626
1044,1780261978522,-226,-5064,6687
1045,1780261979020,-162,-5043,6647
1046,1780261979554,-103,-5023,6606
1047,1780261980471,-84,-5034,6633
1048,1780261981421,-116,-5056,6640
1049,1780261981504,-129,-5033,6624
1050,1780261982287,-82,-5040,6648
1051,1780261982524,-129,-4997,6633
1052,1780261983187,-104,-5068,6623
1053,1780261983237,-109,-5086,6585
1054,1780261984137,-71,-5029,6610
1055,1780262044800,-120,-5049,6616
1056,1780262045283,-124,-5023,6618
1057,1780262045700,-132,-5049,6648
1058,1780262046401,-128,-5031,6644
1059,1780262047034,-136,-5044,6652
1060,1780262047200,-138,-5055,6630
1061,1780262047233,-144,-5028,6618
1062,1780262048316,-128,-5050,6642
1063,1780262049716,-132,-5036,6624
1064,1780262050385,-134,-5044,6630
1065,1780262050867,-136,-5024,6599
1066,1780262051500,-126,-5007,6618
1067,1780262051866,-120,-5079,6612
1068,1780262052116,-127,-5050,6648
1069,1780262052650,-155,-5042,6652
1070,1780262053433,-133,-5032,6651
1071,1780262055183,-126,-5073,6644
1072,1780262056332,-106,-5043,6640
1073,1780262056616,-128,-5038,6629
1074,1780262056666,-110,-5042,6633
1075,1780262056832,-128,-5044,6631
1076,1780262057082,-118,-5045,6644
1077,1780262058599,-101,-5030,6640
1078,1780262058733,-133,-5028,6652
1079,1780262059217,-134,-5039,6641
1080,1780262059632,-124,-5040,6645
1081,1780262059966,-127,-5030,6638
1082,1780262060384,-140,-5044,6634
1083,1780262060749,-123,-5038,6637
1084,1780262062632,-121,-5040,6630
1085,1780262063332,-132,-5031,6633
1086,1780262063666,-130,-5040,6626
1087,1780262064166,-130,-5042,6648
1088,1780262064866,-125,-5036,6640
1089,1780262065532,-132,-5034,6633
1090,1780262065983,-126,-5042,6631
1091,1780262066065,-124,-5030,6630
1092,1780262067299,-122,-5042,6634
1093,1780262067382,-119,-5043,6637
1094,1780262068248,-123,-5041,6636
1095,1780262068333,-129,-5043,6643
1096,1780262069100,-130,-5034,6635
1097,1780262069133,-126,-5042,6638
1098,1780262069832,-132,-5035,6641
1099,1780262070565,6638,0,0
1100,1780262072365,-125,-5042,6645
1101,1780262072648,-131,-5036,6637
1102,1780262074001,-134,-5034,6626
1103,1780262074883,-123,-5037,6635
1104,1780262074965,-118,-5034,6632
1105,1780262075615,-128,-5036,6627
1106,1780262076198,-114,-5031,6628
1107,1780262076883,-119,-5040,6633
1108,1780262078198,-103,-5033,6617
1109,1780262080017,-112,-5022,6622
1110,1780262080665,-125,-5034,6642
1111,1780262082083,-65,-5063,6623
1112,1780262082981,-162,-5022,6608
1113,1780262083898,-135,-5038,6650
1114,1780262084881,-127,-5046,6636
1115,1780262085381,-40,-5159,6580
1116,1780262085748,-101,-5072,6582
1117,1780262087581,-714,-4989,6691
1118,1780262087847,-500,-5343,6940
1119,1780262088065,-679,-4652,6602
1120,1780262088648,-704,-4579,6643
1121,1780262089097,-377,-4947,6963
1122,1780262092080,1159,-4013,7355
1123,1780262092414,950,-3803,7419
1124,1780262093565,748,-5088,6962
1125,1780262094431,-167,-2508,7588
1126,1780262094513,534,-4232,7123
1127,1780262095163,343,-3829,7511
1128,1780262095331,602,-4019,8337
1129,1780262095764,-64,-4444,8576
1130,1780262096497,-693,-4958,9374
1131,1780262098647,676,-6208,7701
1132,1780262099430,-160,-4804,7308
1133,1780262099597,515,-3982,6877
1134,1780262100080,12,-4159,6994
1135,1780262100914,474,-5081,7667
1136,1780262102480,-364,-3733,6764
1137,1780262102680,-470,-5350,7720
1138,1780262103547,785,-2910,6342
1139,1780262104297,1146,-3744,7408
1140,1780262104798,398,-5198,6867
1141,1780262105530,120,-5777,6275
1142,1780262106032,-11,-4618,6121
1143,1780262107097,980,-3728,4700
1144,1780262107346,202,-5986,6328
1145,1780262108297,846,-4364,7423
1146,1780262108881,1107,-3543,8935
1147,1780262110097,800,-6807,6198
1148,1780262110564,512,-6279,4980
1149,1780262112579,-2182,-3244,7216
1150,1780262112697,501,-5981,5938
1151,1780262113612,-226,-5473,6584
1152,1780262114481,-172,-5604,6399
1153,1780262114731,342,-5427,5202
1154,1780262115963,-51,-4764,7594
1155,1780262116663,405,-5877,6087
1156,1780262119179,112,-6054,6609
1157,1780262119430,36,-5161,6346
1158,1780262120080,744,-5644,5919
1159,1780262120746,-106,-5337,6421
1160,1780262120863,-430,-5098,6511
1161,1780262121112,-198,-5105,6608
1162,1780262121412,0,-5113,6527
1163,1780262121647,58,-5145,6518
1164,1780262122478,-134,-5124,6532
1165,1780262123929,-281,-5223,6222
1166,1780262124330,-320,-5250,6571
1167,1780262126514,-274,-5065,6556
1168,1780262127146,-226,-5063,6573
1169,1780262128081,-220,-5177,6545
1170,1780262128212,-204,-5133,6538
1171,1780262128782,-221,-5130,6567
1172,1780262129246,-248,-5162,6547
1173,1780262129978,-216,-5194,6523
1174,1780262130196,-239,-5144,6567
1175,1780262131011,-202,-5126,6558
1176,1780262132545,-232,-5156,6558
1177,1780262132661,-242,-5146,6530
1178,1780262135312,-170,-5162,6538
1179,1780262136011,-98,-5210,6526
1180,1780262136261,44,-5055,6538
1181,1780262138063,-298,-5468,6147
1182,1780262138146,-158,-5152,6208
1183,1780262138611,29,-5152,6342
1184,1780262138729,-354,-5419,6725
1185,1780262138861,-234,-5095,6520
1186,1780262139230,-432,-4666,6600
1187,1780262139728,-363,-5086,6414
1188,1780262139961,-499,-5081,6710
1189,1780262140744,-359,-5223,6656
1190,1780262141127,-263,-5165,6694
1191,1780262142478,-66,-5321,6491
1192,1780262143095,-50,-5263,6333
1193,1780262143262,6481,0,0
1194,1780262143345,-157,-5270,6734
1195,1780262144261,-247,-5283,6629
1196,1780262145495,-133,-5456,6591
1197,1780262145610,27,-5158,6438
1198,1780262146028,8,-5248,6504
1199,1780262147229,382,-5463,6681
1200,1780262147511,216,-4837,6349
1201,1780262147760,-72,-6290,5878
1202,1780262148178,-407,-5031,7338
1203,1780262148261,-97,-5147,6037
1204,1780262148745,-266,-4557,6250
1205,1780262149377,-279,-4921,6534
1206,1780262150945,-33,-5205,6509
1207,1780262152011,-14,-5186,6562
1208,1780262152210,50,-5090,6454
1209,1780262152744,34,-5201,6462
1210,1780262152828,106,-5112,6435
1211,1780262153077,76,-5073,6568
1212,1780262153160,36,-5335,6481
1213,1780262153328,-37,-5414,6468
1214,1780262154330,624,-5279,6372
1215,1780262154561,217,-5305,6369
1216,1780262155977,-242,-4909,6161
1217,1780262156961,-111,-5279,6574
1218,1780262157744,-174,-5153,6473
1219,1780262158977,46,-4922,6221
1220,1780262159345,-336,-5116,6697
1221,1780262159729,-184,-4862,6101
1222,1780262159927,-256,-4989,7118
1223,1780262160294,-408,-4532,6638
1224,1780262160961,-190,-4970,6489
1225,1780262161044,-197,-4846,6659
1226,1780262161628,-657,-4912,6644
1227,1780262162110,-354,-4971,6482
1228,1780262162360,-235,-5051,6608
1229,1780262162526,-134,-5129,6611
1230,1780262162693,-334,-4978,6497
1231,1780262163676,-344,-4980,6747
1232,1780262163760,-288,-5149,6533
1233,1780262163926,-274,-5291,6656
1234,1780262164176,-414,-5181,6672
1235,1780262164961,-422,-5254,6624
1236,1780262165126,-496,-4928,6778
1237,1780262165211,-547,-5194,6670
1238,1780262165543,-361,-4976,6566
1239,1780262166109,-128,-5213,6506
1240,1780262166576,-139,-5048,6904
1241,1780262167027,-5,-5041,6740
1242,1780262167594,-32,-5074,6426
1243,1780262168228,-251,-4943,7036
1244,1780262169409,91,-4853,6647
1245,1780262171226,18,-5155,6490
1246,1780262171393,-484,-4998,6702
1247,1780262171476,-165,-5102,6563
1248,1780262173095,-314,-5122,6589
1249,1780262173544,-153,-5278,6962
1250,1780262174277,-469,-5292,6414
1251,1780262174860,-369,-4769,6756
1252,1780262175276,-498,-5022,6627
1253,1780262176059,-280,-5080,6693
1254,1780262176342,-230,-4942,6456
1255,1780262176592,-259,-5152,6273
1256,1780262177826,-208,-5114,6572
1257,1780262178126,-42,-4955,6748
1258,1780262179513,-1138,-4937,7102
1259,1780262179893,-343,-5096,6853
1260,1780262180343,-127,-5022,6598
1261,1780262180959,-192,-5075,6584
1262,1780262181376,-223,-5078,6610
1263,1780262181459,-224,-5081,6594
1264,1780262181825,-214,-5072,6602
1265,1780262182776,-211,-5083,6629
1266,1780262183142,-204,-5058,6567
1267,1780262183942,-223,-5108,6599
1268,1780262184059,-233,-5083,6621
1269,1780262184342,-213,-5086,6619
1270,1780262186125,-226,-5072,6611
1271,1780262186911,-209,-5077,6605
1272,1780262187392,-232,-5078,6610
1273,1780262189992,-230,-5059,6613
1274,1780262190458,-236,-5071,6576
1275,1780262190691,-230,-5106,6597
1276,1780262190909,-240,-5028,6586
1277,1780262191191,-237,-5122,6650
1278,1780262192591,-210,-5119,6603
1279,1780262282069,-210,-5085,6614
1280,1780262282069,-214,-5077,6596
1281,1780262282337,-3010,-4710,7626
1282,1780262282503,-2240,-4995,7482
1283,1780262283904,-529,-3640,7370
1284,1780262284236,-1796,-6040,6568
1285,1780262286386,-1711,-4933,6222
0,1780260955995,42,-5166,6479
1,1780260956412,211,-4732,4892
2,1780260956662,-734,-6028,6341
3,1780260957645,379,-5233,6114
4,1780260959745,-418,-5008,7136
5,1780260959996,44,-5275,6682
6,1780260960279,-201,-3485,6026
7,1780260961396,-822,-6592,5244
8,1780260961930,-424,-5644,5346
9,1780260962761,-92,-5600,7492
10,1780260963911,-324,-5299,7398
11,1780260964079,254,-5159,7514
12,1780260964746,-413,-5263,5732
13,1780260965146,764,-5820,7072
14,1780260965395,30,-5800,6705
15,1780260967746,-2296,-12167,4144
16,1780260969644,-1266,-7018,4315
17,1780260970311,-1799,-6010,3778
18,1780260970428,-1462,-8293,6250
19,1780260970678,-1224,-8517,5936
20,1780260971794,1515,-2778,9173
21,1780260972661,1468,-3277,8910
22,1780260972827,-125,-2150,8294
23,1780260973028,1974,-3753,8616
24,1780260973161,2459,-227,9248
25,1780260973861,261,-4136,8754
26,1780260974311,822,-3929,7878
27,1780260976044,-1143,-5461,10932
28,1780260976120,1475,-4227,6026
29,1780260976295,534,-6556,8467
30,1780260978111,5673,1867,7456
31,1780260978311,4141,-2767,10806
32,1780260979461,1388,-4321,8920
33,1780260980529,1139,-3903,8446
34,1780260981412,1015,-3796,6183
35,1780260981561,1287,-4217,6173
36,1780260981861,1062,-5456,6584
37,1780260981977,983,-5412,6081
38,1780260982227,1613,-4664,6087
39,1780260982427,1082,-5238,6710
40,1780260983960,-1371,-4494,7549
41,1780260984627,-1284,-4430,7552
42,1780260984827,-1467,-3410,6898
43,1780260985110,-1452,-5360,7713
44,1780260985410,-418,-3432,6780
45,1780260985727,-702,-5508,7401
46,1780260986110,115,-3511,5650
47,1780260986143,-44,-6268,5958
48,1780260986427,-154,-4722,8940
49,1780260986927,94,-5630,7552
50,1780260987343,-555,-4645,8327
51,1780260987512,38,-5680,6909
52,1780260987878,6216,0,0
53,1780260988410,427,-4589,7672
54,1780260988577,311,-3536,6229
55,1780260988627,-510,-5016,8394
56,1780260989811,61,-6168,5828
57,1780260990227,1030,-4256,9782
58,1780260990510,632,-2958,12413
59,1780260991260,3677,-1316,10796
60,1780260991844,1271,-460,10699
61,1780260992326,2026,1596,9371
62,1780260992459,1115,-190,9357
63,1780260993042,-51,-2193,12143
64,1780260993327,897,-2357,8247
65,1780260993893,136,-2112,6168
66,1780260994926,-2139,-5696,8108
67,1780260994977,-136,-5456,6528
68,1780260996744,-56,-11691,3302
69,1780260997076,1245,-13357,2261
70,1780260998143,-1203,-9491,2170
71,1780260998361,112,-10418,2159
72,1780260998760,672,-6880,5004
73,1780261000742,-238,-5258,5264
74,1780261001043,-516,-5160,6801
75,1780261001577,-965,-2300,7334
76,1780261002392,-713,-6496,6916
77,1780261003143,-412,-3238,6883
78,1780261003477,-192,-5032,7873
79,1780261003759,-614,-5926,7258
80,1780261005043,277,-4793,6120
81,1780261005443,-291,-4344,4902
82,1780261005577,-948,-6172,5859
83,1780261005743,-136,-6532,5897
84,1780261007509,320,-3712,6596
85,1780261008492,-788,-6168,6041
86,1780261009692,-548,-4989,6550
87,1780261010809,-920,-8070,7069
88,1780261011092,166,-6694,6253
89,1780261011627,-236,-5038,5923
90,1780261014192,230,-4378,6730
91,1780261015226,961,-4236,7419
92,1780261015560,-40,-3769,5873
93,1780261016175,-180,-5921,5582
94,1780261016710,-530,-8234,5071
95,1780261017443,818,-6908,5000
96,1780261017742,226,-6829,5485
97,1780261017942,-66,-6398,5031
98,1780261018808,983,-5037,5389
99,1780261019710,-126,-5861,6104
100,1780261021492,589,-2467,7735
101,1780261022891,-51,-4320,6750
102,1780261023092,-60,-4786,7974
103,1780261023341,910,-4892,6480
104,1780261024291,151,-5695,6672
105,1780261024458,137,-5854,7894
106,1780261026243,3141,-1965,8670
107,1780261026443,2700,-3092,8623
108,1780261026558,2450,-2963,8137
109,1780261026692,3440,-3516,9411
110,1780261026859,2338,-1232,9085
111,1780261026941,2622,-2264,8296
112,1780261027259,3026,-4392,9235
113,1780261027425,1816,-1816,8072
114,1780261027758,1913,-2688,9439
115,1780261028208,1761,-1387,6308
116,1780261028543,-636,-6832,8615
117,1780261028842,550,-5028,6264
118,1780261029041,654,-1700,6821
119,1780261029858,-66,-6282,8495
120,1780261030325,287,-4406,6820
121,1780261031307,-218,-5319,6749
122,1780261031758,200,-5255,7324
123,1780261032425,-162,-5330,7009
124,1780261032541,54,-4264,6416
125,1780261032874,-1032,-6553,7384
126,1780261034393,118,-4468,6034
127,1780261035058,-1111,-6184,5636
128,1780261035507,-351,-5014,6216
129,1780261035591,-125,-5205,6982
130,1780261036457,272,-5502,5568
131,1780261036591,45,-5172,7181
132,1780261036758,-447,-5416,6480
133,1780261037124,-85,-7504,5917
134,1780261037541,162,-5021,6261
135,1780261038274,-530,-7205,6081
136,1780261039891,534,-5196,5626
137,1780261040541,215,-3374,6456
138,1780261041407,6670,0,0
139,1780261042607,-159,-4945,4687
140,1780261042857,-81,-7142,6126
141,1780261043024,-936,-5502,5732
142,1780261043357,-2080,-6418,6257
143,1780261043890,1537,-5020,5869
144,1780261044340,-1116,-7086,5584
145,1780261045123,-337,-8530,4567
146,1780261045490,176,-5562,4861
147,1780261046607,-175,-6160,6994
148,1780261048225,2853,-36,8169
149,1780261048390,2912,-180,10848
150,1780261048674,1746,-565,11679
151,1780261048757,5020,-4359,10212
152,1780261049573,1696,-4687,9730
153,1780261049790,1240,-3826,6986
154,1780261050573,2177,-2109,9327
155,1780261050774,2298,220,6998
156,1780261051923,-1916,-5299,4378
157,1780261052256,-1502,-7052,4365
158,1780261052340,-2039,-11072,11462
159,1780261053657,32,-2926,3606
160,1780261054406,-2765,-8188,6848
161,1780261054856,1090,-5863,7462
162,1780261055556,-147,-5356,5772
163,1780261055924,8915,0,0
164,1780261058406,-150,-4245,7040
165,1780261058823,143,-3260,7283
166,1780261060172,842,-3862,6911
167,1780261060390,-44,-5355,6018
168,1780261061006,-866,-6262,5480
169,1780261062109,88,-3931,5827
170,1780261064957,-44,-7252,5628
171,1780261065340,391,-4848,6925
172,1780261066072,629,-4897,6254
173,1780261066156,1508,-4394,7716
174,1780261066489,1691,-2810,6955
175,1780261066656,932,-4448,8078
176,1780261067356,158,-3880,7730
177,1780261068222,1270,-3992,6345
178,1780261069955,-188,-4019,5194
179,1780261070072,-1366,-5663,9284
180,1780261070239,-456,-9136,5246
181,1780261072672,69,-6122,6041
182,1780261074039,-329,-6858,6901
183,1780261074239,-1766,-8253,8320
184,1780261074855,-710,-4311,5710
185,1780261074905,-303,-7069,5319
186,1780261075323,1026,-4278,7552
187,1780261075772,-824,-5276,6434
188,1780261076638,-148,-5823,4009
189,1780261077872,-464,-6207,3512
190,1780261078072,-433,-8854,3412
191,1780261081055,-1307,-5802,5160
192,1780261082372,-623,-2772,7043
193,1780261082821,-425,-5560,6010
194,1780261083105,1190,-3986,6891
195,1780261083271,957,-3928,7732
196,1780261083605,1047,-3090,8944
197,1780261084104,2342,206,10628
198,1780261084505,1456,628,9706
199,1780261085455,-954,94,11426
200,1780261086371,1433,-3575,7599
201,1780261086538,2511,-3016,13141
202,1780261086939,572,-3164,6136
203,1780261087688,2515,-2273,6966
204,1780261088189,383,-1696,8911
205,1780261089421,404,-3462,4859
206,1780261089504,5007,-3291,10387
207,1780261089672,3104,-6867,6885
208,1780261090322,-80,-4532,8851
209,1780261091405,4664,-1704,8292
210,1780261091488,3002,-2170,9159
211,1780261091723,3540,-1362,9776
212,1780261092303,1586,-900,6270
213,1780261092388,1822,-2710,8680
214,1780261095404,1513,-5222,6129
215,1780261095438,981,-5100,6333
216,1780261096355,-1190,-4951,7145
217,1780261096838,-1851,-3553,6869
218,1780261098704,-647,-5300,6810
219,1780261099520,-1140,-4660,6248
220,1780261100187,-146,-4458,6098
221,1780261100887,-356,-3895,7122
222,1780261101420,14,-4078,7306
223,1780261101587,-820,-4486,5448
224,1780261101953,-1734,-9443,4179
225,1780261102037,-1532,-7792,4198
226,1780261102287,-1850,-10014,4572
227,1780261102871,-1410,-4995,5884
228,1780261103438,-991,-7126,3507
229,1780261103988,-1192,-9533,5716
230,1780261104271,-1524,-7344,7634
231,1780261104938,-33,-5150,5540
232,1780261105004,-257,-4604,5711
233,1780261105253,-688,-7229,5728
234,1780261105871,9783,0,-1
235,1780261106537,280,-4748,6901
236,1780261107273,-642,-10426,4567
237,1780261108020,-3026,-9306,1747
238,1780261108270,-1825,-6535,4234
239,1780261108970,-353,-5186,3851
240,1780261109021,-2068,-5218,4252
241,1780261109503,10387,130,1404
242,1780261109639,-3544,0,0
243,1780261110737,6470,-21564,5564
244,1780261111486,-101,-2002,2546
245,1780261111819,-228,-11874,4662
246,1780261113186,-1216,-8858,4372
247,1780261114336,-1132,-6687,3687
248,1780261114786,-180,-3466,8665
249,1780261115153,-64,-3446,8168
250,1780261115369,-1106,-3472,5500
251,1780261115653,1099,-1160,11514
252,1780261116153,200,-1511,9104
253,1780261116769,1689,-2952,9506
254,1780261117187,1897,-332,6948
255,1780261118286,-1290,-6426,6580
256,1780261118669,150,-3287,7776
257,1780261119536,1092,-2474,10158
258,1780261120355,-311,-3185,9821
259,1780261120638,1534,-1854,9061
260,1780261120803,19,-2859,8702
261,1780261121026,1406,-4417,7282
262,1780261121803,-557,-4331,6666
263,1780261122086,334,-1867,7464
264,1780261122336,2352,-3502,7052
265,1780261122619,2807,-4627,7074
266,1780261122786,2127,-3393,6896
267,1780261123236,3741,-6810,8889
268,1780261123402,3136,-4992,1960
269,1780261123735,965,-6496,8420
270,1780261124568,5298,-1370,5733
271,1780261124969,1900,-2399,10309
272,1780261125103,5829,-4568,5516
273,1780261125386,4358,-2156,13534
274,1780261125503,1847,541,8783
275,1780261127569,1059,-5300,6804
276,1780261127902,723,-3150,5304
277,1780261128518,678,-2728,7968
278,1780261129018,1064,-4537,6597
279,1780261129135,655,-3210,8717
280,1780261130302,-505,-5702,7103
281,1780261132485,153,-6520,5192
282,1780261133219,-892,-6202,4333
283,1780261133352,-490,-8248,3620
284,1780261133519,122,-8952,4859
285,1780261135536,3,-6029,4658
286,1780261136435,3626,-2104,8943
287,1780261137052,1967,-3434,9911
288,1780261137435,2033,-1620,8526
289,1780261139035,365,-7433,4100
290,1780261139168,-346,-3830,4735
291,1780261139818,-1094,-9130,4008
292,1780261140768,-274,-7306,5334
293,1780261140935,-288,-4587,5539
294,1780261141752,76,-5362,5904
295,1780261143252,-1847,-6845,6164
296,1780261143368,-854,-5384,6500
297,1780261144236,-672,-5466,7022
298,1780261144318,566,-5234,7912
299,1780261145101,-135,-6941,4302
300,1780261146417,2404,2322,191
301,1780261146951,2482,260,7593
302,1780261147118,901,-4017,9533
303,1780261147618,159,-7552,4419
304,1780261147652,-2599,-12185,3814
305,1780261148117,-906,-10946,902
306,1780261150384,614,-5980,5634
307,1780261150551,1040,-6901,4717
308,1780261155501,-186,-4754,6733
309,1780261155785,-157,-4921,6894
310,1780261156436,80,-4894,6628
311,1780261156518,106,-4973,6754
312,1780261158418,-1108,-5372,6219
313,1780261158802,-749,-4570,6651
314,1780261160533,-1032,-3978,7663
315,1780261160734,-1374,-5365,6972
316,1780261161068,-1527,-3744,6951
317,1780261161468,-1833,-5413,6080
318,1780261161851,-1583,-3941,5666
319,1780261161967,-1384,-6034,6736
320,1780261162551,-1064,-4660,6288
321,1780261163000,-411,-3418,7754
322,1780261163117,1326,-1952,6765
323,1780261163200,-428,-2380,9258
324,1780261163750,1396,-3662,7637
325,1780261163867,1071,-3262,8468
326,1780261164650,1897,-1606,7666
327,1780261164734,1546,-1623,8601
328,1780261164983,1126,-3032,7778
329,1780261165235,835,-2816,7147
330,1780261165434,993,-2478,9130
331,1780261165551,1296,-3810,7194
332,1780261165767,863,-3131,7635
333,1780261166133,848,-5260,8053
334,1780261166550,734,-8370,3174
335,1780261166667,225,-8018,4195
336,1780261167584,-201,-7498,5384
337,1780261167617,1094,-7102,4776
338,1780261167984,428,-5238,7264
339,1780261168734,880,-4005,7159
340,1780261169067,121,-4355,5820
341,1780261169516,-393,-4242,7418
342,1780261171333,-1359,-3695,6460
343,1780261171500,-1656,-4521,6642
344,1780261171917,-858,-3311,6274
345,1780261172367,-832,-4068,6904
346,1780261172934,-743,-2354,7742
347,1780261173150,-878,-3246,9195
348,1780261174636,660,-2398,5696
349,1780261174800,18,-5540,7511
350,1780261175333,1091,-660,10666
351,1780261175533,1476,-4909,4386
352,1780261176482,380,-6839,4185
353,1780261176899,370,-12702,3630
354,1780261176949,-1041,-14489,4636
355,1780261177316,1043,-11875,2179
356,1780261177717,-1602,-9093,2960
357,1780261177816,-1441,-10196,2418
358,1780261178749,-645,-7307,4982
359,1780261178832,-1852,-7129,5388
360,1780261178966,-2078,-3400,3844
361,1780261179082,-2528,-10310,4638
362,1780261182216,-1283,-6256,7607
363,1780261182501,-968,-5070,6794
364,1780261182632,-1222,-5685,6526
365,1780261182916,-1643,-5250,6069
366,1780261183533,3562,0,1
367,1780261183833,-1929,-7313,3717
368,1780261185066,-1208,-7653,5075
369,1780261185101,-1651,-7280,5961
370,1780261186466,504,-6295,4504
371,1780261186549,-1164,-4979,5960
372,1780261186750,-641,-5498,5286
373,1780261188282,40,-9275,3162
374,1780261188448,881,-9693,5097
375,1780261188532,-730,-5308,4161
376,1780261189116,-1268,-9119,3347
377,1780261190465,57,2999,5516
378,1780261190598,2016,-6563,5300
379,1780261190682,1012,-11064,3317
380,1780261191415,3376,-6174,5650
381,1780261191466,2012,-5552,3941
382,1780261191749,-256,-8866,4799
383,1780261192248,276,-9874,1592
384,1780261192533,-221,-8541,3158
385,1780261192698,616,-9208,4964
386,1780261193065,-121,-8713,3173
387,1780261194298,-1282,-6420,4804
388,1780261194767,-1905,-5655,5584
389,1780261194998,-2390,-8526,3074
390,1780261195332,-1874,-7299,4412
391,1780261195617,-2091,-7186,5152
392,1780261195949,-2114,-7485,3764
393,1780261196499,-1409,-7515,5156
394,1780261197065,-130,-6458,7066
395,1780261198382,-535,-4240,16832
396,1780261198681,4165,-1006,9050
397,1780261199414,2309,-2878,9792
398,1780261200114,757,-5432,9680
399,1780261200331,-1268,-4332,5564
400,1780261200852,-815,-2797,5021
401,1780261203048,-412,-3327,11472
402,1780261203215,74,-1739,7852
403,1780261205848,2777,-2198,8758
404,1780261206264,2845,-3531,6525
405,1780261206299,1826,-3028,7176
406,1780261208331,2212,318,5694
407,1780261208614,4424,-5274,8340
408,1780261209147,1406,-3133,12424
409,1780261209815,-600,-1563,11444
410,1780261211015,2463,-406,10747
411,1780261213397,-54,-4974,7387
412,1780261213731,-2080,-7314,4876
413,1780261214180,-1400,-6719,5511
414,1780261214564,-1492,-6230,4341
415,1780261214964,-2487,-6815,3296
416,1780261215381,-2265,-9214,2956
417,1780261217447,-372,-7455,3180
418,1780261218097,-255,-5002,6220
419,1780261218314,1200,-5918,7962
420,1780261218597,-78,-7859,2981
421,1780261218880,-1602,-7554,4859
422,1780261219047,-2452,-11684,5270
423,1780261219631,-2449,-8048,3692
424,1780261220414,-1592,-11461,3720
425,1780261220997,-238,-9180,3128
426,1780261221147,2432,-9844,4182
427,1780261222430,1593,-8918,2830
428,1780261223380,-192,-7506,3688
429,1780261224130,-1280,-7680,4197
430,1780261224780,-344,-8270,5167
431,1780261226929,666,-5485,6743
432,1780261227748,6074,0,110
433,1780261228047,1008,-4994,7115
434,1780261228296,404,-5073,6840
435,1780261228413,416,-5080,6816
436,1780261229113,446,-5005,6674
437,1780261229979,-340,-4824,6787
438,1780261230029,-224,-4825,6882
439,1780261230398,-773,-4801,6885
440,1780261230480,-766,-4658,6835
441,1780261231963,-237,-4853,6756
442,1780261232212,-152,-4921,6783
443,1780261233414,-217,-4880,6811
444,1780261234146,-252,-4876,6842
445,1780261234813,-8,-4926,6756
446,1780261237362,-730,-4364,6991
447,1780261237696,-410,-4898,6413
448,1780261237812,-463,-5001,7189
449,1780261238229,72,-2788,7330
450,1780261238479,-623,-4177,6588
451,1780261239680,1911,-5275,6623
452,1780261240296,242,-4946,6518
453,1780261242113,-268,-4947,6758
454,1780261242596,-235,-4879,6717
455,1780261243096,-231,-4917,6709
456,1780261244463,-220,-4898,6730
457,1780261245112,-219,-4894,6724
458,1780261245612,-220,-4907,6749
459,1780261245895,-234,-4905,6733
460,1780261246062,-226,-4908,6731
461,1780261247879,-225,-4926,6727
462,1780261248629,-252,-4910,6742
463,1780261248698,-251,-4898,6734
464,1780261248745,-246,-4885,6752
465,1780261249112,-240,-4906,6748
466,1780261249362,-234,-4913,6730
0,1780260955995,42,-5166,6479
1,1780260956412,211,-4732,4892
2,1780260956662,-734,-6028,6341
3,1780260957645,379,-5233,6114
4,1780260959745,-418,-5008,7136
5,1780260959996,44,-5275,6682
6,1780260960279,-201,-3485,6026
7,1780260961396,-822,-6592,5244
8,1780260961930,-424,-5644,5346
9,1780260962761,-92,-5600,7492
10,1780260963911,-324,-5299,7398
11,1780260964079,254,-5159,7514
12,1780260964746,-413,-5263,5732
13,1780260965146,764,-5820,7072
14,1780260965395,30,-5800,6705
15,1780260967746,-2296,-12167,4144
16,1780260969644,-1266,-7018,4315
17,1780260970311,-1799,-6010,3778
18,1780260970428,-1462,-8293,6250
19,1780260970678,-1224,-8517,5936
20,1780260971794,1515,-2778,9173
21,1780260972661,1468,-3277,8910
22,1780260972827,-125,-2150,8294
23,1780260973028,1974,-3753,8616
24,1780260973161,2459,-227,9248
25,1780260973861,261,-4136,8754
26,1780260974311,822,-3929,7878
27,1780260976044,-1143,-5461,10932
28,1780260976120,1475,-4227,6026
29,1780260976295,534,-6556,8467
30,1780260978111,5673,1867,7456
31,1780260978311,4141,-2767,10806
32,1780260979461,1388,-4321,8920
33,1780260980529,1139,-3903,8446
34,1780260981412,1015,-3796,6183
35,1780260981561,1287,-4217,6173
36,1780260981861,1062,-5456,6584
37,1780260981977,983,-5412,6081
38,1780260982227,1613,-4664,6087
39,1780260982427,1082,-5238,6710
40,1780260983960,-1371,-4494,7549
41,1780260984627,-1284,-4430,7552
42,1780260984827,-1467,-3410,6898
43,1780260985110,-1452,-5360,7713
44,1780260985410,-418,-3432,6780
45,1780260985727,-702,-5508,7401
46,1780260986110,115,-3511,5650
47,1780260986143,-44,-6268,5958
48,1780260986427,-154,-4722,8940
49,1780260986927,94,-5630,7552
50,1780260987343,-555,-4645,8327
51,1780260987512,38,-5680,6909
52,1780260987878,6216,0,0
53,1780260988410,427,-4589,7672
54,1780260988577,311,-3536,6229
55,1780260988627,-510,-5016,8394
56,1780260989811,61,-6168,5828
57,1780260990227,1030,-4256,9782
58,1780260990510,632,-2958,12413
59,1780260991260,3677,-1316,10796
60,1780260991844,1271,-460,10699
61,1780260992326,2026,1596,9371
62,1780260992459,1115,-190,9357
63,1780260993042,-51,-2193,12143
64,1780260993327,897,-2357,8247
65,1780260993893,136,-2112,6168
66,1780260994926,-2139,-5696,8108
67,1780260994977,-136,-5456,6528
68,1780260996744,-56,-11691,3302
69,1780260997076,1245,-13357,2261
70,1780260998143,-1203,-9491,2170
71,1780260998361,112,-10418,2159
72,1780260998760,672,-6880,5004
73,1780261000742,-238,-5258,5264
74,1780261001043,-516,-5160,6801
75,1780261001577,-965,-2300,7334
76,1780261002392,-713,-6496,6916
77,1780261003143,-412,-3238,6883
78,1780261003477,-192,-5032,7873
79,1780261003759,-614,-5926,7258
80,1780261005043,277,-4793,6120
81,1780261005443,-291,-4344,4902
82,1780261005577,-948,-6172,5859
83,1780261005743,-136,-6532,5897
84,1780261007509,320,-3712,6596
85,1780261008492,-788,-6168,6041
86,1780261009692,-548,-4989,6550
87,1780261010809,-920,-8070,7069
88,1780261011092,166,-6694,6253
89,1780261011627,-236,-5038,5923
90,1780261014192,230,-4378,6730
91,1780261015226,961,-4236,7419
92,1780261015560,-40,-3769,5873
93,1780261016175,-180,-5921,5582
94,1780261016710,-530,-8234,5071
95,1780261017443,818,-6908,5000
96,1780261017742,226,-6829,5485
97,1780261017942,-66,-6398,5031
98,1780261018808,983,-5037,5389
99,1780261019710,-126,-5861,6104
100,1780261021492,589,-2467,7735
101,1780261022891,-51,-4320,6750
102,1780261023092,-60,-4786,7974
103,1780261023341,910,-4892,6480
104,1780261024291,151,-5695,6672
105,1780261024458,137,-5854,7894
106,1780261026243,3141,-1965,8670
107,1780261026443,2700,-3092,8623
108,1780261026558,2450,-2963,8137
109,1780261026692,3440,-3516,9411
110,1780261026859,2338,-1232,9085
111,1780261026941,2622,-2264,8296
112,1780261027259,3026,-4392,9235
113,1780261027425,1816,-1816,8072
114,1780261027758,1913,-2688,9439
115,1780261028208,1761,-1387,6308
116,1780261028543,-636,-6832,8615
117,1780261028842,550,-5028,6264
118,1780261029041,654,-1700,6821
119,1780261029858,-66,-6282,8495
120,1780261030325,287,-4406,6820
121,1780261031307,-218,-5319,6749
122,1780261031758,200,-5255,7324
123,1780261032425,-162,-5330,7009
124,1780261032541,54,-4264,6416
125,1780261032874,-1032,-6553,7384
126,1780261034393,118,-4468,6034
127,1780261035058,-1111,-6184,5636
128,1780261035507,-351,-5014,6216
129,1780261035591,-125,-5205,6982
130,1780261036457,272,-5502,5568
131,1780261036591,45,-5172,7181
132,1780261036758,-447,-5416,6480
133,1780261037124,-85,-7504,5917
134,1780261037541,162,-5021,6261
135,1780261038274,-530,-7205,6081
136,1780261039891,534,-5196,5626
137,1780261040541,215,-3374,6456
138,1780261041407,6670,0,0
139,1780261042607,-159,-4945,4687
140,1780261042857,-81,-7142,6126
141,1780261043024,-936,-5502,5732
142,1780261043357,-2080,-6418,6257
143,1780261043890,1537,-5020,5869
144,1780261044340,-1116,-7086,5584
145,1780261045123,-337,-8530,4567
146,1780261045490,176,-5562,4861
147,1780261046607,-175,-6160,6994
148,1780261048225,2853,-36,8169
149,1780261048390,2912,-180,10848
150,1780261048674,1746,-565,11679
151,1780261048757,5020,-4359,10212
152,1780261049573,1696,-4687,9730
153,1780261049790,1240,-3826,6986
154,1780261050573,2177,-2109,9327
155,1780261050774,2298,220,6998
156,1780261051923,-1916,-5299,4378
157,1780261052256,-1502,-7052,4365
158,1780261052340,-2039,-11072,11462
159,1780261053657,32,-2926,3606
160,1780261054406,-2765,-8188,6848
161,1780261054856,1090,-5863,7462
162,1780261055556,-147,-5356,5772
163,1780261055924,8915,0,0
164,1780261058406,-150,-4245,7040
165,1780261058823,143,-3260,7283
166,1780261060172,842,-3862,6911
167,1780261060390,-44,-5355,6018
168,1780261061006,-866,-6262,5480
169,1780261062109,88,-3931,5827
170,1780261064957,-44,-7252,5628
171,1780261065340,391,-4848,6925
172,1780261066072,629,-4897,6254
173,1780261066156,1508,-4394,7716
174,1780261066489,1691,-2810,6955
175,1780261066656,932,-4448,8078
176,1780261067356,158,-3880,7730
177,1780261068222,1270,-3992,6345
178,1780261069955,-188,-4019,5194
179,1780261070072,-1366,-5663,9284
180,1780261070239,-456,-9136,5246
181,1780261072672,69,-6122,6041
182,1780261074039,-329,-6858,6901
183,1780261074239,-1766,-8253,8320
184,1780261074855,-710,-4311,5710
185,1780261074905,-303,-7069,5319
186,1780261075323,1026,-4278,7552
187,1780261075772,-824,-5276,6434
188,1780261076638,-148,-5823,4009
189,1780261077872,-464,-6207,3512
190,1780261078072,-433,-8854,3412
191,1780261081055,-1307,-5802,5160
192,1780261082372,-623,-2772,7043
193,1780261082821,-425,-5560,6010
194,1780261083105,1190,-3986,6891
195,1780261083271,957,-3928,7732
196,1780261083605,1047,-3090,8944
197,1780261084104,2342,206,10628
198,1780261084505,1456,628,9706
199,1780261085455,-954,94,11426
200,1780261086371,1433,-3575,7599
201,1780261086538,2511,-3016,13141
202,1780261086939,572,-3164,6136
203,1780261087688,2515,-2273,6966
204,1780261088189,383,-1696,8911
205,1780261089421,404,-3462,4859
206,1780261089504,5007,-3291,10387
207,1780261089672,3104,-6867,6885
208,1780261090322,-80,-4532,8851
209,1780261091405,4664,-1704,8292
210,1780261091488,3002,-2170,9159
211,1780261091723,3540,-1362,9776
212,1780261092303,1586,-900,6270
213,1780261092388,1822,-2710,8680
214,1780261095404,1513,-5222,6129
215,1780261095438,981,-5100,6333
216,1780261096355,-1190,-4951,7145
217,1780261096838,-1851,-3553,6869
218,1780261098704,-647,-5300,6810
219,1780261099520,-1140,-4660,6248
220,1780261100187,-146,-4458,6098
221,1780261100887,-356,-3895,7122
222,1780261101420,14,-4078,7306
223,1780261101587,-820,-4486,5448
224,1780261101953,-1734,-9443,4179
225,1780261102037,-1532,-7792,4198
226,1780261102287,-1850,-10014,4572
227,1780261102871,-1410,-4995,5884
228,1780261103438,-991,-7126,3507
229,1780261103988,-1192,-9533,5716
230,1780261104271,-1524,-7344,7634
231,1780261104938,-33,-5150,5540
232,1780261105004,-257,-4604,5711
233,1780261105253,-688,-7229,5728
234,1780261105871,9783,0,-1
235,1780261106537,280,-4748,6901
236,1780261107273,-642,-10426,4567
237,1780261108020,-3026,-9306,1747
238,1780261108270,-1825,-6535,4234
239,1780261108970,-353,-5186,3851
240,1780261109021,-2068,-5218,4252
241,1780261109503,10387,130,1404
242,1780261109639,-3544,0,0
243,1780261110737,6470,-21564,5564
244,1780261111486,-101,-2002,2546
245,1780261111819,-228,-11874,4662
246,1780261113186,-1216,-8858,4372
247,1780261114336,-1132,-6687,3687
248,1780261114786,-180,-3466,8665
249,1780261115153,-64,-3446,8168
250,1780261115369,-1106,-3472,5500
251,1780261115653,1099,-1160,11514
252,1780261116153,200,-1511,9104
253,1780261116769,1689,-2952,9506
254,1780261117187,1897,-332,6948
255,1780261118286,-1290,-6426,6580
256,1780261118669,150,-3287,7776
257,1780261119536,1092,-2474,10158
258,1780261120355,-311,-3185,9821
259,1780261120638,1534,-1854,9061
260,1780261120803,19,-2859,8702
261,1780261121026,1406,-4417,7282
262,1780261121803,-557,-4331,6666
263,1780261122086,334,-1867,7464
264,1780261122336,2352,-3502,7052
265,1780261122619,2807,-4627,7074
266,1780261122786,2127,-3393,6896
267,1780261123236,3741,-6810,8889
268,1780261123402,3136,-4992,1960
269,1780261123735,965,-6496,8420
270,1780261124568,5298,-1370,5733
271,1780261124969,1900,-2399,10309
272,1780261125103,5829,-4568,5516
273,1780261125386,4358,-2156,13534
274,1780261125503,1847,541,8783
275,1780261127569,1059,-5300,6804
276,1780261127902,723,-3150,5304
277,1780261128518,678,-2728,7968
278,1780261129018,1064,-4537,6597
279,1780261129135,655,-3210,8717
280,1780261130302,-505,-5702,7103
281,1780261132485,153,-6520,5192
282,1780261133219,-892,-6202,4333
283,1780261133352,-490,-8248,3620
284,1780261133519,122,-8952,4859
285,1780261135536,3,-6029,4658
286,1780261136435,3626,-2104,8943
287,1780261137052,1967,-3434,9911
288,1780261137435,2033,-1620,8526
289,1780261139035,365,-7433,4100
290,1780261139168,-346,-3830,4735
291,1780261139818,-1094,-9130,4008
292,1780261140768,-274,-7306,5334
293,1780261140935,-288,-4587,5539
294,1780261141752,76,-5362,5904
295,1780261143252,-1847,-6845,6164
296,1780261143368,-854,-5384,6500
297,1780261144236,-672,-5466,7022
298,1780261144318,566,-5234,7912
299,1780261145101,-135,-6941,4302
300,1780261146417,2404,2322,191
301,1780261146951,2482,260,7593
302,1780261147118,901,-4017,9533
303,1780261147618,159,-7552,4419
304,1780261147652,-2599,-12185,3814
305,1780261148117,-906,-10946,902
306,1780261150384,614,-5980,5634
307,1780261150551,1040,-6901,4717
308,1780261155501,-186,-4754,6733
309,1780261155785,-157,-4921,6894
310,1780261156436,80,-4894,6628
311,1780261156518,106,-4973,6754
312,1780261158418,-1108,-5372,6219
313,1780261158802,-749,-4570,6651
314,1780261160533,-1032,-3978,7663
315,1780261160734,-1374,-5365,6972
316,1780261161068,-1527,-3744,6951
317,1780261161468,-1833,-5413,6080
318,1780261161851,-1583,-3941,5666
319,1780261161967,-1384,-6034,6736
320,1780261162551,-1064,-4660,6288
321,1780261163000,-411,-3418,7754
322,1780261163117,1326,-1952,6765
323,1780261163200,-428,-2380,9258
324,1780261163750,1396,-3662,7637
325,1780261163867,1071,-3262,8468
326,1780261164650,1897,-1606,7666
327,1780261164734,1546,-1623,8601
328,1780261164983,1126,-3032,7778
329,1780261165235,835,-2816,7147
330,1780261165434,993,-2478,9130
331,1780261165551,1296,-3810,7194
332,1780261165767,863,-3131,7635
333,1780261166133,848,-5260,8053
334,1780261166550,734,-8370,3174
335,1780261166667,225,-8018,4195
336,1780261167584,-201,-7498,5384
337,1780261167617,1094,-7102,4776
338,1780261167984,428,-5238,7264
339,1780261168734,880,-4005,7159
340,1780261169067,121,-4355,5820
341,1780261169516,-393,-4242,7418
342,1780261171333,-1359,-3695,6460
343,1780261171500,-1656,-4521,6642
344,1780261171917,-858,-3311,6274
345,1780261172367,-832,-4068,6904
346,1780261172934,-743,-2354,7742
347,1780261173150,-878,-3246,9195
348,1780261174636,660,-2398,5696
349,1780261174800,18,-5540,7511
350,1780261175333,1091,-660,10666
351,1780261175533,1476,-4909,4386
352,1780261176482,380,-6839,4185
353,1780261176899,370,-12702,3630
354,1780261176949,-1041,-14489,4636
355,1780261177316,1043,-11875,2179
356,1780261177717,-1602,-9093,2960
357,1780261177816,-1441,-10196,2418
358,1780261178749,-645,-7307,4982
359,1780261178832,-1852,-7129,5388
360,1780261178966,-2078,-3400,3844
361,1780261179082,-2528,-10310,4638
362,1780261182216,-1283,-6256,7607
363,1780261182501,-968,-5070,6794
364,1780261182632,-1222,-5685,6526
365,1780261182916,-1643,-5250,6069
366,1780261183533,3562,0,1
367,1780261183833,-1929,-7313,3717
368,1780261185066,-1208,-7653,5075
369,1780261185101,-1651,-7280,5961
370,1780261186466,504,-6295,4504
371,1780261186549,-1164,-4979,5960
372,1780261186750,-641,-5498,5286
373,1780261188282,40,-9275,3162
374,1780261188448,881,-9693,5097
375,1780261188532,-730,-5308,4161
376,1780261189116,-1268,-9119,3347
377,1780261190465,57,2999,5516
378,1780261190598,2016,-6563,5300
379,1780261190682,1012,-11064,3317
380,1780261191415,3376,-6174,5650
381,1780261191466,2012,-5552,3941
382,1780261191749,-256,-8866,4799
383,1780261192248,276,-9874,1592
384,1780261192533,-221,-8541,3158
385,1780261192698,616,-9208,4964
386,1780261193065,-121,-8713,3173
387,1780261194298,-1282,-6420,4804
388,1780261194767,-1905,-5655,5584
389,1780261194998,-2390,-8526,3074
390,1780261195332,-1874,-7299,4412
391,1780261195617,-2091,-7186,5152
392,1780261195949,-2114,-7485,3764
393,1780261196499,-1409,-7515,5156
394,1780261197065,-130,-6458,7066
395,1780261198382,-535,-4240,16832
396,1780261198681,4165,-1006,9050
397,1780261199414,2309,-2878,9792
398,1780261200114,757,-5432,9680
399,1780261200331,-1268,-4332,5564
400,1780261200852,-815,-2797,5021
401,1780261203048,-412,-3327,11472
402,1780261203215,74,-1739,7852
403,1780261205848,2777,-2198,8758
404,1780261206264,2845,-3531,6525
405,1780261206299,1826,-3028,7176
406,1780261208331,2212,318,5694
407,1780261208614,4424,-5274,8340
408,1780261209147,1406,-3133,12424
409,1780261209815,-600,-1563,11444
410,1780261211015,2463,-406,10747
411,1780261213397,-54,-4974,7387
412,1780261213731,-2080,-7314,4876
413,1780261214180,-1400,-6719,5511
414,1780261214564,-1492,-6230,4341
415,1780261214964,-2487,-6815,3296
416,1780261215381,-2265,-9214,2956
417,1780261217447,-372,-7455,3180
418,1780261218097,-255,-5002,6220
419,1780261218314,1200,-5918,7962
420,1780261218597,-78,-7859,2981
421,1780261218880,-1602,-7554,4859
422,1780261219047,-2452,-11684,5270
423,1780261219631,-2449,-8048,3692
424,1780261220414,-1592,-11461,3720
425,1780261220997,-238,-9180,3128
426,1780261221147,2432,-9844,4182
427,1780261222430,1593,-8918,2830
428,1780261223380,-192,-7506,3688
429,1780261224130,-1280,-7680,4197
430,1780261224780,-344,-8270,5167
431,1780261226929,666,-5485,6743
432,1780261227748,6074,0,110
433,1780261228047,1008,-4994,7115
434,1780261228296,404,-5073,6840
435,1780261228413,416,-5080,6816
436,1780261229113,446,-5005,6674
437,1780261229979,-340,-4824,6787
438,1780261230029,-224,-4825,6882
439,1780261230398,-773,-4801,6885
440,1780261230480,-766,-4658,6835
441,1780261231963,-237,-4853,6756
442,1780261232212,-152,-4921,6783
443,1780261233414,-217,-4880,6811
444,1780261234146,-252,-4876,6842
445,1780261234813,-8,-4926,6756
446,1780261237362,-730,-4364,6991
447,1780261237696,-410,-4898,6413
448,1780261237812,-463,-5001,7189
449,1780261238229,72,-2788,7330
450,1780261238479,-623,-4177,6588
451,1780261239680,1911,-5275,6623
452,1780261240296,242,-4946,6518
453,1780261242113,-268,-4947,6758
454,1780261242596,-235,-4879,6717
455,1780261243096,-231,-4917,6709
456,1780261244463,-220,-4898,6730
457,1780261245112,-219,-4894,6724
458,1780261245612,-220,-4907,6749
459,1780261245895,-234,-4905,6733
460,1780261246062,-226,-4908,6731
461,1780261247879,-225,-4926,6727
462,1780261248629,-252,-4910,6742
463,1780261248698,-251,-4898,6734
464,1780261248745,-246,-4885,6752
465,1780261249112,-240,-4906,6748
466,1780261249362,-234,-4913,6730
467,1780261615442,-222,-4881,6734
468,1780261615442,-249,-4888,6739
469,1780261615442,-235,-4887,6731
470,1780261615442,-231,-4885,6737
471,1780261615442,-221,-4885,6734
472,1780261615458,-249,-4889,6746
473,1780261615458,-248,-4874,6727
474,1780261615458,-234,-4881,6737
475,1780261615458,-243,-4900,6759
476,1780261615458,-248,-4902,6738
477,1780261615458,-227,-4868,6732
478,1780261615458,-238,-4892,6741
479,1780261615458,-230,-4895,6740
480,1780261615541,-236,-4883,6725
481,1780261615592,-244,-4881,6743
482,1780261616574,-234,-4887,6742
483,1780261617191,-235,-4882,6734
484,1780261618177,-237,-4884,6744
485,1780261618259,-234,-4885,6740
486,1780261618841,-242,-4900,6718
487,1780261619175,-224,-4870,6739
488,1780261619458,-225,-4882,6738
489,1780261620407,6748,0,0
490,1780261620940,-222,-4891,6738
491,1780261621440,-251,-4887,6720
492,1780261621774,-224,-4864,6764
493,1780261621891,-223,-4858,6723
494,1780261622508,-199,-4880,6740
495,1780261623424,-248,-4861,6729
496,1780261623791,-238,-4871,6730
497,1780261623926,-230,-4882,6742
498,1780261624541,-224,-4888,6736
499,1780261624626,-236,-4875,6740
500,1780261624858,-233,-4870,6745
501,1780261625107,-215,-4901,6718
502,1780261625974,-230,-4870,6739
503,1780261626192,-225,-4888,6729
504,1780261626441,-210,-4883,6733
505,1780261627210,-200,-4882,6728
506,1780261627340,-248,-4886,6751
507,1780261627624,-241,-4887,6753
508,1780261627925,-233,-4877,6731
509,1780261628040,-229,-4890,6729
510,1780261628290,-231,-4888,6746
511,1780261628707,-237,-4886,6743
512,1780261629024,-223,-4894,6738
513,1780261630307,6745,0,0
514,1780261630891,-229,-4932,6728
515,1780261632490,-244,-4890,6731
516,1780261633824,-230,-4878,6737
517,1780261634390,-236,-4879,6749
518,1780261635173,-233,-4884,6739
519,1780261635557,-224,-4886,6739
520,1780261635590,-234,-4876,6730
521,1780261637773,-236,-4882,6740
522,1780261638057,-228,-4884,6728
523,1780261640373,-210,-4871,6732
524,1780261642389,-241,-4882,6742
525,1780261642772,-236,-4890,6731
526,1780261644341,-228,-4890,6733
527,1780261646356,-257,-4897,6752
528,1780261646556,-228,-4862,6741
529,1780261646941,-219,-4882,6734
530,1780261647007,-215,-4888,6718
531,1780261647422,-257,-4866,6763
532,1780261647923,-237,-4878,6739
533,1780261649441,-216,-4895,6742
534,1780261649523,-229,-4901,6742
535,1780261649739,-292,-4860,6752
536,1780261651223,-239,-4898,6766
537,1780261651723,-228,-4886,6734
538,1780261651923,-236,-4883,6745
539,1780261652173,-230,-4893,6742
540,1780261652423,-249,-4950,6880
541,1780261652956,-234,-4891,6768
542,1780261653122,-246,-4881,6741
543,1780261653572,-227,-4873,6729
544,1780261653855,-254,-4873,6746
545,1780261654639,-240,-4892,6749
546,1780261654857,-220,-4901,6750
547,1780261656039,-221,-4894,6759
548,1780261657373,-230,-4887,6749
549,1780261657655,-226,-4898,6742
550,1780261659105,-234,-4893,6740
551,1780261659674,-229,-4885,6746
552,1780261661122,-235,-4892,6742
553,1780261661238,-232,-4890,6741
554,1780261661322,-234,-4882,6728
555,1780261662240,-311,-4874,6748
556,1780261662272,-210,-4874,6739
557,1780261663805,-240,-4886,6760
558,1780261664172,-200,-4892,6750
559,1780261664589,-216,-4891,6713
560,1780261664673,-240,-4876,6749
561,1780261665623,-227,-4890,6741
562,1780261665905,-232,-4883,6738
563,1780261666239,-232,-4886,6745
564,1780261666522,-228,-4885,6739
565,1780261667271,-232,-4893,6736
566,1780261667805,-225,-4892,6740
567,1780261669239,-248,-4877,6736
568,1780261670155,-230,-4890,6743
569,1780261670605,-223,-4890,6744
570,1780261671221,-231,-4890,6736
571,1780261671971,-226,-4890,6732
572,1780261672338,-230,-4889,6736
573,1780261673038,-237,-4887,6747
574,1780261673089,-240,-4886,6738
575,1780261673705,-233,-4890,6728
576,1780261674438,-224,-4900,6742
577,1780261674905,-223,-4897,6746
578,1780261675271,-234,-4888,6737
579,1780261677321,-226,-4871,6747
580,1780261677454,-245,-4886,6768
581,1780261678237,-252,-4886,6731
582,1780261678771,-241,-4881,6756
583,1780261679155,-211,-4883,6737
584,1780261680587,-214,-4892,6741
585,1780261682737,-221,-4871,6731
586,1780261682987,-238,-4908,6772
587,1780261683238,-233,-4877,6775
588,1780261683638,-250,-4899,6780
589,1780261683770,-238,-4893,6724
590,1780261684053,-243,-4895,6743
591,1780261684137,-227,-4871,6742
592,1780261684387,-230,-4891,6748
593,1780261684588,-233,-4900,6738
594,1780261685004,-241,-4893,6744
595,1780261685337,-214,-4873,6731
596,1780261686204,-260,-4916,6756
597,1780261686404,-226,-4913,6754
598,1780261687404,-214,-4868,6752
599,1780261687721,-242,-4892,6736
600,1780261688504,-232,-4896,6736
601,1780261688754,-242,-4898,6746
602,1780261689371,-234,-4894,6746
603,1780261689755,-240,-4902,6738
604,1780261689870,-232,-4878,6734
605,1780261690120,-230,-4890,6735
606,1780261691237,-230,-4893,6740
607,1780261692187,-233,-4895,6740
608,1780261692754,-227,-4878,6743
609,1780261694169,-232,-4889,6741
610,1780261694871,-232,-4892,6742
611,1780261695570,-234,-4887,6741
612,1780261696020,6748,0,0
613,1780261696187,-276,-4904,6744
614,1780261696303,-262,-4904,6750
615,1780261697586,-240,-4895,6738
616,1780261697621,-232,-4887,6740
617,1780261697870,-239,-4892,6746
618,1780261698203,-253,-4895,6732
619,1780261698369,-257,-4886,6727
620,1780261698788,-218,-4890,6751
621,1780261699570,-244,-4892,6733
622,1780261700770,-228,-4894,6730
623,1780261700887,-222,-4889,6750
624,1780261701953,-215,-4884,6736
625,1780261703736,-234,-4889,6740
626,1780261704770,-234,-4882,6736
627,1780261705004,-229,-4884,6736
628,1780261705503,-237,-4883,6729
629,1780261706254,-256,-4868,6744
630,1780261706452,-238,-4882,6757
631,1780261706986,-234,-4878,6732
632,1780261708519,-208,-4868,6736
633,1780261708854,-222,-4887,6720
634,1780261709669,-224,-4866,6743
635,1780261710086,-240,-4891,6760
636,1780261711236,-246,-4906,6754
637,1780261711319,-236,-4882,6730
638,1780261711569,-221,-4883,6728
639,1780261711652,-242,-4897,6753
640,1780261711769,-215,-4884,6730
641,1780261712603,-227,-4890,6740
642,1780261713170,-234,-4888,6736
643,1780261713253,-250,-4896,6733
644,1780261713752,-247,-4893,6748
645,1780261714452,-226,-4891,6739
646,1780261714536,-229,-4882,6744
647,1780261715652,-248,-4894,6742
648,1780261716870,-241,-4913,6737
649,1780261718119,-212,-4901,6717
650,1780261718318,-234,-4862,6734
651,1780261719436,-222,-4882,6733
652,1780261719769,-244,-4896,6742
653,1780261720802,-249,-4908,6726
654,1780261721036,6759,0,0
655,1780261721252,-241,-4924,6749
656,1780261721919,-220,-4900,6732
657,1780261722351,-233,-4892,6744
658,1780261724535,-224,-4886,6727
659,1780261724803,-232,-4894,6739
660,1780261725368,-235,-4891,6738
661,1780261725568,-226,-4903,6758
662,1780261725784,-228,-4891,6739
663,1780261726485,-220,-4882,6748
664,1780261726568,-264,-4886,6750
665,1780261726851,-232,-4868,6745
666,1780261727101,-233,-4895,6719
667,1780261728052,-227,-4885,6732
668,1780261728135,-233,-4893,6732
669,1780261728167,-234,-4892,6755
670,1780261728418,-227,-4883,6729
671,1780261729168,-227,-4898,6756
672,1780261730118,-220,-4894,6736
673,1780261733502,-237,-4893,6738
674,1780261734285,-224,-4895,6752
675,1780261735235,-245,-4893,6732
676,1780261735968,-236,-4898,6750
677,1780261736885,-278,-4907,6761
678,1780261737000,-209,-4914,6754
679,1780261737451,-259,-4881,6767
680,1780261738067,-206,-4920,6773
681,1780261738767,-209,-4888,6712
682,1780261739350,-284,-4862,6804
683,1780261740468,-143,-4936,6701
684,1780261740501,-125,-4920,6721
685,1780261742734,-399,-4739,6830
686,1780261742768,-617,-4674,6953
687,1780261742934,-750,-4987,6814
688,1780261743800,-714,-4452,6873
689,1780261744550,-318,-4499,6874
690,1780261744583,-224,-4586,6774
691,1780261745835,-590,-4851,6720
692,1780261747234,-327,-4871,7374
693,1780261748434,-401,-4576,6555
694,1780261748718,-97,-5690,6486
695,1780261751433,-504,-4450,6548
696,1780261751884,-46,-4617,6401
697,1780261752668,85,-5440,6982
698,1780261752800,286,-5772,6117
699,1780261753166,211,-5323,5567
700,1780261753667,358,-5430,5962
701,1780261753783,256,-4838,5378
702,1780261754084,636,-5255,6189
703,1780261754483,-253,-6648,6537
704,1780261754899,214,-5298,6686
705,1780261755316,686,-4402,6104
706,1780261755350,-49,-6022,7140
707,1780261755433,499,-4744,6212
708,1780261755599,518,-5143,7620
709,1780261755733,290,-3827,7360
710,1780261755766,305,-4678,7167
711,1780261756267,1557,-3429,9669
712,1780261757134,952,-3572,7262
713,1780261757384,1568,-4446,7728
714,1780261758082,1490,-5506,6641
715,1780261758899,593,-4091,6940
716,1780261760299,-561,-4089,6765
717,1780261760668,-82,-4267,7683
718,1780261760767,20,-3912,5906
719,1780261760834,160,-4254,7293
720,1780261761534,-72,-4472,7197
721,1780261761833,684,-4546,6363
722,1780261762283,162,-4064,7436
723,1780261763066,-96,-4614,7365
724,1780261764299,-363,-5506,5990
725,1780261765783,84,-5564,6072
726,1780261766199,631,-5406,6605
727,1780261767199,-223,-5111,6623
728,1780261767848,-224,-5040,6816
729,1780261768349,-233,-5055,6574
730,1780261768433,-319,-4822,6684
731,1780261768516,-382,-5055,6671
732,1780261769535,-295,-4966,6630
733,1780261769800,-202,-4912,6701
734,1780261770282,-275,-5049,6659
735,1780261770449,3,-4946,6678
736,1780261771682,-238,-4988,6691
737,1780261772319,-293,-4809,6551
738,1780261772548,130,-5122,6846
739,1780261772599,-124,-4958,6580
740,1780261772716,-147,-4791,6664
741,1780261773000,-224,-4923,6719
742,1780261773465,-99,-5062,6654
743,1780261774166,-191,-5008,6691
744,1780261775115,83,-4656,6287
745,1780261775148,-11,-5134,6791
746,1780261775283,-68,-4772,6799
747,1780261776432,-160,-4925,6650
748,1780261777716,-82,-4834,6865
749,1780261778449,-142,-4870,6718
750,1780261778832,39,-4963,6812
751,1780261778949,15,-4902,6760
752,1780261780682,-159,-4622,6808
753,1780261780965,-495,-4712,6865
754,1780261781382,20,-4842,6606
755,1780261783398,-697,-5181,7265
756,1780261783600,-352,-4540,6894
757,1780261785048,-205,-5126,6959
758,1780261786215,-602,-4843,6644
759,1780261786983,-437,-4904,6697
760,1780261787365,64,-5104,6673
761,1780261787731,80,-4914,6580
762,1780261788181,-63,-5169,6534
763,1780261788265,-108,-4763,6667
764,1780261788633,-125,-5357,6509
765,1780261789831,-389,-5015,6386
766,1780261790615,-608,-5191,6703
767,1780261791815,-394,-5086,6644
768,1780261792316,-338,-5004,6666
769,1780261793431,-158,-5016,6645
770,1780261793664,-158,-5076,6594
771,1780261794164,-127,-5046,6635
772,1780261794215,-289,-5117,6636
773,1780261794665,-345,-5076,6646
774,1780261794781,-307,-5011,6644
775,1780261795814,-224,-4944,6607
776,1780261795949,-311,-4918,6698
777,1780261796031,-411,-5086,6631
778,1780261796231,-176,-4932,6643
779,1780261797265,-158,-5007,6590
780,1780261797714,-163,-5045,6586
781,1780261797881,-324,-5186,6576
782,1780261799364,-184,-5049,6675
783,1780261800731,-108,-5076,6692
784,1780261801831,-264,-5023,6702
785,1780261802130,-292,-5123,6668
786,1780261802330,-234,-5047,6610
787,1780261802864,-332,-5076,6692
788,1780261803166,-352,-5064,6494
789,1780261803813,-294,-5101,6637
790,1780261804981,-351,-5282,6508
791,1780261805348,-88,-5118,6620
792,1780261805598,-82,-5229,6634
793,1780261805915,-117,-5097,6485
794,1780261806533,-182,-5118,6576
795,1780261806830,-217,-5220,6516
796,1780261808147,-150,-5213,6446
797,1780261809147,58,-5247,6490
798,1780261809380,-371,-5239,6724
799,1780261809547,-191,-5071,6462
800,1780261809630,-226,-5250,6474
801,1780261809963,-177,-5150,6508
802,1780261809997,-298,-5189,6533
803,1780261810164,-217,-5078,6455
804,1780261810831,-161,-5124,6510
805,1780261813347,-245,-5154,6544
806,1780261813463,-230,-5103,6545
807,1780261813598,-232,-5139,6532
808,1780261814247,-234,-5142,6565
809,1780261814865,-253,-5145,6560
810,1780261817631,-230,-5152,6546
811,1780261818246,-248,-5149,6553
812,1780261818830,6537,0,0
813,1780261819731,-233,-5166,6554
814,1780261820930,-232,-5154,6549
815,1780261821513,-218,-5148,6537
816,1780261822330,-236,-5152,6568
817,1780261822799,-214,-5168,6496
818,1780261822866,-204,-5155,6557
819,1780261823263,-227,-5142,6560
820,1780261823348,-205,-5154,6546
821,1780261823546,-272,-5130,6523
822,1780261824547,-234,-5160,6588
823,1780261826230,-102,-5090,6509
824,1780261827263,-230,-5136,6538
825,1780261827346,6546,0,372
826,1780261828829,-275,-5108,6576
827,1780261830146,-148,-5024,6412
828,1780261830897,-501,-5185,6506
829,1780261831146,-625,-5569,6422
830,1780261831345,-279,-5307,6628
831,1780261831681,-178,-4820,6380
832,1780261833412,706,-4573,6507
833,1780261834111,-118,-4660,6515
834,1780261834347,-437,-5335,5724
835,1780261835062,-248,-5162,6543
836,1780261835629,-251,-5146,6548
837,1780261836545,-248,-5144,6528
838,1780261836596,-246,-5163,6550
839,1780261836962,-239,-5152,6548
840,1780261838079,-232,-5152,6538
841,1780261838728,-245,-5158,6547
842,1780261838979,-236,-4991,6592
843,1780261839263,-285,-5215,6597
844,1780261840762,-226,-5186,6606
845,1780261840795,-231,-5129,6565
846,1780261841429,-232,-5080,6790
847,1780261841545,-275,-5124,6336
848,1780261841712,-136,-5081,6670
849,1780261841995,-222,-5149,6556
850,1780261843645,-127,-5086,6448
851,1780261845178,-192,-5166,6552
852,1780261845794,-150,-5009,6867
853,1780261846162,-320,-5114,6563
854,1780261847979,-230,-5150,6549
855,1780261848361,-190,-5038,6518
856,1780261848645,-131,-5096,6377
857,1780261848978,-287,-5234,6442
858,1780261849228,-207,-5186,6526
859,1780261849311,-236,-5092,6624
860,1780261849511,-236,-5058,6594
861,1780261850322,-224,-5159,6523
862,1780261850594,-242,-5168,6544
863,1780261853595,-243,-5152,6546
864,1780261854011,-250,-5141,6533
865,1780261854544,-247,-5132,6543
866,1780261854761,-240,-5146,6542
867,1780261855461,-233,-5142,6541
868,1780261856578,-229,-5160,6550
869,1780261856811,-249,-5144,6550
870,1780261858877,-250,-5141,6558
871,1780261859011,-248,-5150,6541
872,1780261859210,-279,-5219,6422
873,1780261859328,-190,-5146,6605
874,1780261859494,-212,-5072,6614
875,1780261859910,-80,-5161,6709
876,1780261863011,-152,-5116,6612
877,1780261865110,-166,-5261,6524
878,1780261865726,-293,-5134,6546
879,1780261865844,-272,-5172,6544
880,1780261866343,-290,-5110,6565
881,1780261866677,-227,-5161,6553
882,1780261868277,-134,-5127,6588
883,1780261868359,-242,-5214,6563
884,1780261868443,-326,-5095,6691
885,1780261868895,-305,-5138,6706
886,1780261868977,-285,-5114,6562
887,1780261869361,-238,-5180,6516
888,1780261869393,-237,-5177,6540
889,1780261870760,-215,-5119,6562
890,1780261871659,-288,-5444,6448
891,1780261872126,-251,-5226,6613
892,1780261873693,-177,-5316,6479
893,1780261874843,-256,-5110,6552
894,1780261875593,-258,-5163,6610
895,1780261875660,-234,-5154,6405
896,1780261876827,-222,-5160,6490
897,1780261877360,-271,-4930,6626
898,1780261877642,-194,-5162,6559
899,1780261877976,-284,-5138,6680
900,1780261878177,-212,-5048,6452
901,1780261878343,-246,-5219,6368
902,1780261879543,-276,-5140,6623
903,1780261879959,-247,-5144,6549
904,1780261880210,-268,-5144,6573
905,1780261880743,-258,-5140,6546
906,1780261881726,-239,-5143,6521
907,1780261882177,-258,-5174,6568
908,1780261882310,-292,-5200,6526
909,1780261882476,-348,-5092,6539
910,1780261882509,-336,-5163,6554
911,1780261883292,-120,-5146,6354
912,1780261884076,-278,-5132,6633
913,1780261884126,-240,-5163,6491
914,1780261884992,-228,-5135,6528
915,1780261885977,-237,-5106,6586
916,1780261886093,-270,-5148,6542
917,1780261886559,-166,-5144,6588
918,1780261887376,-174,-5170,6532
919,1780261888326,-205,-5121,6603
920,1780261889525,-197,-5179,6599
921,1780261890842,-226,-5182,6535
922,1780261891709,-248,-5188,6477
923,1780261892125,-192,-5096,6628
924,1780261893359,-559,-4986,6578
925,1780261893892,-277,-5148,6522
926,1780261894141,-97,-5150,6551
927,1780261894475,-187,-5157,6574
928,1780261895426,-253,-5197,6482
929,1780261895910,-270,-5085,6558
930,1780261896242,-162,-5188,6522
931,1780261896541,-382,-5118,6612
932,1780261896627,-299,-5036,6535
933,1780261896709,-183,-5136,6598
934,1780261898058,-214,-5108,6532
935,1780261898642,-249,-5089,6529
936,1780261899425,-174,-5140,6498
937,1780261899747,-283,-5182,6594
938,1780261900208,-190,-5121,6612
939,1780261900626,-174,-5148,6540
940,1780261900942,-259,-5152,6942
941,1780261901358,-272,-5250,6519
942,1780261902359,111,-5292,6527
943,1780261903045,-33,-5045,6666
944,1780261906676,-236,-5130,6515
945,1780261906808,-189,-5206,6590
946,1780261907058,-228,-5148,6444
947,1780261907459,-186,-5110,6812
948,1780261908242,-264,-5214,6620
949,1780261909109,-228,-5206,6542
950,1780261909408,186,-5252,6281
951,1780261909441,-846,-4891,6857
952,1780261909775,363,-5188,5943
953,1780261911459,-228,-5110,6541
954,1780261912040,-241,-5084,6501
955,1780261912124,-248,-5077,6580
956,1780261912791,-195,-5154,6538
957,1780261913743,-256,-5122,6551
958,1780261914226,-228,-5147,6542
959,1780261915708,-238,-5144,6558
960,1780261916161,-214,-5122,6544
961,1780261916708,-240,-5254,6395
962,1780261916908,-225,-5185,6520
963,1780261916958,-75,-5088,6422
964,1780261917124,-212,-5151,6521
965,1780261917811,-185,-5100,6568
966,1780261920540,-217,-5159,6550
967,1780261921324,-233,-5162,6550
968,1780261921690,-302,-5152,6602
969,1780261921825,-123,-5142,6495
970,1780261922274,-266,-5153,6549
971,1780261924874,-200,-5116,6521
972,1780261925858,195,-5654,6624
973,1780261926158,-124,-5220,6451
974,1780261927057,-185,-5126,6548
975,1780261927340,-214,-5118,6580
976,1780261927923,-213,-5136,6552
977,1780261928741,-217,-5148,6551
978,1780261929457,-232,-5137,6554
979,1780261930074,-230,-5129,6558
980,1780261930557,-224,-5154,6552
981,1780261930607,-219,-5148,6559
982,1780261931507,-242,-5133,6562
983,1780261932340,-225,-5144,6588
984,1780261933290,-216,-5140,6533
985,1780261934073,-253,-5126,6558
986,1780261935108,-208,-5160,6562
987,1780261935224,-209,-5129,6485
988,1780261935640,-249,-5037,6455
989,1780261935959,-224,-5130,6559
990,1780261937240,-222,-5148,6574
991,1780261937906,-214,-5132,6535
992,1780261938023,-224,-5148,6554
993,1780261940990,-231,-5134,6556
994,1780261941457,-224,-5138,6553
995,1780261941625,-227,-5142,6553
996,1780261942392,-225,-5138,6556
997,1780261942773,-225,-5136,6567
998,1780261942940,6550,0,2
999,1780261943756,-226,-5140,6554
1000,1780261944457,-236,-5138,6560
1001,1780261944589,-222,-5144,6560
1002,1780261944622,-234,-5141,6557
1003,1780261945206,-230,-5138,6560
1004,1780261945457,-219,-5139,6564
1005,1780261945624,-231,-5139,6550
1006,1780261946072,-225,-5137,6546
1007,1780261946323,-224,-5132,6559
1008,1780261946439,-220,-5145,6555
1009,1780261946558,-229,-5144,6548
1010,1780261947974,-214,-5127,6563
1011,1780261948224,-228,-5158,6562
1012,1780261948590,-204,-5147,6571
1013,1780261951305,-230,-5114,6568
1014,1780261952139,-226,-5145,6540
1015,1780261953572,-194,-5164,6585
1016,1780261954772,-5794,-3362,8432
1017,1780261955188,-2232,-5072,6607
1018,1780261957205,976,-4585,5344
1019,1780261957406,1088,-5348,4316
1020,1780261959922,748,-7744,8175
1021,1780261960172,389,-7018,7249
1022,1780261963355,431,-5505,7175
1023,1780261963388,390,-5074,7496
1024,1780261963606,470,-5892,6270
1025,1780261963972,887,-5172,7262
1026,1780261964054,-492,-6317,6335
1027,1780261964421,65,-5926,6703
1028,1780261965988,540,-4831,6183
1029,1780261966238,412,-5236,6454
1030,1780261966572,579,-4838,7234
1031,1780261968221,514,-4653,6819
1032,1780261969038,376,-5072,6685
1033,1780261970238,-272,-5029,6618
1034,1780261970571,-89,-5045,6597
1035,1780261972504,-125,-5038,6645
1036,1780261972805,-123,-5034,6636
1037,1780261974071,-46,-5057,6576
1038,1780261974371,-171,-5018,6672
1039,1780261974687,-143,-5002,6636
1040,1780261974988,-168,-5016,6642
1041,1780261975188,-92,-5024,6612
1042,1780261975438,-96,-5046,6620
1043,1780261976754,-144,-5032,6626
1044,1780261978522,-226,-5064,6687
1045,1780261979020,-162,-5043,6647
1046,1780261979554,-103,-5023,6606
1047,1780261980471,-84,-5034,6633
1048,1780261981421,-116,-5056,6640
1049,1780261981504,-129,-5033,6624
1050,1780261982287,-82,-5040,6648
1051,1780261982524,-129,-4997,6633
1052,1780261983187,-104,-5068,6623
1053,1780261983237,-109,-5086,6585
1054,1780261984137,-71,-5029,6610
1055,1780262044800,-120,-5049,6616
1056,1780262045283,-124,-5023,6618
1057,1780262045700,-132,-5049,6648
1058,1780262046401,-128,-5031,6644
1059,1780262047034,-136,-5044,6652
1060,1780262047200,-138,-5055,6630
1061,1780262047233,-144,-5028,6618
1062,1780262048316,-128,-5050,6642
1063,1780262049716,-132,-5036,6624
1064,1780262050385,-134,-5044,6630
1065,1780262050867,-136,-5024,6599
1066,1780262051500,-126,-5007,6618
1067,1780262051866,-120,-5079,6612
1068,1780262052116,-127,-5050,6648
1069,1780262052650,-155,-5042,6652
1070,1780262053433,-133,-5032,6651
1071,1780262055183,-126,-5073,6644
1072,1780262056332,-106,-5043,6640
1073,1780262056616,-128,-5038,6629
1074,1780262056666,-110,-5042,6633
1075,1780262056832,-128,-5044,6631
1076,1780262057082,-118,-5045,6644
1077,1780262058599,-101,-5030,6640
1078,1780262058733,-133,-5028,6652
1079,1780262059217,-134,-5039,6641
1080,1780262059632,-124,-5040,6645
1081,1780262059966,-127,-5030,6638
1082,1780262060384,-140,-5044,6634
1083,1780262060749,-123,-5038,6637
1084,1780262062632,-121,-5040,6630
1085,1780262063332,-132,-5031,6633
1086,1780262063666,-130,-5040,6626
1087,1780262064166,-130,-5042,6648
1088,1780262064866,-125,-5036,6640
1089,1780262065532,-132,-5034,6633
1090,1780262065983,-126,-5042,6631
1091,1780262066065,-124,-5030,6630
1092,1780262067299,-122,-5042,6634
1093,1780262067382,-119,-5043,6637
1094,1780262068248,-123,-5041,6636
1095,1780262068333,-129,-5043,6643
1096,1780262069100,-130,-5034,6635
1097,1780262069133,-126,-5042,6638
1098,1780262069832,-132,-5035,6641
1099,1780262070565,6638,0,0
1100,1780262072365,-125,-5042,6645
1101,1780262072648,-131,-5036,6637
1102,1780262074001,-134,-5034,6626
1103,1780262074883,-123,-5037,6635
1104,1780262074965,-118,-5034,6632
1105,1780262075615,-128,-5036,6627
1106,1780262076198,-114,-5031,6628
1107,1780262076883,-119,-5040,6633
1108,1780262078198,-103,-5033,6617
1109,1780262080017,-112,-5022,6622
1110,1780262080665,-125,-5034,6642
1111,1780262082083,-65,-5063,6623
1112,1780262082981,-162,-5022,6608
1113,1780262083898,-135,-5038,6650
1114,1780262084881,-127,-5046,6636
1115,1780262085381,-40,-5159,6580
1116,1780262085748,-101,-5072,6582
1117,1780262087581,-714,-4989,6691
1118,1780262087847,-500,-5343,6940
1119,1780262088065,-679,-4652,6602
1120,1780262088648,-704,-4579,6643
1121,1780262089097,-377,-4947,6963
1122,1780262092080,1159,-4013,7355
1123,1780262092414,950,-3803,7419
1124,1780262093565,748,-5088,6962
1125,1780262094431,-167,-2508,7588
1126,1780262094513,534,-4232,7123
1127,1780262095163,343,-3829,7511
1128,1780262095331,602,-4019,8337
1129,1780262095764,-64,-4444,8576
1130,1780262096497,-693,-4958,9374
1131,1780262098647,676,-6208,7701
1132,1780262099430,-160,-4804,7308
1133,1780262099597,515,-3982,6877
1134,1780262100080,12,-4159,6994
1135,1780262100914,474,-5081,7667
1136,1780262102480,-364,-3733,6764
1137,1780262102680,-470,-5350,7720
1138,1780262103547,785,-2910,6342
1139,1780262104297,1146,-3744,7408
1140,1780262104798,398,-5198,6867
1141,1780262105530,120,-5777,6275
1142,1780262106032,-11,-4618,6121
1143,1780262107097,980,-3728,4700
1144,1780262107346,202,-5986,6328
1145,1780262108297,846,-4364,7423
1146,1780262108881,1107,-3543,8935
1147,1780262110097,800,-6807,6198
1148,1780262110564,512,-6279,4980
1149,1780262112579,-2182,-3244,7216
1150,1780262112697,501,-5981,5938
1151,1780262113612,-226,-5473,6584
1152,1780262114481,-172,-5604,6399
1153,1780262114731,342,-5427,5202
1154,1780262115963,-51,-4764,7594
1155,1780262116663,405,-5877,6087
1156,1780262119179,112,-6054,6609
1157,1780262119430,36,-5161,6346
1158,1780262120080,744,-5644,5919
1159,1780262120746,-106,-5337,6421
1160,1780262120863,-430,-5098,6511
1161,1780262121112,-198,-5105,6608
1162,1780262121412,0,-5113,6527
1163,1780262121647,58,-5145,6518
1164,1780262122478,-134,-5124,6532
1165,1780262123929,-281,-5223,6222
1166,1780262124330,-320,-5250,6571
1167,1780262126514,-274,-5065,6556
1168,1780262127146,-226,-5063,6573
1169,1780262128081,-220,-5177,6545
1170,1780262128212,-204,-5133,6538
1171,1780262128782,-221,-5130,6567
1172,1780262129246,-248,-5162,6547
1173,1780262129978,-216,-5194,6523
1174,1780262130196,-239,-5144,6567
1175,1780262131011,-202,-5126,6558
1176,1780262132545,-232,-5156,6558
1177,1780262132661,-242,-5146,6530
1178,1780262135312,-170,-5162,6538
1179,1780262136011,-98,-5210,6526
1180,1780262136261,44,-5055,6538
1181,1780262138063,-298,-5468,6147
1182,1780262138146,-158,-5152,6208
1183,1780262138611,29,-5152,6342
1184,1780262138729,-354,-5419,6725
1185,1780262138861,-234,-5095,6520
1186,1780262139230,-432,-4666,6600
1187,1780262139728,-363,-5086,6414
1188,1780262139961,-499,-5081,6710
1189,1780262140744,-359,-5223,6656
1190,1780262141127,-263,-5165,6694
1191,1780262142478,-66,-5321,6491
1192,1780262143095,-50,-5263,6333
1193,1780262143262,6481,0,0
1194,1780262143345,-157,-5270,6734
1195,1780262144261,-247,-5283,6629
1196,1780262145495,-133,-5456,6591
1197,1780262145610,27,-5158,6438
1198,1780262146028,8,-5248,6504
1199,1780262147229,382,-5463,6681
1200,1780262147511,216,-4837,6349
1201,1780262147760,-72,-6290,5878
1202,1780262148178,-407,-5031,7338
1203,1780262148261,-97,-5147,6037
1204,1780262148745,-266,-4557,6250
1205,1780262149377,-279,-4921,6534
1206,1780262150945,-33,-5205,6509
1207,1780262152011,-14,-5186,6562
1208,1780262152210,50,-5090,6454
1209,1780262152744,34,-5201,6462
1210,1780262152828,106,-5112,6435
1211,1780262153077,76,-5073,6568
1212,1780262153160,36,-5335,6481
