index,date,GYRO_X,GYRO_Y,GYRO_Z
0,1782579299008,0.14000000000000001,-0.56000000000000005,0.070000000000000007
1,1782579299037,0.14000000000000001,-0.56000000000000005,0.070000000000000007
2,1782579299087,0.14000000000000001,-0.48999999999999999,0
3,1782579299137,0.14000000000000001,-0.48999999999999999,0
4,1782579299170,0.14000000000000001,-0.56000000000000005,0
5,1782579299220,0.14000000000000001,-0.56000000000000005,0.070000000000000007
6,1782579299287,0.14000000000000001,-0.56000000000000005,0.070000000000000007
7,1782579299371,0.20999999999999999,-0.56000000000000005,0
8,1782579299436,0.20999999999999999,-0.56000000000000005,0
9,1782579299504,0.20999999999999999,-0.48999999999999999,0
10,1782579299554,0.20999999999999999,-0.48999999999999999,0
11,1782579299621,0.28000000000000003,-0.56000000000000005,0
12,1782579299670,0.14000000000000001,-0.56000000000000005,0
13,1782579299720,0.14000000000000001,-0.48999999999999999,0
14,1782579299786,0.14000000000000001,-0.56000000000000005,0
15,1782579299803,0.20999999999999999,-0.56000000000000005,0
16,1782579299837,0.20999999999999999,-0.56000000000000005,0
17,1782579299852,0.20999999999999999,-0.56000000000000005,0
18,1782579299886,0.20999999999999999,-0.56000000000000005,0.070000000000000007
19,1782579299936,0.28000000000000003,-0.48999999999999999,0
20,1782579300003,0.20999999999999999,-0.48999999999999999,0.070000000000000007
21,1782579300052,0.20999999999999999,-0.48999999999999999,0.070000000000000007
22,1782579300103,0.20999999999999999,-0.56000000000000005,0.070000000000000007
23,1782579300137,0.20999999999999999,-0.56000000000000005,0.070000000000000007
24,1782579300153,0.14000000000000001,-0.56000000000000005,0.070000000000000007
25,1782579300203,0.20999999999999999,-0.48999999999999999,0.070000000000000007
26,1782579300220,0.20999999999999999,-0.56000000000000005,0
27,1782579300269,0.20999999999999999,-0.56000000000000005,0
28,1782579300319,0.20999999999999999,-0.56000000000000005,0
29,1782579300369,0.20999999999999999,-0.56000000000000005,0.070000000000000007
30,1782579300419,0.20999999999999999,-0.48999999999999999,0.070000000000000007
31,1782579300436,0.20999999999999999,-0.56000000000000005,0.070000000000000007
32,1782579300453,0.20999999999999999,-0.56000000000000005,0
33,1782579300486,0.20999999999999999,-0.56000000000000005,0
34,1782579300519,0.14000000000000001,-0.48999999999999999,0
35,1782579300586,0.14000000000000001,-0.48999999999999999,0.070000000000000007
36,1782579300636,0.20999999999999999,-0.56000000000000005,0
37,1782579300719,0.20999999999999999,-0.56000000000000005,0.070000000000000007
38,1782579300780,0.20999999999999999,-0.56000000000000005,0
39,1782579300835,0.20999999999999999,-0.56000000000000005,0
40,1782579300885,0.20999999999999999,-0.56000000000000005,0.070000000000000007
41,1782579300935,0.20999999999999999,-0.56000000000000005,0.070000000000000007
42,1782579300985,0.20999999999999999,-0.56000000000000005,0.070000000000000007
43,1782579301035,0.20999999999999999,-0.48999999999999999,0
44,1782579301135,0.20999999999999999,-0.48999999999999999,0
45,1782579301235,0.20999999999999999,-0.48999999999999999,0
46,1782579301301,0.34999999999999998,-0.48999999999999999,0
47,1782579301351,0.20999999999999999,-0.48999999999999999,0
48,1782579301436,0.20999999999999999,-0.56000000000000005,0
49,1782579301534,0.20999999999999999,-0.56000000000000005,0
50,1782579301585,0.20999999999999999,-0.56000000000000005,0
51,1782579301701,0.20999999999999999,-0.56000000000000005,0
52,1782579301785,0.20999999999999999,-0.56000000000000005,0
53,1782579301851,0.14000000000000001,-0.48999999999999999,0
54,1782579301884,0.14000000000000001,-0.48999999999999999,0
55,1782579301918,0.20999999999999999,-0.48999999999999999,0
56,1782579301984,0.20999999999999999,-0.48999999999999999,0.070000000000000007
57,1782579302018,0.28000000000000003,-0.48999999999999999,0.070000000000000007
58,1782579302084,0.20999999999999999,-0.48999999999999999,0.070000000000000007
59,1782579302135,0.20999999999999999,-0.48999999999999999,0.070000000000000007
60,1782579302201,0.20999999999999999,-0.48999999999999999,0.070000000000000007
61,1782579302250,0.20999999999999999,-0.56000000000000005,0
62,1782579302300,0.20999999999999999,-0.56000000000000005,0
63,1782579302367,0.20999999999999999,-0.56000000000000005,0
64,1782579302401,0.20999999999999999,-0.56000000000000005,0
65,1782579302468,0.20999999999999999,-0.56000000000000005,0
66,1782579302485,0.20999999999999999,-0.56000000000000005,0.070000000000000007
67,1782579302534,0.20999999999999999,-0.48999999999999999,0.070000000000000007
68,1782579302617,0.20999999999999999,-0.48999999999999999,0.070000000000000007
69,1782579302717,0.20999999999999999,-0.48999999999999999,0.070000000000000007
70,1782579302851,0.20999999999999999,-0.56000000000000005,0
71,1782579302900,0.14000000000000001,-0.56000000000000005,0
72,1782579302950,0.20999999999999999,-0.56000000000000005,0.070000000000000007
73,1782579303051,0.20999999999999999,-0.56000000000000005,0
74,1782579303100,0.20999999999999999,-0.48999999999999999,0
75,1782579303167,0.20999999999999999,-0.48999999999999999,0
76,1782579303217,0.20999999999999999,-0.48999999999999999,0
77,1782579303316,0.28000000000000003,-0.48999999999999999,0.070000000000000007
78,1782579303383,0.28000000000000003,-0.48999999999999999,0
79,1782579303450,0.28000000000000003,-0.48999999999999999,0
80,1782579303517,0.20999999999999999,-0.48999999999999999,0
81,1782579303550,0.20999999999999999,-0.48999999999999999,0
82,1782579303566,0.20999999999999999,-0.48999999999999999,0.070000000000000007
83,1782579303634,0.20999999999999999,-0.48999999999999999,0.070000000000000007
84,1782579303667,0.20999999999999999,-0.56000000000000005,0
85,1782579303733,0.20999999999999999,-0.56000000000000005,0.070000000000000007
86,1782579303784,0.20999999999999999,-0.56000000000000005,0
87,1782579303833,0.20999999999999999,-0.56000000000000005,0
88,1782579303902,0.28000000000000003,-0.48999999999999999,0.070000000000000007
89,1782579303933,0.20999999999999999,-0.48999999999999999,0.070000000000000007
90,1782579303999,0.20999999999999999,-0.48999999999999999,0
91,1782579304032,0.20999999999999999,-0.48999999999999999,0
92,1782579304099,0.20999999999999999,-0.48999999999999999,0
93,1782579304182,0.20999999999999999,-0.56000000000000005,0.070000000000000007
94,1782579304216,0.20999999999999999,-0.48999999999999999,0.070000000000000007
95,1782579304282,0.20999999999999999,-0.48999999999999999,0
96,1782579304316,0.20999999999999999,-0.48999999999999999,0
97,1782579304382,0.20999999999999999,-0.48999999999999999,0
98,1782579304482,0.20999999999999999,-0.48999999999999999,0
99,1782579304549,0.20999999999999999,-0.48999999999999999,0
100,1782579304582,0.20999999999999999,-0.48999999999999999,0
101,1782579304649,0.14000000000000001,-0.48999999999999999,0
102,1782579304682,0.14000000000000001,-0.48999999999999999,0
103,1782579304732,0.14000000000000001,-0.56000000000000005,0
104,1782579304749,0.14000000000000001,-0.48999999999999999,0
105,1782579304782,0.14000000000000001,-0.48999999999999999,0
106,1782579304832,0.14000000000000001,-0.48999999999999999,0
107,1782579304882,0.20999999999999999,-0.48999999999999999,0
108,1782579304932,0.20999999999999999,-0.56000000000000005,0.070000000000000007
109,1782579304999,0.20999999999999999,-0.56000000000000005,0.070000000000000007
110,1782579305031,0.20999999999999999,-0.56000000000000005,0.070000000000000007
111,1782579305065,0.14000000000000001,-0.48999999999999999,0
112,1782579305115,0.20999999999999999,-0.56000000000000005,0
113,1782579305165,0.20999999999999999,-0.56000000000000005,0.070000000000000007
114,1782579305198,0.20999999999999999,-0.56000000000000005,0.070000000000000007
115,1782579305249,0.20999999999999999,-0.56000000000000005,0.070000000000000007
116,1782579305382,0.28000000000000003,-0.48999999999999999,0.070000000000000007
117,1782579305432,0.28000000000000003,-0.48999999999999999,0.070000000000000007
118,1782579305481,0.28000000000000003,-0.48999999999999999,0.070000000000000007
119,1782579305548,0.28000000000000003,-0.48999999999999999,0
120,1782579305614,0.20999999999999999,-0.48999999999999999,0.070000000000000007
121,1782579305665,0.20999999999999999,-0.56000000000000005,0.070000000000000007
122,1782579305749,0.20999999999999999,-0.56000000000000005,0.070000000000000007
123,1782579305865,0.14000000000000001,-0.56000000000000005,0
124,1782579305881,0.14000000000000001,-0.56000000000000005,0
125,1782579305931,0.14000000000000001,-0.56000000000000005,0
126,1782579306014,0.20999999999999999,-0.56000000000000005,0.070000000000000007
127,1782579306065,0.20999999999999999,-0.56000000000000005,0
128,1782579306098,0.20999999999999999,-0.56000000000000005,0
129,1782579306181,0.28000000000000003,-0.56000000000000005,0
130,1782579306231,0.14000000000000001,-0.48999999999999999,0.070000000000000007
131,1782579306264,0.14000000000000001,-0.48999999999999999,0.070000000000000007
132,1782579306347,0.070000000000000007,-0.48999999999999999,0.070000000000000007
133,1782579306413,0.070000000000000007,-0.48999999999999999,0.070000000000000007
134,1782579306431,0.14000000000000001,-0.48999999999999999,0.070000000000000007
135,1782579306464,0.56000000000000005,-0.20999999999999999,0
136,1782579306497,0,-0.56000000000000005,0.070000000000000007
137,1782579306564,0.20999999999999999,-0.56000000000000005,0.070000000000000007
138,1782579306630,0.41999999999999998,-0.48999999999999999,0.070000000000000007
139,1782579306697,0.20999999999999999,-0.56000000000000005,0.070000000000000007
140,1782579306747,0.14000000000000001,-0.56000000000000005,0.070000000000000007
141,1782579306764,0.20999999999999999,-0.56000000000000005,0.070000000000000007
142,1782579306780,0.48999999999999999,-0.48999999999999999,0.070000000000000007
143,1782579306814,0.20999999999999999,-0.48999999999999999,0.070000000000000007
144,1782579306847,0.14000000000000001,-0.48999999999999999,0.070000000000000007
145,1782579306880,0.14000000000000001,-0.34999999999999998,0.070000000000000007
146,1782579306897,0.14000000000000001,-0.34999999999999998,0.070000000000000007
147,1782579306914,0.14000000000000001,-0.97999999999999998,0.14000000000000001
148,1782579306980,0,-0.070000000000000007,0.14000000000000001
149,1782579307014,-0.56000000000000005,-0.070000000000000007,-0.070000000000000007
150,1782579307065,0.20999999999999999,-0.91000000000000003,-0.070000000000000007
151,1782579307113,0.34999999999999998,-0.91000000000000003,0
152,1782579307163,0.48999999999999999,-0.41999999999999998,0.14000000000000001
153,1782579307196,0.20999999999999999,-0.20999999999999999,0.070000000000000007
154,1782579307263,0.20999999999999999,-0.41999999999999998,0.070000000000000007
155,1782579307330,0.34999999999999998,-1.1200000000000001,0.070000000000000007
156,1782579307363,-0.34999999999999998,1.1200000000000001,-0.20999999999999999
157,1782579307429,-0.34999999999999998,0.97999999999999998,-0.20999999999999999
158,1782579307463,-0.34999999999999998,0.97999999999999998,-0.20999999999999999
159,1782579307496,-1.54,0.97999999999999998,-0.41999999999999998
160,1782579307563,-0.34999999999999998,-0.77000000000000002,-0.20999999999999999
161,1782579307646,1.26,-0.63,0.070000000000000007
162,1782579307713,2.3799999999999999,-0.63,0.28000000000000003
163,1782579307746,2.5899999999999999,-0.63,0.41999999999999998
164,1782579307763,0.69999999999999996,-0.63,0.41999999999999998
165,1782579307780,0.69999999999999996,-4.1299999999999999,0.41999999999999998
166,1782579307830,-1.96,-4.1299999999999999,0.070000000000000007
167,1782579307879,-4.4100000000000001,-2.3799999999999999,-1.05
168,1782579307980,0.63,-0.77000000000000002,0.48999999999999999
169,1782579308063,1.6799999999999999,1.8200000000000001,0.48999999999999999
170,1782579308146,1.6799999999999999,-0.77000000000000002,0.28000000000000003
171,1782579308162,-5.25,-0.14000000000000001,-0.48999999999999999
172,1782579308213,-4.2699999999999996,0.20999999999999999,-0.48999999999999999
173,1782579308329,4.2699999999999996,0.20999999999999999,0.14000000000000001
174,1782579308379,4.2699999999999996,0.20999999999999999,0.63
175,1782579308429,-0.14000000000000001,0.97999999999999998,-0.34999999999999998
176,1782579308479,-0.14000000000000001,0.97999999999999998,-0.070000000000000007
177,1782579308529,-1.1899999999999999,0.97999999999999998,-0.34999999999999998
178,1782579308646,-1.1899999999999999,0.56000000000000005,-0.34999999999999998
179,1782579308729,-2.5899999999999999,-0.97999999999999998,-1.05
180,1782579308813,-1.1899999999999999,-0.97999999999999998,-0.48999999999999999
181,1782579308895,108.92,-0.070000000000000007,0.83999999999999997
182,1782579308945,-2.2400000000000002,0.070000000000000007,-0.83999999999999997
183,1782579308979,-0.34999999999999998,1.05,1.1200000000000001
184,1782579309012,1.75,1.05,1.1200000000000001
185,1782579309045,1.75,1.05,1.1200000000000001
186,1782579309095,1.75,1.05,-0.83999999999999997
187,1782579309145,0.34999999999999998,-1.3300000000000001,-0.97999999999999998
188,1782579309246,0.34999999999999998,-1.3300000000000001,-0.97999999999999998
189,1782579309278,-3.1499999999999999,-0.63,-0.97999999999999998
190,1782579309328,-4.5499999999999998,0.41999999999999998,-0.69999999999999996
191,1782579309378,-4.5499999999999998,0.41999999999999998,-0.69999999999999996
192,1782579309445,-4.5499999999999998,0.41999999999999998,0.34999999999999998
193,1782579309511,0.20999999999999999,0.83999999999999997,0.41999999999999998
194,1782579309595,0,0.20999999999999999,-0.20999999999999999
195,1782579309745,0,-2.1699999999999999,-0.56000000000000005
196,1782579309778,0.69999999999999996,3.6400000000000001,-0.56000000000000005
197,1782579309828,0.20999999999999999,-2.1699999999999999,-0.56000000000000005
198,1782579309878,-1.05,-0.63,-0.41999999999999998
199,1782579309928,-1.05,2.6600000000000001,-0.41999999999999998
200,1782579309994,-1.05,2.6600000000000001,-0.41999999999999998
201,1782579310094,0.48999999999999999,-1.3300000000000001,0.20999999999999999
202,1782579310194,0,-0.63,-0.14000000000000001
203,1782579310244,0,-0.63,0.20999999999999999
204,1782579310295,-0.34999999999999998,-0.56000000000000005,0
205,1782579310311,-0.48999999999999999,-1.1899999999999999,0.070000000000000007
206,1782579310411,-0.48999999999999999,-1.54,0.070000000000000007
207,1782579310444,-0.48999999999999999,-1.54,0.070000000000000007
208,1782579310478,0.28000000000000003,-1.54,0.14000000000000001
209,1782579310494,0.28000000000000003,-1.8200000000000001,0
210,1782579310510,0.56000000000000005,-1.8200000000000001,0.14000000000000001
211,1782579310544,0.28000000000000003,-0.56000000000000005,-0.070000000000000007
212,1782579310610,0.41999999999999998,-0.83999999999999997,0
213,1782579310761,0.20999999999999999,-0.83999999999999997,0
214,1782579310811,0,-0.48999999999999999,0
215,1782579310844,0.14000000000000001,-0.20999999999999999,0
216,1782579310894,0.48999999999999999,-0.20999999999999999,0
217,1782579310961,0.28000000000000003,-0.20999999999999999,0.070000000000000007
218,1782579311027,0.34999999999999998,-1.05,0
219,1782579311126,0.34999999999999998,-0.63,0
220,1782579311193,0.28000000000000003,-0.69999999999999996,0
221,1782579311244,0.14000000000000001,-0.63,0
222,1782579311326,0.14000000000000001,-0.77000000000000002,0
223,1782579311343,0.20999999999999999,-0.69999999999999996,0.070000000000000007
224,1782579311377,0.28000000000000003,-0.41999999999999998,0.070000000000000007
225,1782579311410,0.28000000000000003,-0.20999999999999999,0.070000000000000007
226,1782579311477,0.48999999999999999,-0.41999999999999998,0.070000000000000007
227,1782579311526,0.48999999999999999,-0.070000000000000007,0
228,1782579311577,0.28000000000000003,0,0
229,1782579311626,0.28000000000000003,-0.070000000000000007,0.070000000000000007
230,1782579311710,0.20999999999999999,-0.070000000000000007,0
231,1782579311777,0.14000000000000001,-0.070000000000000007,0
232,1782579311877,0.34999999999999998,-0.41999999999999998,0
233,1782579311910,0.34999999999999998,-0.20999999999999999,0.070000000000000007
234,1782579311960,0.14000000000000001,-0.41999999999999998,0.070000000000000007
235,1782579312026,0.070000000000000007,-0.48999999999999999,0
236,1782579312093,0.070000000000000007,-0.56000000000000005,0
237,1782579312242,0.20999999999999999,-0.56000000000000005,0
238,1782579312293,0.20999999999999999,-0.56000000000000005,0
239,1782579312360,0.20999999999999999,-0.56000000000000005,0
240,1782579312442,0.20999999999999999,-0.56000000000000005,0
241,1782579312509,0.20999999999999999,-0.48999999999999999,0
242,1782579312559,0.20999999999999999,-0.48999999999999999,0.070000000000000007
243,1782579312592,0.20999999999999999,-0.56000000000000005,0.070000000000000007
244,1782579312659,0.20999999999999999,-0.56000000000000005,0.070000000000000007
245,1782579312709,0.20999999999999999,-0.56000000000000005,0.070000000000000007
246,1782579312725,0.20999999999999999,-0.48999999999999999,0
247,1782579312792,0.20999999999999999,-0.48999999999999999,0
248,1782579312843,0.20999999999999999,-0.48999999999999999,0
249,1782579312910,0.20999999999999999,-0.48999999999999999,0
250,1782579312942,0.20999999999999999,-0.48999999999999999,0
251,1782579312975,0.20999999999999999,-0.48999999999999999,0.070000000000000007
252,1782579312995,0.28000000000000003,-0.48999999999999999,0
253,1782579313060,0.41999999999999998,-0.48999999999999999,0
254,1782579313093,0.28000000000000003,-0.28000000000000003,0
255,1782579313159,0.28000000000000003,0,0
256,1782579313292,0.20999999999999999,-0.48999999999999999,0
257,1782579313359,0.20999999999999999,-0.56000000000000005,0
258,1782579313409,0.14000000000000001,-0.56000000000000005,0
259,1782579313492,0.20999999999999999,-0.48999999999999999,0
260,1782579313509,0.34999999999999998,-0.48999999999999999,0.070000000000000007
261,1782579313543,0.34999999999999998,-0.48999999999999999,0
262,1782579313593,0.34999999999999998,-0.48999999999999999,0
263,1782579313659,0.28000000000000003,-0.56000000000000005,0.070000000000000007
264,1782579313709,0.20999999999999999,-0.48999999999999999,0
265,1782579313780,0.20999999999999999,-0.56000000000000005,0.070000000000000007
266,1782579313812,0.20999999999999999,-0.56000000000000005,0.070000000000000007
267,1782579313844,0.20999999999999999,-0.48999999999999999,0.070000000000000007
268,1782579313976,0.20999999999999999,-0.48999999999999999,0
269,1782579314009,0.20999999999999999,-0.48999999999999999,0
270,1782579314043,0.28000000000000003,-0.48999999999999999,0
271,1782579314076,0.28000000000000003,-0.56000000000000005,0
272,1782579314093,0.28000000000000003,-0.56000000000000005,0
273,1782579314109,0.28000000000000003,-0.56000000000000005,0
274,1782579314140,0.14000000000000001,-0.56000000000000005,0
275,1782579314190,0.14000000000000001,-0.56000000000000005,0
276,1782579314256,0.14000000000000001,-0.48999999999999999,0.070000000000000007
277,1782579314340,0.14000000000000001,-0.48999999999999999,0.070000000000000007
278,1782579314357,0.20999999999999999,-0.56000000000000005,0.070000000000000007
279,1782579314390,0.20999999999999999,-0.56000000000000005,0
280,1782579314440,0.20999999999999999,-0.56000000000000005,0
281,1782579314489,0.28000000000000003,-0.56000000000000005,0
282,1782579314540,0.28000000000000003,-0.56000000000000005,0
283,1782579314589,0.20999999999999999,-0.56000000000000005,0
284,1782579314606,0.20999999999999999,-0.48999999999999999,0
285,1782579314658,0.20999999999999999,-0.56000000000000005,0
286,1782579314724,0.20999999999999999,-0.56000000000000005,0
287,1782579314790,0.20999999999999999,-0.48999999999999999,0
288,1782579314878,0.14000000000000001,-0.56000000000000005,0
289,1782579314910,0.14000000000000001,-0.56000000000000005,0
290,1782579314975,0.20999999999999999,-0.56000000000000005,0
291,1782579315025,0.28000000000000003,-0.56000000000000005,0
292,1782579315125,0.14000000000000001,-0.56000000000000005,0
293,1782579315175,0.20999999999999999,-0.56000000000000005,0
294,1782579315223,0.20999999999999999,-0.56000000000000005,0
295,1782579315307,0.20999999999999999,-0.56000000000000005,0
296,1782579315406,0.14000000000000001,-0.56000000000000005,0
297,1782579315456,0.14000000000000001,-0.56000000000000005,0
298,1782579315506,0.14000000000000001,-0.56000000000000005,0
299,1782579315556,0.20999999999999999,-0.56000000000000005,0
300,1782579315606,0.20999999999999999,-0.56000000000000005,0
301,1782579315690,0.14000000000000001,-0.56000000000000005,0.070000000000000007
302,1782579315761,0.14000000000000001,-0.56000000000000005,0.070000000000000007
303,1782579315956,0.20999999999999999,-0.56000000000000005,0.070000000000000007
304,1782579315989,0.20999999999999999,-0.56000000000000005,0.070000000000000007
305,1782579316022,0.20999999999999999,-0.56000000000000005,0.070000000000000007
306,1782579316056,0.20999999999999999,-0.48999999999999999,0.070000000000000007
307,1782579316105,0.20999999999999999,-0.48999999999999999,0.070000000000000007
308,1782579316189,0.20999999999999999,-0.48999999999999999,0
309,1782579316239,0.20999999999999999,-0.48999999999999999,0
310,1782579316289,0.20999999999999999,-0.48999999999999999,0
311,1782579316338,0.20999999999999999,-0.48999999999999999,0
312,1782579316405,0.20999999999999999,-0.48999999999999999,0
313,1782579316455,0.14000000000000001,-0.48999999999999999,0
314,1782579316505,0.20999999999999999,-0.48999999999999999,0
315,1782579517868,0.20999999999999999,-0.48999999999999999,0.070000000000000007
316,1782579517919,0.20999999999999999,-0.48999999999999999,0
317,1782579517969,0.20999999999999999,-0.48999999999999999,0
318,1782579518035,0.20999999999999999,-0.48999999999999999,0
319,1782579518086,0.20999999999999999,-0.48999999999999999,0
320,1782579518135,0.28000000000000003,-0.48999999999999999,0
321,1782579518202,0.20999999999999999,-0.63,0.070000000000000007
322,1782579518219,0.20999999999999999,-0.63,0.070000000000000007
323,1782579518235,0.20999999999999999,-0.63,0.070000000000000007
324,1782579518268,0.20999999999999999,-0.63,0.070000000000000007
325,1782579518285,0.20999999999999999,-0.63,0.070000000000000007
326,1782579518319,0.20999999999999999,-0.41999999999999998,0.070000000000000007
327,1782579518368,0.20999999999999999,-0.41999999999999998,0
328,1782579518419,0.20999999999999999,-0.56000000000000005,0
329,1782579518468,0.20999999999999999,-0.56000000000000005,0
330,1782579518518,0.20999999999999999,-0.56000000000000005,0.070000000000000007
331,1782579518568,0.28000000000000003,-0.56000000000000005,0
332,1782579518618,0.28000000000000003,-0.56000000000000005,0
333,1782579518684,0.20999999999999999,-0.56000000000000005,0
334,1782579518735,0.20999999999999999,-0.56000000000000005,0
335,1782579518768,0.14000000000000001,-0.56000000000000005,0
336,1782579518785,0.14000000000000001,-0.56000000000000005,0
337,1782579518802,0.14000000000000001,-0.56000000000000005,0
338,1782579518835,0.14000000000000001,-0.56000000000000005,0
339,1782579518851,0.14000000000000001,-0.56000000000000005,0.070000000000000007
340,1782579518902,0.14000000000000001,-0.56000000000000005,0.070000000000000007
341,1782579518935,0.14000000000000001,-0.48999999999999999,0.070000000000000007
342,1782579518968,0.20999999999999999,-0.48999999999999999,0
343,1782579519018,0.20999999999999999,-0.48999999999999999,0
344,1782579519067,0.20999999999999999,-0.48999999999999999,0
345,1782579519102,0.20999999999999999,-0.48999999999999999,0
346,1782579519168,0.20999999999999999,-0.56000000000000005,0
347,1782579519217,0.20999999999999999,-0.56000000000000005,0
348,1782579519268,0.20999999999999999,-0.56000000000000005,0
349,1782579519318,0.20999999999999999,-0.63,0
350,1782579519368,0.20999999999999999,-0.63,0
351,1782579519401,0.20999999999999999,-0.63,0
352,1782579519434,0.20999999999999999,-0.63,0
353,1782579519451,0.20999999999999999,-0.56000000000000005,0
354,1782579519467,0.20999999999999999,-0.56000000000000005,0
355,1782579519500,0.20999999999999999,-0.56000000000000005,0
356,1782579519551,0.14000000000000001,-0.48999999999999999,0
357,1782579519600,0.20999999999999999,-0.48999999999999999,-0.070000000000000007
358,1782579519651,0.20999999999999999,-0.48999999999999999,-0.070000000000000007
359,1782579519718,0.28000000000000003,-0.48999999999999999,0
360,1782579519767,0.28000000000000003,-0.48999999999999999,0
361,1782579519833,0.20999999999999999,-0.48999999999999999,0
362,1782579519883,0.20999999999999999,-0.48999999999999999,0
363,1782579519950,0.20999999999999999,-0.48999999999999999,0
364,1782579519983,0.20999999999999999,-0.48999999999999999,0
365,1782579520001,0.20999999999999999,-0.56000000000000005,0
366,1782579520034,0.20999999999999999,-0.56000000000000005,0
367,1782579520050,0.20999999999999999,-0.56000000000000005,0
368,1782579520068,0.20999999999999999,-0.56000000000000005,0.070000000000000007
369,1782579520134,0.20999999999999999,-0.56000000000000005,0.070000000000000007
370,1782579520167,0.20999999999999999,-0.56000000000000005,0.070000000000000007
371,1782579520233,0.28000000000000003,-0.56000000000000005,0
372,1782579520267,0.28000000000000003,-0.48999999999999999,0.070000000000000007
373,1782579520333,0.28000000000000003,-0.48999999999999999,0
374,1782579520384,0.20999999999999999,-0.48999999999999999,0
375,1782579520450,0.14000000000000001,-0.56000000000000005,0
376,1782579520500,0.14000000000000001,-0.56000000000000005,0
377,1782579520534,0.14000000000000001,-0.56000000000000005,0
378,1782579520551,0.14000000000000001,-0.56000000000000005,0
379,1782579520566,0.14000000000000001,-0.56000000000000005,0
380,1782579520616,0.14000000000000001,-0.56000000000000005,0
381,1782579520650,0.14000000000000001,-0.48999999999999999,0.070000000000000007
382,1782579520716,0.14000000000000001,-0.56000000000000005,0.070000000000000007
383,1782579520766,0.14000000000000001,-0.48999999999999999,0.070000000000000007
384,1782579520833,0.20999999999999999,-0.48999999999999999,-0.070000000000000007
385,1782579520900,0.20999999999999999,-0.48999999999999999,-0.070000000000000007
386,1782579521017,0.20999999999999999,-0.56000000000000005,-0.070000000000000007
387,1782579521066,0.20999999999999999,-0.56000000000000005,0
388,1782579521116,0.20999999999999999,-0.56000000000000005,0
389,1782579521149,0.20999999999999999,-0.63,0
390,1782579521183,0.28000000000000003,-0.48999999999999999,0
391,1782579521232,0.28000000000000003,-0.48999999999999999,0
392,1782579521266,0.28000000000000003,-0.48999999999999999,0
393,1782579521283,0.28000000000000003,-0.48999999999999999,0
394,1782579521300,0.28000000000000003,-0.56000000000000005,0
395,1782579521333,0.28000000000000003,-0.56000000000000005,0
396,1782579521366,0.28000000000000003,-0.56000000000000005,0
397,1782579521433,0.20999999999999999,-0.56000000000000005,0
398,1782579521466,0.20999999999999999,-0.56000000000000005,0
399,1782579521516,0.28000000000000003,-0.56000000000000005,0
400,1782579521532,0.28000000000000003,-0.56000000000000005,0
401,1782579521566,0.28000000000000003,-0.48999999999999999,0
402,1782579521649,0.28000000000000003,-0.48999999999999999,0
403,1782579521699,0.14000000000000001,-0.48999999999999999,0
404,1782579521766,0.20999999999999999,-0.48999999999999999,0
405,1782579521799,0.20999999999999999,-0.48999999999999999,0
406,1782579521832,0.14000000000000001,-0.48999999999999999,0.070000000000000007
407,1782579521850,0.14000000000000001,-0.48999999999999999,0.070000000000000007
408,1782579521883,0.14000000000000001,-0.48999999999999999,0.070000000000000007
409,1782579521948,0.14000000000000001,-0.56000000000000005,0
410,1782579522082,0.20999999999999999,-0.56000000000000005,0
411,1782579522132,0.20999999999999999,-0.56000000000000005,0
412,1782579522165,0.14000000000000001,-0.56000000000000005,0
413,1782579522181,0.14000000000000001,-0.56000000000000005,0
414,1782579522215,0.14000000000000001,-0.56000000000000005,0
415,1782579522232,0.14000000000000001,-0.56000000000000005,0
416,1782579522249,0.14000000000000001,-0.56000000000000005,0
417,1782579522266,0.14000000000000001,-0.56000000000000005,0
418,1782579522316,0.14000000000000001,-0.56000000000000005,0
419,1782579522382,0.20999999999999999,-0.63,0
420,1782579522432,0.20999999999999999,-0.69999999999999996,0
421,1782579522465,0.28000000000000003,-0.69999999999999996,0
422,1782579522482,0.28000000000000003,-0.69999999999999996,0
423,1782579522499,0.28000000000000003,-0.77000000000000002,0
424,1782579522532,0.14000000000000001,-0.69999999999999996,0
425,1782579522565,0.20999999999999999,-0.48999999999999999,0
426,1782579522615,0.20999999999999999,-0.48999999999999999,0
427,1782579522681,0.20999999999999999,-0.48999999999999999,0
428,1782579522731,0.28000000000000003,-0.48999999999999999,0
429,1782579522765,0.28000000000000003,-0.48999999999999999,0
430,1782579522931,0.28000000000000003,-0.48999999999999999,0
431,1782579522965,0.28000000000000003,-0.48999999999999999,0
432,1782579523031,0.28000000000000003,-0.48999999999999999,0
433,1782579523066,0.20999999999999999,-0.48999999999999999,0
434,1782579523098,0.20999999999999999,-0.56000000000000005,0
435,1782579523115,0.14000000000000001,-0.56000000000000005,-0.070000000000000007
436,1782579523264,0.14000000000000001,-0.56000000000000005,-0.070000000000000007
437,1782579523381,0.14000000000000001,-0.48999999999999999,0
438,1782579523448,0.20999999999999999,-0.48999999999999999,0.070000000000000007
439,1782579523514,0.20999999999999999,-0.48999999999999999,0.070000000000000007
440,1782579523564,0.20999999999999999,-0.48999999999999999,0
441,1782579523597,0.14000000000000001,-0.48999999999999999,0
442,1782579523614,0.14000000000000001,-0.48999999999999999,0
443,1782579523631,0.14000000000000001,-0.48999999999999999,0
444,1782579523664,0.14000000000000001,-0.48999999999999999,0
445,1782579523697,0.20999999999999999,-0.48999999999999999,0
446,1782579523764,0.20999999999999999,-0.48999999999999999,0
447,1782579523830,0.20999999999999999,-0.48999999999999999,0
448,1782579523897,0.20999999999999999,-0.48999999999999999,0
449,1782579523963,0.20999999999999999,-0.48999999999999999,0
450,1782579524031,0.28000000000000003,-0.56000000000000005,0
451,1782579524047,0.34999999999999998,-0.56000000000000005,0
452,1782579524130,0.14000000000000001,-0.56000000000000005,0
453,1782579524197,0.20999999999999999,-0.48999999999999999,0
454,1782579524214,0.28000000000000003,-0.48999999999999999,0
455,1782579524247,0.20999999999999999,-0.48999999999999999,0
456,1782579524263,0.20999999999999999,-0.56000000000000005,0
457,1782579524313,0.20999999999999999,-0.56000000000000005,0
458,1782579524363,0.20999999999999999,-0.56000000000000005,0
459,1782579524446,0.20999999999999999,-0.56000000000000005,0
460,1782579524480,0.20999999999999999,-0.56000000000000005,0
461,1782579524496,0.20999999999999999,-0.56000000000000005,0
462,1782579524513,0.20999999999999999,-0.48999999999999999,0
463,1782579524563,0.20999999999999999,-0.41999999999999998,-0.070000000000000007
464,1782579524646,0.20999999999999999,-0.56000000000000005,-0.070000000000000007
465,1782579524679,0.20999999999999999,-0.56000000000000005,0
466,1782579524729,0.28000000000000003,-0.56000000000000005,0
467,1782579524747,0.20999999999999999,-0.56000000000000005,0
468,1782579524814,0.20999999999999999,-0.56000000000000005,0
469,1782579524880,0.20999999999999999,-0.48999999999999999,0
470,1782579524963,0.20999999999999999,-0.48999999999999999,0
471,1782579525030,0.20999999999999999,-0.48999999999999999,0
472,1782579525080,0.070000000000000007,-0.56000000000000005,0
473,1782579525130,0.20999999999999999,-0.56000000000000005,0
474,1782579525163,0.14000000000000001,-0.56000000000000005,0
475,1782579525229,0.14000000000000001,-0.56000000000000005,0.070000000000000007
476,1782579525280,0.14000000000000001,-0.56000000000000005,0.070000000000000007
477,1782579525330,0.14000000000000001,-0.48999999999999999,0
478,1782579525414,0.14000000000000001,-0.48999999999999999,0
479,1782579525462,0.20999999999999999,-0.48999999999999999,0
480,1782579525512,0.20999999999999999,-0.48999999999999999,0
481,1782579525563,0.20999999999999999,-0.48999999999999999,0
482,1782579525680,0.28000000000000003,-0.48999999999999999,-0.070000000000000007
483,1782579525746,0.28000000000000003,-0.48999999999999999,-0.070000000000000007
484,1782579525812,0.20999999999999999,-0.48999999999999999,0
485,1782579525895,0.20999999999999999,-0.48999999999999999,0.070000000000000007
486,1782579525946,0.20999999999999999,-0.48999999999999999,0.070000000000000007
487,1782579525963,0.20999999999999999,-0.56000000000000005,0.070000000000000007
488,1782579525978,0.14000000000000001,-0.56000000000000005,0
489,1782579526029,0.14000000000000001,-0.56000000000000005,0
490,1782579526096,0.20999999999999999,-0.56000000000000005,0
491,1782579526112,0.20999999999999999,-0.56000000000000005,0
492,1782579526130,0.28000000000000003,-0.56000000000000005,0
493,1782579526163,0.28000000000000003,-0.56000000000000005,0
494,1782579526179,0.28000000000000003,-0.56000000000000005,0
495,1782579526229,0.20999999999999999,-0.56000000000000005,0
496,1782579526295,0.20999999999999999,-0.56000000000000005,0
497,1782579526345,0.20999999999999999,-0.56000000000000005,0
498,1782579526395,0.20999999999999999,-0.56000000000000005,0.070000000000000007
499,1782579526428,0.20999999999999999,-0.56000000000000005,0
500,1782579526445,0.20999999999999999,-0.56000000000000005,0
501,1782579526512,0.20999999999999999,-0.56000000000000005,0
502,1782579526645,0.28000000000000003,-0.48999999999999999,0
503,1782579526680,0.28000000000000003,-0.48999999999999999,0
504,1782579526696,0.28000000000000003,-0.48999999999999999,0
505,1782579526712,0.20999999999999999,-0.48999999999999999,0.070000000000000007
506,1782579526745,0.28000000000000003,-0.48999999999999999,0.070000000000000007
507,1782579526778,0.14000000000000001,-0.56000000000000005,0.070000000000000007
508,1782579526828,0.14000000000000001,-0.56000000000000005,0.070000000000000007
509,1782579526878,0.20999999999999999,-0.56000000000000005,0
510,1782579526894,0.20999999999999999,-0.56000000000000005,0
511,1782579526912,0.20999999999999999,-0.48999999999999999,0
512,1782579526961,0.20999999999999999,-0.48999999999999999,0
513,1782579527028,0.20999999999999999,-0.48999999999999999,0
514,1782579527178,0.20999999999999999,-0.48999999999999999,0.070000000000000007
515,1782579527244,0.20999999999999999,-0.48999999999999999,0
516,1782579527261,0.20999999999999999,-0.48999999999999999,0
517,1782579527278,0.20999999999999999,-0.48999999999999999,0
518,1782579527328,0.20999999999999999,-0.56000000000000005,0
519,1782579527394,0.20999999999999999,-0.56000000000000005,0.070000000000000007
520,1782579527428,0.20999999999999999,-0.56000000000000005,0.070000000000000007
521,1782579527494,0.28000000000000003,-0.56000000000000005,0.070000000000000007
522,1782579527527,0.28000000000000003,-0.48999999999999999,0.070000000000000007
523,1782579527644,0.20999999999999999,-0.48999999999999999,0.070000000000000007
524,1782579527661,0.20999999999999999,-0.48999999999999999,0
525,1782579527760,0.20999999999999999,-0.56000000000000005,0
526,1782579527827,0.20999999999999999,-0.56000000000000005,0.070000000000000007
527,1782579527877,0.20999999999999999,-0.56000000000000005,0
528,1782579527911,0.20999999999999999,-0.56000000000000005,0.070000000000000007
529,1782579527927,0.20999999999999999,-0.56000000000000005,0
530,1782579527960,0.14000000000000001,-0.48999999999999999,0
531,1782579528010,0.14000000000000001,-0.56000000000000005,0
532,1782579528060,0.14000000000000001,-0.56000000000000005,0
533,1782579528110,0.14000000000000001,-0.56000000000000005,0
534,1782579528177,0.14000000000000001,-0.56000000000000005,0
535,1782579528244,0.28000000000000003,-0.48999999999999999,0
536,1782579528310,0.20999999999999999,-0.56000000000000005,0
537,1782579528377,0.20999999999999999,-0.56000000000000005,0
538,1782579528426,0.20999999999999999,-0.56000000000000005,0
539,1782579528460,0.20999999999999999,-0.48999999999999999,0
540,1782579528493,0.20999999999999999,-0.48999999999999999,0
541,1782579528510,0.20999999999999999,-0.48999999999999999,0
542,1782579528543,0.28000000000000003,-0.56000000000000005,0
543,1782579528627,0.14000000000000001,-0.56000000000000005,0
544,1782579528660,0.14000000000000001,-0.56000000000000005,0
545,1782579528693,0.20999999999999999,-0.56000000000000005,0
546,1782579528726,0.20999999999999999,-0.56000000000000005,0
547,1782579528793,0.20999999999999999,-0.56000000000000005,0
548,1782579528843,0.20999999999999999,-0.56000000000000005,0
549,1782579528976,0.14000000000000001,-0.56000000000000005,0
550,1782579529026,0.14000000000000001,-0.48999999999999999,0
551,1782579529076,0.14000000000000001,-0.48999999999999999,0
552,1782579529110,0.14000000000000001,-0.48999999999999999,0
553,1782579529142,0.20999999999999999,-0.48999999999999999,0
554,1782579529159,0.20999999999999999,-0.48999999999999999,0
555,1782579529176,0.20999999999999999,-0.48999999999999999,0
556,1782579529209,0.070000000000000007,-0.69999999999999996,0
557,1782579529242,0.070000000000000007,-0.69999999999999996,0.070000000000000007
558,1782579529309,0.14000000000000001,-0.69999999999999996,0
559,1782579529376,0.14000000000000001,-0.63,0
560,1782579529409,0.14000000000000001,-0.56000000000000005,0
561,1782579529426,0.20999999999999999,-0.48999999999999999,-0.070000000000000007
562,1782579529442,0.20999999999999999,-0.48999999999999999,-0.070000000000000007
563,1782579529475,0.20999999999999999,-0.48999999999999999,0
564,1782579529509,0.20999999999999999,-0.56000000000000005,0
565,1782579529626,0.20999999999999999,-0.56000000000000005,0
566,1782579529676,0.20999999999999999,-0.56000000000000005,0
567,1782579529709,0.20999999999999999,-0.48999999999999999,0.070000000000000007
568,1782579529792,0.28000000000000003,-0.48999999999999999,0
569,1782579529809,0.28000000000000003,-0.41999999999999998,0
570,1782579529826,0.28000000000000003,-0.41999999999999998,0.070000000000000007
571,1782579529859,0.14000000000000001,-0.41999999999999998,0.070000000000000007
572,1782579529909,0.14000000000000001,-0.48999999999999999,0.070000000000000007
573,1782579530025,0.20999999999999999,-0.48999999999999999,0
574,1782579530059,0.20999999999999999,-0.48999999999999999,0
575,1782579530125,0.20999999999999999,-0.48999999999999999,0
576,1782579530142,0.20999999999999999,-0.48999999999999999,0
577,1782579530159,0.20999999999999999,-0.48999999999999999,0
578,1782579530258,0.14000000000000001,-0.48999999999999999,0
579,1782579530391,0.14000000000000001,-0.56000000000000005,0
580,1782579530425,0.14000000000000001,-0.56000000000000005,0
581,1782579530442,0.14000000000000001,-0.56000000000000005,0
582,1782579530475,0.14000000000000001,-0.56000000000000005,0
583,1782579530541,0.20999999999999999,-0.56000000000000005,0
584,1782579530692,0.20999999999999999,-0.48999999999999999,0
585,1782579530708,0.20999999999999999,-0.56000000000000005,0
586,1782579530741,0.20999999999999999,-0.56000000000000005,0
587,1782579530758,0.20999999999999999,-0.56000000000000005,0
588,1782579530791,0.20999999999999999,-0.48999999999999999,0
589,1782579530875,0.20999999999999999,-0.56000000000000005,0
590,1782579530908,0.20999999999999999,-0.56000000000000005,0.070000000000000007
591,1782579530958,0.20999999999999999,-0.56000000000000005,0
592,1782579531024,0.20999999999999999,-0.56000000000000005,0.070000000000000007
593,1782579531058,0.20999999999999999,-0.56000000000000005,0.070000000000000007
594,1782579531124,0.20999999999999999,-0.56000000000000005,0.070000000000000007
595,1782579531191,0.28000000000000003,-0.56000000000000005,0
596,1782579531291,0.28000000000000003,-0.56000000000000005,0
597,1782579531357,0.28000000000000003,-0.56000000000000005,0
598,1782579531391,0.28000000000000003,-0.56000000000000005,0.070000000000000007
599,1782579531457,0.20999999999999999,-0.56000000000000005,0
600,1782579531508,0.20999999999999999,-0.56000000000000005,0
601,1782579531574,0.20999999999999999,-0.56000000000000005,0
602,1782579531641,0.28000000000000003,-0.48999999999999999,0
603,1782579531707,0.28000000000000003,-0.48999999999999999,0
604,1782579531724,0.14000000000000001,-0.48999999999999999,0
605,1782579531774,0.14000000000000001,-0.48999999999999999,0
606,1782579531974,0.14000000000000001,-0.48999999999999999,0.070000000000000007
607,1782579531990,0.070000000000000007,-0.41999999999999998,0
608,1782579532007,0.070000000000000007,-0.48999999999999999,0
609,1782579532107,0.070000000000000007,-0.48999999999999999,0
610,1782579532157,0.34999999999999998,-0.48999999999999999,0
611,1782579532207,0.41999999999999998,-0.48999999999999999,0.070000000000000007
612,1782579532257,0.070000000000000007,-0.56000000000000005,0
613,1782579532290,0.070000000000000007,-0.56000000000000005,0
614,1782579532356,0.20999999999999999,-0.56000000000000005,0
615,1782579532373,0.20999999999999999,-0.56000000000000005,0
616,1782579532423,0.28000000000000003,-0.56000000000000005,0
617,1782579532540,0.14000000000000001,-0.56000000000000005,0
618,1782579532573,0.20999999999999999,-0.56000000000000005,0
619,1782579532590,0.20999999999999999,-0.56000000000000005,0
620,1782579532623,0.20999999999999999,-0.56000000000000005,0
621,1782579532639,0.20999999999999999,-0.56000000000000005,0
622,1782579532773,0.20999999999999999,-0.56000000000000005,0
623,1782579532823,0.20999999999999999,-0.41999999999999998,0
624,1782579532856,0.20999999999999999,-0.41999999999999998,0
625,1782579532873,0.20999999999999999,-0.48999999999999999,0
626,1782579532906,0.20999999999999999,-0.48999999999999999,0
627,1782579532989,0.20999999999999999,-0.56000000000000005,0
628,1782579533072,0.20999999999999999,-0.56000000000000005,0
629,1782579533122,0.28000000000000003,-0.56000000000000005,0
630,1782579533239,0.28000000000000003,-0.56000000000000005,0
631,1782579533289,0.28000000000000003,-0.48999999999999999,0
632,1782579533306,0.28000000000000003,-0.48999999999999999,0
633,1782579533323,0.20999999999999999,-0.56000000000000005,0.070000000000000007
634,1782579533356,0.20999999999999999,-0.48999999999999999,0.070000000000000007
635,1782579533422,0.20999999999999999,-0.48999999999999999,0.070000000000000007
636,1782579533472,0.20999999999999999,-0.63,0
637,1782579533539,0.20999999999999999,-0.56000000000000005,0
638,1782579533622,0.20999999999999999,-0.48999999999999999,0
639,1782579533689,0.20999999999999999,-0.56000000000000005,0
640,1782579533705,0.28000000000000003,-0.48999999999999999,0
641,1782579533739,0.28000000000000003,-0.48999999999999999,0
642,1782579533772,0.20999999999999999,-0.48999999999999999,0
643,1782579533839,0.14000000000000001,-0.48999999999999999,-0.070000000000000007
644,1782579533889,0.14000000000000001,-0.56000000000000005,0
645,1782579533938,0.14000000000000001,-0.56000000000000005,0
646,1782579534039,0.14000000000000001,-0.56000000000000005,0
647,1782579534089,0.070000000000000007,-0.56000000000000005,0
648,1782579534138,0.070000000000000007,-0.56000000000000005,0
649,1782579534205,0.14000000000000001,-0.56000000000000005,0
650,1782579534255,0.20999999999999999,-0.63,0
651,1782579534305,0.20999999999999999,-0.63,0
652,1782579534338,0.20999999999999999,-0.63,0
653,1782579534438,0.20999999999999999,-0.63,0
654,1782579534521,0.20999999999999999,-0.56000000000000005,0.070000000000000007
655,1782579534538,0.20999999999999999,-0.63,0.070000000000000007
656,1782579534571,0.20999999999999999,-0.56000000000000005,0.070000000000000007
657,1782579534588,0.28000000000000003,-0.56000000000000005,0.070000000000000007
658,1782579534621,0.28000000000000003,-0.56000000000000005,0
659,1782579534654,0.28000000000000003,-0.56000000000000005,0
660,1782579534788,0.28000000000000003,-0.48999999999999999,0
661,1782579534821,0.28000000000000003,-0.56000000000000005,0
662,1782579534838,0.28000000000000003,-0.48999999999999999,0
663,1782579534854,0.28000000000000003,-0.56000000000000005,0
664,1782579534888,0.28000000000000003,-0.56000000000000005,0
665,1782579534954,0.28000000000000003,-0.48999999999999999,0
666,1782579535004,0.28000000000000003,-0.48999999999999999,0
667,1782579535137,0.20999999999999999,-0.48999999999999999,0
668,1782579535221,0.20999999999999999,-0.48999999999999999,0
669,1782579535237,0.28000000000000003,-0.48999999999999999,0
670,1782579535288,0.28000000000000003,-0.48999999999999999,0
671,1782579535354,0.28000000000000003,-0.48999999999999999,0
672,1782579535387,0.20999999999999999,-0.48999999999999999,0
673,1782579535404,0.20999999999999999,-0.48999999999999999,0
674,1782579535438,0.20999999999999999,-0.56000000000000005,0
675,1782579535504,0.20999999999999999,-0.56000000000000005,0
676,1782579535537,0.20999999999999999,-0.56000000000000005,0
677,1782579535587,0.20999999999999999,-0.56000000000000005,0
678,1782579535670,0.20999999999999999,-0.48999999999999999,0
679,1782579535704,0.20999999999999999,-0.56000000000000005,0
680,1782579535737,0.20999999999999999,-0.56000000000000005,0
681,1782579535754,0.20999999999999999,-0.56000000000000005,0
682,1782579535770,0.20999999999999999,-0.56000000000000005,0
683,1782579535820,0.20999999999999999,-0.56000000000000005,0
684,1782579535887,0.14000000000000001,-0.56000000000000005,0
685,1782579535920,0.14000000000000001,-0.56000000000000005,0.070000000000000007
686,1782579535987,0.14000000000000001,-0.56000000000000005,0.070000000000000007
687,1782579536021,0.14000000000000001,-0.41999999999999998,0
688,1782579536087,0.20999999999999999,-0.41999999999999998,0.070000000000000007
689,1782579536137,0.28000000000000003,-0.41999999999999998,0
690,1782579536186,0.28000000000000003,-0.41999999999999998,0
691,1782579536253,0.20999999999999999,-0.48999999999999999,0
692,1782579536270,0.20999999999999999,-0.48999999999999999,0
693,1782579536353,0.20999999999999999,-0.48999999999999999,0
694,1782579536403,0.20999999999999999,-0.48999999999999999,0
695,1782579536437,0.20999999999999999,-0.48999999999999999,0
696,1782579536503,0.20999999999999999,-0.48999999999999999,0
697,1782579536520,0.20999999999999999,-0.56000000000000005,0
698,1782579536537,0.20999999999999999,-0.56000000000000005,0
699,1782579536569,0.20999999999999999,-0.56000000000000005,0
700,1782579536603,0.14000000000000001,-0.48999999999999999,0
701,1782579536653,0.14000000000000001,-0.48999999999999999,0.070000000000000007
702,1782579536703,0.14000000000000001,-0.48999999999999999,0.070000000000000007
703,1782579536769,0.14000000000000001,-0.48999999999999999,0.070000000000000007
704,1782579536819,0.14000000000000001,-0.56000000000000005,0.070000000000000007
705,1782579536869,0.20999999999999999,-0.56000000000000005,0
706,1782579536936,0.20999999999999999,-0.56000000000000005,0
707,1782579537003,0.20999999999999999,-0.63,-0.070000000000000007
708,1782579537052,0.20999999999999999,-0.63,0
709,1782579537102,0.20999999999999999,-0.56000000000000005,0
710,1782579537119,0.20999999999999999,-0.48999999999999999,0
711,1782579537186,0.20999999999999999,-0.48999999999999999,0
712,1782579537252,0.20999999999999999,-0.56000000000000005,0.070000000000000007
713,1782579537319,0.14000000000000001,-0.48999999999999999,0
714,1782579537385,0.14000000000000001,-0.48999999999999999,0
715,1782579537419,0.20999999999999999,-0.48999999999999999,0
716,1782579537436,0.20999999999999999,-0.48999999999999999,0
717,1782579537453,0.20999999999999999,-0.48999999999999999,0
718,1782579537519,0.20999999999999999,-0.48999999999999999,0.070000000000000007
719,1782579537585,0.20999999999999999,-0.48999999999999999,0
720,1782579537636,0.20999999999999999,-0.48999999999999999,0
721,1782579537669,0.20999999999999999,-0.48999999999999999,0
722,1782579537703,0.20999999999999999,-0.56000000000000005,0
723,1782579537818,0.20999999999999999,-0.56000000000000005,0
724,1782579537869,0.20999999999999999,-0.56000000000000005,0
725,1782579537902,0.20999999999999999,-0.56000000000000005,0
726,1782579537935,0.14000000000000001,-0.56000000000000005,0
727,1782579537968,0.20999999999999999,-0.56000000000000005,0
728,1782579538068,0.20999999999999999,-0.56000000000000005,0
729,1782579538102,0.20999999999999999,-0.56000000000000005,0
730,1782579538152,0.28000000000000003,-0.56000000000000005,0
731,1782579538218,0.28000000000000003,-0.56000000000000005,0
732,1782579538268,0.28000000000000003,-0.56000000000000005,0
733,1782579538285,0.28000000000000003,-0.41999999999999998,0
734,1782579538335,0.20999999999999999,-0.41999999999999998,0
735,1782579538402,0.20999999999999999,-0.48999999999999999,0
736,1782579538451,0.20999999999999999,-0.48999999999999999,0.070000000000000007
737,1782579538501,0.20999999999999999,-0.48999999999999999,0.070000000000000007
738,1782579538551,0.20999999999999999,-0.56000000000000005,0.070000000000000007
739,1782579538601,0.28000000000000003,-0.56000000000000005,0
740,1782579538652,0.28000000000000003,-0.56000000000000005,0
741,1782579538685,0.20999999999999999,-0.56000000000000005,0
742,1782579538751,0.20999999999999999,-0.56000000000000005,0
743,1782579538835,0.14000000000000001,-0.56000000000000005,0
744,1782579538902,0.14000000000000001,-0.48999999999999999,0
745,1782579538968,0.14000000000000001,-0.48999999999999999,0
746,1782579539034,0.20999999999999999,-0.48999999999999999,0
747,1782579539068,0.20999999999999999,-0.56000000000000005,0
748,1782579539117,0.20999999999999999,-0.48999999999999999,0
749,1782579539201,0.14000000000000001,-0.48999999999999999,0
750,1782579539234,0.14000000000000001,-0.48999999999999999,0
751,1782579539300,0.14000000000000001,-0.48999999999999999,0
752,1782579539417,0.14000000000000001,-0.48999999999999999,0
753,1782579539534,0.20999999999999999,-0.48999999999999999,0
754,1782579539617,0.20999999999999999,-0.56000000000000005,0
755,1782579539667,0.20999999999999999,-0.56000000000000005,0
756,1782579539751,0.20999999999999999,-0.48999999999999999,0
757,1782579539835,0.20999999999999999,-0.56000000000000005,0
758,1782579539884,0.20999999999999999,-0.63,0
759,1782579539933,0.20999999999999999,-0.63,0.070000000000000007
760,1782579540000,0.14000000000000001,-0.48999999999999999,0
761,1782579540050,0.20999999999999999,-0.56000000000000005,0
762,1782579540100,0.20999999999999999,-0.56000000000000005,0
763,1782579540166,0.20999999999999999,-0.56000000000000005,0
764,1782579540216,0.34999999999999998,-0.56000000000000005,0
765,1782579540266,0.41999999999999998,-0.41999999999999998,0.070000000000000007
766,1782579540333,0.41999999999999998,-0.41999999999999998,0.070000000000000007
767,1782579540401,0.41999999999999998,-0.41999999999999998,0.070000000000000007
768,1782579540517,0,-0.56000000000000005,0.070000000000000007
769,1782579540566,0.14000000000000001,-0.56000000000000005,0
770,1782579540616,0.14000000000000001,-0.56000000000000005,-0.070000000000000007
771,1782579540666,0.14000000000000001,-0.56000000000000005,-0.070000000000000007
772,1782579540733,0.14000000000000001,-0.56000000000000005,-0.070000000000000007
773,1782579540783,0.14000000000000001,-0.48999999999999999,0
774,1782579540817,0.14000000000000001,-0.48999999999999999,-0.070000000000000007
775,1782579540866,0.14000000000000001,-0.48999999999999999,0
776,1782579540932,0.20999999999999999,-0.48999999999999999,0
777,1782579540967,0.14000000000000001,-0.48999999999999999,0
778,1782579541051,0.14000000000000001,-0.48999999999999999,0
779,1782579541099,0.14000000000000001,-0.56000000000000005,0
780,1782579541133,0.14000000000000001,-0.56000000000000005,0
781,1782579541149,0.20999999999999999,-0.56000000000000005,0
782,1782579541199,0.20999999999999999,-0.56000000000000005,0
783,1782579541216,0.20999999999999999,-0.63,0
784,1782579541266,0.28000000000000003,-0.63,0
785,1782579541382,0.20999999999999999,-0.63,0
786,1782579541449,0.20999999999999999,-0.63,0
787,1782579541482,0.20999999999999999,-0.56000000000000005,0
788,1782579541532,0.20999999999999999,-0.56000000000000005,0
789,1782579541599,0.20999999999999999,-0.56000000000000005,0
790,1782579541615,0.20999999999999999,-0.56000000000000005,0
791,1782579541632,0.20999999999999999,-0.56000000000000005,0
792,1782579541666,0.14000000000000001,-0.56000000000000005,0
793,1782579541765,0.14000000000000001,-0.56000000000000005,0
794,1782579541833,0.20999999999999999,-0.48999999999999999,0.070000000000000007
795,1782579541849,0.20999999999999999,-0.48999999999999999,0
796,1782579541883,0.28000000000000003,-0.48999999999999999,0
797,1782579541916,0.20999999999999999,-0.56000000000000005,0
798,1782579541982,0.20999999999999999,-0.56000000000000005,0
799,1782579542049,0.20999999999999999,-0.48999999999999999,0
800,1782579542083,0.20999999999999999,-0.48999999999999999,0
801,1782579542098,0.20999999999999999,-0.48999999999999999,0
802,1782579542115,0.28000000000000003,-0.48999999999999999,0
803,1782579542149,0.28000000000000003,-0.48999999999999999,0
804,1782579542182,0.20999999999999999,-0.48999999999999999,-0.070000000000000007
805,1782579542250,0.20999999999999999,-0.48999999999999999,0
806,1782579542282,0.20999999999999999,-0.56000000000000005,0
807,1782579542381,0.14000000000000001,-0.56000000000000005,0
808,1782579542398,0.14000000000000001,-0.56000000000000005,0
809,1782579542431,0.14000000000000001,-0.48999999999999999,0
810,1782579542482,0.14000000000000001,-0.48999999999999999,0
811,1782579542531,0.14000000000000001,-0.48999999999999999,0
812,1782579542615,0.20999999999999999,-0.48999999999999999,0
813,1782579542664,0.28000000000000003,-0.56000000000000005,0
814,1782579542698,0.20999999999999999,-0.56000000000000005,0
815,1782579542781,0.20999999999999999,-0.56000000000000005,0
816,1782579542831,0.20999999999999999,-0.56000000000000005,0
817,1782579542882,0.20999999999999999,-0.56000000000000005,0
818,1782579542897,0.20999999999999999,-0.48999999999999999,0
819,1782579542948,0.20999999999999999,-0.48999999999999999,0
820,1782579542981,0.20999999999999999,-0.48999999999999999,0
821,1782579542999,0.14000000000000001,-0.48999999999999999,0
822,1782579543031,0.20999999999999999,-0.48999999999999999,0
823,1782579543081,0.20999999999999999,-0.48999999999999999,0
824,1782579543131,0.14000000000000001,-0.48999999999999999,0
825,1782579543181,0.14000000000000001,-0.56000000000000005,0
826,1782579543247,0.20999999999999999,-0.56000000000000005,-0.070000000000000007
827,1782579543314,0.20999999999999999,-0.56000000000000005,0
828,1782579543348,0.20999999999999999,-0.48999999999999999,0
829,1782579543414,0.20999999999999999,-0.48999999999999999,0
830,1782579543464,0.28000000000000003,-0.48999999999999999,0
831,1782579543531,0.28000000000000003,-0.48999999999999999,0
832,1782579543564,0.20999999999999999,-0.48999999999999999,0
833,1782579543598,0.20999999999999999,-0.56000000000000005,0
834,1782579543663,0.20999999999999999,-0.56000000000000005,0
835,1782579543714,0.20999999999999999,-0.56000000000000005,0
836,1782579543780,0.20999999999999999,-0.56000000000000005,0
837,1782579543897,0.20999999999999999,-0.56000000000000005,0
838,1782579543930,0.20999999999999999,-0.56000000000000005,0
839,1782579543997,0.20999999999999999,-0.56000000000000005,0
840,1782579544030,0.20999999999999999,-0.56000000000000005,0
841,1782579544081,0.20999999999999999,-0.63,0
842,1782579544130,0.20999999999999999,-0.56000000000000005,0
843,1782579544180,0.20999999999999999,-0.56000000000000005,0
844,1782579544263,0.20999999999999999,-0.48999999999999999,0
845,1782579544314,0.14000000000000001,-0.48999999999999999,0
846,1782579544346,0.14000000000000001,-0.48999999999999999,-0.070000000000000007
847,1782579544380,0.14000000000000001,-0.48999999999999999,-0.070000000000000007
848,1782579544398,0.28000000000000003,-0.48999999999999999,0
849,1782579544447,0.28000000000000003,-0.48999999999999999,0
850,1782579544546,0.28000000000000003,-0.48999999999999999,0
851,1782579544597,0.28000000000000003,-0.48999999999999999,0
852,1782579544647,0.20999999999999999,-0.48999999999999999,0
853,1782579544830,0.20999999999999999,-0.56000000000000005,0.070000000000000007
854,1782579544863,0.14000000000000001,-0.56000000000000005,0
855,1782579544929,0.14000000000000001,-0.56000000000000005,0
856,1782579544980,0.20999999999999999,-0.56000000000000005,0
857,1782579545079,0.20999999999999999,-0.56000000000000005,0
858,1782579545129,0.20999999999999999,-0.56000000000000005,-0.070000000000000007
859,1782579545179,0.20999999999999999,-0.63,-0.070000000000000007
860,1782579545229,0.20999999999999999,-0.63,-0.070000000000000007
861,1782579545262,0.14000000000000001,-0.56000000000000005,0.070000000000000007
862,1782579545329,0.14000000000000001,-0.56000000000000005,0.070000000000000007
863,1782579545446,0.14000000000000001,-0.56000000000000005,0.070000000000000007
864,1782579545496,0.20999999999999999,-0.56000000000000005,0.070000000000000007
865,1782579545529,0.28000000000000003,-0.48999999999999999,0.070000000000000007
866,1782579545545,0.28000000000000003,-0.48999999999999999,0.070000000000000007
867,1782579545579,0.28000000000000003,-0.48999999999999999,0.070000000000000007
868,1782579545612,0.28000000000000003,-0.48999999999999999,0
869,1782579545645,0.20999999999999999,-0.48999999999999999,0
870,1782579545679,0.20999999999999999,-0.48999999999999999,0
871,1782579545746,0.20999999999999999,-0.48999999999999999,0
872,1782579545795,0.20999999999999999,-0.48999999999999999,-0.070000000000000007
873,1782579545845,0.14000000000000001,-0.56000000000000005,-0.070000000000000007
874,1782579545895,0.14000000000000001,-0.56000000000000005,-0.070000000000000007
875,1782579545912,0.14000000000000001,-0.56000000000000005,0
876,1782579545962,0.14000000000000001,-0.48999999999999999,0
877,1782579545995,0.14000000000000001,-0.56000000000000005,0
878,1782579546061,0.14000000000000001,-0.56000000000000005,0
879,1782579546112,0.14000000000000001,-0.56000000000000005,0
880,1782579546162,0.14000000000000001,-0.56000000000000005,0
881,1782579546212,0.14000000000000001,-0.56000000000000005,0
882,1782579546262,0.28000000000000003,-0.56000000000000005,0
883,1782579546361,0.28000000000000003,-0.48999999999999999,0
884,1782579546462,0.28000000000000003,-0.48999999999999999,0
885,1782579546545,0.14000000000000001,-0.48999999999999999,0
886,1782579546594,0.14000000000000001,-0.48999999999999999,0
887,1782579546661,0.14000000000000001,-0.48999999999999999,0
888,1782579546761,0.14000000000000001,-0.48999999999999999,0
889,1782579546811,0.14000000000000001,-0.48999999999999999,0.070000000000000007
890,1782579546862,0.14000000000000001,-0.56000000000000005,0.070000000000000007
891,1782579546945,0.14000000000000001,-0.56000000000000005,0.070000000000000007
892,1782579546995,0.14000000000000001,-0.56000000000000005,0
893,1782579547045,0.14000000000000001,-0.56000000000000005,0
894,1782579547095,0.14000000000000001,-0.48999999999999999,0.070000000000000007
895,1782579547129,0.14000000000000001,-0.48999999999999999,0.070000000000000007
896,1782579547194,0.20999999999999999,-0.48999999999999999,0.070000000000000007
897,1782579547227,0.20999999999999999,-0.48999999999999999,0.070000000000000007
898,1782579547311,0.20999999999999999,-0.56000000000000005,0
899,1782579547494,0.20999999999999999,-0.48999999999999999,0
900,1782579547527,0.20999999999999999,-0.56000000000000005,0
901,1782579547594,0.20999999999999999,-0.56000000000000005,0
902,1782579547660,0.20999999999999999,-0.48999999999999999,0
903,1782579547694,0.20999999999999999,-0.56000000000000005,0
904,1782579547761,0.20999999999999999,-0.63,0
905,1782579547793,0.20999999999999999,-0.63,0
906,1782579547843,0.20999999999999999,-0.63,0
907,1782579547893,0.28000000000000003,-0.56000000000000005,0.070000000000000007
908,1782579547960,0.20999999999999999,-0.56000000000000005,0
909,1782579547994,0.20999999999999999,-0.41999999999999998,0
910,1782579548043,0.28000000000000003,-0.34999999999999998,-0.070000000000000007
911,1782579548110,0.14000000000000001,-0.28000000000000003,-0.14000000000000001
912,1782579548144,0.070000000000000007,-0.20999999999999999,-0.20999999999999999
913,1782579548210,0.070000000000000007,-0.20999999999999999,-0.28000000000000003
914,1782579548243,0.070000000000000007,0.41999999999999998,-0.48999999999999999
915,1782579548260,-0.070000000000000007,-0.070000000000000007,-0.63
916,1782579548310,0.14000000000000001,0.14000000000000001,-1.6100000000000001
917,1782579548360,0.28000000000000003,0.14000000000000001,-1.75
918,1782579548394,0.34999999999999998,0.070000000000000007,-1.75
919,1782579548443,0.34999999999999998,-0.070000000000000007,-1.75
920,1782579548493,0.34999999999999998,-0.28000000000000003,-1.6799999999999999
921,1782579548543,0.34999999999999998,-0.34999999999999998,-1.47
922,1782579548659,0.28000000000000003,-0.63,-1.3999999999999999
923,1782579548726,0.14000000000000001,-0.63,-1.26
924,1782579548743,0,-0.34999999999999998,-1.26
925,1782579548760,-0.14000000000000001,-0.34999999999999998,-1.1200000000000001
926,1782579548809,-0.14000000000000001,-0.34999999999999998,-1.1200000000000001
927,1782579548826,0.20999999999999999,-0.28000000000000003,-1.6799999999999999
928,1782579548893,0.20999999999999999,-0.28000000000000003,-1.6799999999999999
929,1782579548943,0.070000000000000007,-0.20999999999999999,-1.6100000000000001
930,1782579548993,0,-0.20999999999999999,-1.47
931,1782579549009,-0.070000000000000007,-0.20999999999999999,-1.3300000000000001
932,1782579549043,-0.14000000000000001,-0.20999999999999999,-1.1200000000000001
933,1782579549142,0.070000000000000007,-0.20999999999999999,-1.3300000000000001
934,1782579549192,-0.14000000000000001,-0.34999999999999998,-1.1200000000000001
935,1782579549242,-0.14000000000000001,-0.41999999999999998,-1.1200000000000001
936,1782579549292,-0.14000000000000001,-0.41999999999999998,-1.1200000000000001
937,1782579549325,0.070000000000000007,-0.41999999999999998,-1.1200000000000001
938,1782579549342,0.070000000000000007,-0.41999999999999998,-1.3999999999999999
939,1782579549392,0.41999999999999998,-0.14000000000000001,-2.3799999999999999
940,1782579549442,0.14000000000000001,-0.20999999999999999,-1.96
941,1782579549576,0.14000000000000001,-0.41999999999999998,-1.6100000000000001
942,1782579549626,0.28000000000000003,-0.48999999999999999,-1.3300000000000001
943,1782579549728,0.34999999999999998,-0.48999999999999999,-2.5899999999999999
944,1782579549792,0.34999999999999998,-0.41999999999999998,-2.52
945,1782579549892,0.34999999999999998,-0.41999999999999998,-2.2400000000000002
946,1782579549925,-0.20999999999999999,-0.77000000000000002,-3.0800000000000001
947,1782579549958,0,-0.77000000000000002,-3.0800000000000001
948,1782579550025,0,-0.77000000000000002,-3.0800000000000001
949,1782579550075,0.14000000000000001,-0.77000000000000002,-3.1499999999999999
950,1782579550142,0.14000000000000001,-0.63,-3.1499999999999999
951,1782579550208,0.48999999999999999,-0.41999999999999998,-4.2699999999999996
952,1782579550241,0.070000000000000007,-0.41999999999999998,-4.3399999999999999
953,1782579550308,-0.14000000000000001,-0.41999999999999998,-4.4800000000000004
954,1782579550359,-0.20999999999999999,-0.63,-4.5499999999999998
955,1782579550442,-0.20999999999999999,-0.63,-4.5499999999999998
956,1782579550475,-0.14000000000000001,-0.63,-4.6900000000000004
957,1782579550542,0.41999999999999998,-0.77000000000000002,-6.79
958,1782579550609,0.41999999999999998,-0.77000000000000002,-6.79
959,1782579550642,0.41999999999999998,-0.77000000000000002,-6.79
960,1782579550708,0,-1.1200000000000001,-6.79
961,1782579550758,-0.070000000000000007,-1.1200000000000001,-6.79
962,1782579550775,-0.070000000000000007,-0.28000000000000003,-6.79
963,1782579550908,-0.48999999999999999,-0.77000000000000002,-7.9100000000000001
964,1782579551025,-0.20999999999999999,-0.56000000000000005,-8.75
965,1782579551057,-0.070000000000000007,0.070000000000000007,-8.8200000000000003
966,1782579551091,-0.070000000000000007,0.070000000000000007,-8.8200000000000003
967,1782579551158,-0.070000000000000007,-0.070000000000000007,-8.9600000000000009
968,1782579551192,0.63,-0.070000000000000007,-8.9600000000000009
969,1782579551275,-0.070000000000000007,-0.48999999999999999,-8.8900000000000006
970,1782579551291,-0.14000000000000001,-1.1899999999999999,-9.3100000000000005
971,1782579551374,-0.14000000000000001,-0.69999999999999996,-9.4499999999999993
972,1782579551391,-0.14000000000000001,-0.69999999999999996,-9.5899999999999999
973,1782579551440,0.070000000000000007,-0.63,-9.5899999999999999
974,1782579551507,0.070000000000000007,-0.63,-9.5899999999999999
975,1782579551541,0.070000000000000007,-0.56000000000000005,-9.4499999999999993
976,1782579551590,-0.14000000000000001,-0.20999999999999999,-10.289999999999999
977,1782579551640,-0.14000000000000001,-0.20999999999999999,-10.359999999999999
978,1782579551673,-0.14000000000000001,-0.41999999999999998,-10.43
979,1782579551707,-0.14000000000000001,-0.41999999999999998,-10.5
980,1782579551807,-0.14000000000000001,-0.48999999999999999,-10.640000000000001
981,1782579551858,-0.56000000000000005,-0.41999999999999998,-10.85
982,1782579551940,-0.63,-0.41999999999999998,-10.85
983,1782579551973,-0.63,-0.41999999999999998,-10.85
984,1782579552090,-0.28000000000000003,-1.3300000000000001,-11.69
985,1782579552140,-0.48999999999999999,-1.3300000000000001,-11.69
986,1782579552190,-0.28000000000000003,-1.3300000000000001,-11.83
987,1782579552240,-0.48999999999999999,-1.05,-11.970000000000001
988,1782579552323,-0.69999999999999996,-0.83999999999999997,-12.039999999999999
989,1782579552373,-0.070000000000000007,-0.070000000000000007,-13.58
990,1782579552407,-0.97999999999999998,-0.91000000000000003,-13.51
991,1782579552457,-0.97999999999999998,-1.96,-13.369999999999999
992,1782579552507,-1.05,-1.96,-13.23
993,1782579552574,-1.05,-1.96,-13.23
994,1782579552640,-0.34999999999999998,-1.05,-15.960000000000001
995,1782579552706,-0.34999999999999998,-0.070000000000000007,-15.960000000000001
996,1782579552773,-0.34999999999999998,0.070000000000000007,-16.030000000000001
997,1782579552823,-0.34999999999999998,0.070000000000000007,-15.960000000000001
998,1782579552890,-0.34999999999999998,0.070000000000000007,-15.960000000000001
999,1782579552939,-0.83999999999999997,0.97999999999999998,-17.920000000000002
1000,1782579552989,-0.83999999999999997,0.97999999999999998,-17.780000000000001
1001,1782579553056,-0.83999999999999997,0.83999999999999997,-17.710000000000001
1002,1782579553106,-0.83999999999999997,0.83999999999999997,-17.5
1003,1782579553173,0.070000000000000007,0.91000000000000003,-17.43
1004,1782579553239,0.20999999999999999,0.48999999999999999,-18.690000000000001
1005,1782579553289,-1.05,0.28000000000000003,-18.829999999999998
1006,1782579553389,-1.05,0.28000000000000003,-18.829999999999998
1007,1782579553439,0.69999999999999996,-2.5899999999999999,-23.170000000000002
1008,1782579553555,0.48999999999999999,-1.05,-23.170000000000002
1009,1782579553589,0.41999999999999998,-1.05,-23.170000000000002
1010,1782579553655,-0.20999999999999999,-1.05,-23.100000000000001
1011,1782579553722,0.20999999999999999,-0.83999999999999997,-27.789999999999999
1012,1782579553739,-0.34999999999999998,-1.05,-27.93
1013,1782579553755,-0.63,-1.05,-28.559999999999999
1014,1782579553806,-0.83999999999999997,-0.48999999999999999,-28.559999999999999
1015,1782579553872,-1.3999999999999999,-0.56000000000000005,-28.559999999999999
1016,1782579553938,-2.3100000000000001,-0.48999999999999999,-28.559999999999999
1017,1782579553938,0.14000000000000001,2.8700000000000001,-32.270000000000003
1018,1782579553972,0.070000000000000007,2.9399999999999999,-31.920000000000002
1019,1782579554038,-0.070000000000000007,2.9399999999999999,-31.57
1020,1782579554071,-0.070000000000000007,1.8899999999999999,-31.219999999999999
1021,1782579554105,-0.69999999999999996,1.6100000000000001,-31.079999999999998
1022,1782579554171,-0.69999999999999996,-0.48999999999999999,-30.940000000000001
1023,1782579554223,-3.5699999999999998,-2.8700000000000001,-33.810000000000002
1024,1782579554305,-3.5699999999999998,-2.9399999999999999,-33.670000000000002
1025,1782579554371,-2.2400000000000002,-2.8700000000000001,-33.600000000000001
1026,1782579554405,-2.2400000000000002,-0.20999999999999999,-33.600000000000001
1027,1782579554504,0.77000000000000002,-2.73,-35.07
1028,1782579554605,-1.6100000000000001,-2.73,-35.07
1029,1782579554654,-2.6600000000000001,-1.3300000000000001,-35.07
1030,1782579554705,-3.2200000000000002,-1.05,-35.350000000000001
1031,1782579554721,0.28000000000000003,-3.9199999999999999,-35.490000000000002
1032,1782579554755,0.28000000000000003,-3.5,-35.630000000000003
1033,1782579554788,0.28000000000000003,-0.77000000000000002,-35.700000000000003
1034,1782579554888,0.20999999999999999,-0.56000000000000005,-35.909999999999997
1035,1782579554989,0.34999999999999998,-4.1299999999999999,-33.25
1036,1782579555005,0.34999999999999998,-4.1299999999999999,-32.759999999999998
1037,1782579555038,0,-3.1499999999999999,-32.479999999999997
1038,1782579555071,0.34999999999999998,-2.2400000000000002,-32.270000000000003
1039,1782579555122,-0.34999999999999998,-2.2400000000000002,-32.060000000000002
1040,1782579555171,-1.75,0.070000000000000007,-31.289999999999999
1041,1782579555271,-1.8200000000000001,0.070000000000000007,-31.219999999999999
1042,1782579555337,-3.1499999999999999,-2.0299999999999998,-21.350000000000001
1043,1782579555404,-2.2400000000000002,-2.7999999999999998,-20.93
1044,1782579555437,-2.2400000000000002,-2.0299999999999998,-20.579999999999998
1045,1782579555503,-1.05,-0.77000000000000002,-19.739999999999998
1046,1782579555553,0.69999999999999996,-0.77000000000000002,-19.739999999999998
1047,1782579555588,0.77000000000000002,0.20999999999999999,-19.600000000000001
1048,1782579555754,-1.75,1.3999999999999999,-18.690000000000001
1049,1782579555803,-1.75,4.0599999999999996,-18.059999999999999
1050,1782579555887,-4.0599999999999996,3.3599999999999999,-15.68
1051,1782579555920,-4.0599999999999996,1.26,-15.82
1052,1782579555953,-4.0599999999999996,3.3599999999999999,-16.309999999999999
1053,1782579556053,-3.0800000000000001,0.34999999999999998,-16.309999999999999
1054,1782579556136,-5.8099999999999996,0.34999999999999998,-15.050000000000001
1055,1782579556187,-5.3200000000000003,-0.28000000000000003,-14.98
1056,1782579556220,-0.63,0.34999999999999998,-15.050000000000001
1057,1782579556237,0.14000000000000001,0.34999999999999998,-15.050000000000001
1058,1782579556254,0.91000000000000003,-0.28000000000000003,-15.050000000000001
1059,1782579556336,0.91000000000000003,0.69999999999999996,-15.050000000000001
1060,1782579556403,-3.3599999999999999,1.6100000000000001,-15.26
1061,1782579556470,-3.5699999999999998,0.97999999999999998,-15.119999999999999
1062,1782579556520,-3.5699999999999998,0.56000000000000005,-15.050000000000001
1063,1782579556636,3.9900000000000002,-2.3100000000000001,-17.710000000000001
1064,1782579556703,1.75,-2.3100000000000001,-17.710000000000001
1065,1782579556820,-0.41999999999999998,-2.3100000000000001,-17.710000000000001
1066,1782579556820,-0.48999999999999999,-6.2300000000000004,-18.48
1067,1782579556852,-0.91000000000000003,-6.2300000000000004,-18.48
1068,1782579556869,-2.52,-5.9500000000000002,-18.550000000000001
1069,1782579556986,-2.52,-2.52,-18.969999999999999
1070,1782579557053,-2.52,-2.52,-19.32
1071,1782579557102,-0.20999999999999999,-0.14000000000000001,-21.420000000000002
1072,1782579557186,-0.28000000000000003,-0.14000000000000001,-21.489999999999998
1073,1782579557219,-1.6100000000000001,0.83999999999999997,-21.629999999999999
1074,1782579557235,-1.6100000000000001,1.6100000000000001,-21.77
1075,1782579557252,-1.6100000000000001,1.6100000000000001,-21.77
1076,1782579557304,0.69999999999999996,1.6100000000000001,-21.77
1077,1782579557352,-1.75,-1.8200000000000001,-21.91
1078,1782579557469,-1.54,-2.4500000000000002,-21.84
1079,1782579557552,-0.69999999999999996,-1.8200000000000001,-21.629999999999999
1080,1782579557602,-0.69999999999999996,-1.8200000000000001,-21.84
1081,1782579557635,-0.63,-1.8899999999999999,-21.629999999999999
1082,1782579557669,-1.1200000000000001,-1.1200000000000001,-22.609999999999999
1083,1782579557702,-1.96,-0.56000000000000005,-22.75
1084,1782579557719,-1.26,-1.1200000000000001,-22.609999999999999
1085,1782579557752,-1.3999999999999999,-1.3999999999999999,-22.75
1086,1782579557768,-1.3999999999999999,-1.1200000000000001,-23.030000000000001
1087,1782579557802,-1.26,-1.1200000000000001,-23.030000000000001
1088,1782579557852,0.97999999999999998,-1.3999999999999999,-23.030000000000001
1089,1782579557902,2.3799999999999999,-1.3999999999999999,-23.030000000000001
1090,1782579558018,-2.5899999999999999,-0.34999999999999998,-21.699999999999999
1091,1782579558069,-2.52,-0.34999999999999998,-21.629999999999999
1092,1782579558102,-2.52,-0.34999999999999998,-21.489999999999998
1093,1782579558168,0.20999999999999999,1.3300000000000001,-21.489999999999998
1094,1782579558219,-3.3599999999999999,-2.4500000000000002,-17.289999999999999
1095,1782579558336,-3.71,-2.4500000000000002,-16.870000000000001
1096,1782579558368,-3.71,-2.1699999999999999,-16.309999999999999
1097,1782579558384,-3.3599999999999999,-2.1699999999999999,-15.960000000000001
1098,1782579558418,-3.3599999999999999,0.63,-15.960000000000001
1099,1782579558485,-3.29,-0.97999999999999998,-9.6600000000000001
1100,1782579558534,-3.29,-1.47,-9.4499999999999993
1101,1782579558601,-3.6400000000000001,0.83999999999999997,-9.4499999999999993
1102,1782579558702,-3.6400000000000001,0.83999999999999997,-9.4499999999999993
1103,1782579558784,0.14000000000000001,-2.52,-9.8000000000000007
1104,1782579558834,6.0899999999999999,-0.91000000000000003,-10.779999999999999
1105,1782579558901,6.0899999999999999,-1.96,-10.85
1106,1782579559034,1.3999999999999999,-0.20999999999999999,-13.23
1107,1782579559100,1.3999999999999999,-0.14000000000000001,-13.93
1108,1782579559140,1.3999999999999999,1.54,-14.07
1109,1782579559201,1.3999999999999999,5.8099999999999996,-14.42
1110,1782579559284,-2.1000000000000001,5.3200000000000003,-18.620000000000001
1111,1782579559318,-2.1000000000000001,5.9500000000000002,-18.620000000000001
1112,1782579559350,-2.8700000000000001,7.21,-18.199999999999999
1113,1782579559433,-2.1000000000000001,7.21,-18.129999999999999
1114,1782579559501,1.54,3.29,-19.109999999999999
1115,1782579559567,1.54,2.52,-18.899999999999999
1116,1782579559584,-0.56000000000000005,2.52,-18.34
1117,1782579559667,-2.4500000000000002,-0.070000000000000007,-18.27
1118,1782579559717,-2.4500000000000002,-3.3599999999999999,-17.780000000000001
1119,1782579559733,-2.4500000000000002,-4.4800000000000004,-17.640000000000001
1120,1782579559783,-1.54,-3.1499999999999999,-13.720000000000001
1121,1782579559850,0.34999999999999998,-3.71,-13.44
1122,1782579559900,1.1899999999999999,-3.71,-13.23
1123,1782579559967,1.1899999999999999,-3.1499999999999999,-13.23
1124,1782579560034,-0.41999999999999998,-4.3399999999999999,-13.44
1125,1782579560083,-0.63,0.77000000000000002,-12.74
1126,1782579560133,1.47,0.56000000000000005,-13.300000000000001
1127,1782579560183,1.6100000000000001,0.56000000000000005,-13.300000000000001
1128,1782579560200,1.6799999999999999,0.56000000000000005,-13.300000000000001
1129,1782579560233,1.6100000000000001,1.26,-13.44
1130,1782579560250,1.47,0.56000000000000005,-13.44
1131,1782579560266,-2.6600000000000001,0.69999999999999996,-13.09
1132,1782579560316,-4.6900000000000004,0.69999999999999996,-13.02
1133,1782579560366,-0.77000000000000002,-3.7799999999999998,-12.32
1134,1782579560416,-1.75,-0.97999999999999998,-12.32
1135,1782579560550,-1.75,0,-12.32
1136,1782579560566,-1.75,2.73,-12.32
1137,1782579560583,0.34999999999999998,4.6200000000000001,-12.32
1138,1782579560650,-1.3300000000000001,2.3100000000000001,-9.8000000000000007
1139,1782579560699,-2.8700000000000001,-0.070000000000000007,-9.8000000000000007
1140,1782579560749,-2.8700000000000001,0.14000000000000001,-9.8000000000000007
1141,1782579560783,-3.8500000000000001,0.14000000000000001,-9.8000000000000007
1142,1782579560832,-2.8700000000000001,-0.34999999999999998,-9.6600000000000001
1143,1782579560932,-0.14000000000000001,-0.14000000000000001,-8.6799999999999997
1144,1782579561066,0.77000000000000002,-3.1499999999999999,-8.2599999999999998
1145,1782579561133,0.97999999999999998,-3.9199999999999999,-8.2599999999999998
1146,1782579561183,2.3100000000000001,-0.97999999999999998,-7.3499999999999996
1147,1782579561233,2.3100000000000001,-1.1200000000000001,-7.2800000000000002
1148,1782579561266,1.54,-0.97999999999999998,-7.3499999999999996
1149,1782579561366,0.77000000000000002,-1.1200000000000001,-7.2800000000000002
1150,1782579561566,2.73,-0.28000000000000003,-7.7699999999999996
1151,1782579561599,2.73,-0.28000000000000003,-7.9800000000000004
1152,1782579561666,4.1299999999999999,-2.8700000000000001,-6.8600000000000003
1153,1782579561683,4.1299999999999999,-2.8700000000000001,-6.8600000000000003
1154,1782579561716,4.1299999999999999,-2.8700000000000001,-6.2300000000000004
1155,1782579561732,1.6799999999999999,-1.8899999999999999,-5.8799999999999999
1156,1782579561816,-3.71,-2.52,-5.6699999999999999
1157,1782579561849,-3.71,-1.8899999999999999,-5.6699999999999999
1158,1782579561948,-1.3999999999999999,1.54,-4.7599999999999998
1159,1782579562015,-1.1200000000000001,1.54,-5.04
1160,1782579562048,-0.83999999999999997,3.4300000000000002,-5.25
1161,1782579562082,1.1200000000000001,3.4300000000000002,-5.25
1162,1782579562148,2.7999999999999998,1.54,-5.25
1163,1782579562231,1.3300000000000001,1.96,-5.1799999999999997
1164,1782579562298,1.47,-1.6100000000000001,-4.8300000000000001
1165,1782579562365,1.3300000000000001,-1.8200000000000001,-9.0999999999999996
1166,1782579562398,1.3300000000000001,-2.52,-4.6200000000000001
1167,1782579562465,0.77000000000000002,-3.9199999999999999,-6.79
1168,1782579562498,0.34999999999999998,-2.2400000000000002,-6.8600000000000003
1169,1782579562565,-0.20999999999999999,-2.2400000000000002,-6.8600000000000003
1170,1782579562631,-0.20999999999999999,-2.1699999999999999,-6.8600000000000003
1171,1782579562649,-0.56000000000000005,-1.05,-7.1399999999999997
1172,1782579562665,-0.63,1.96,-7.1399999999999997
1173,1782579562697,-0.63,3.2200000000000002,-7.1399999999999997
1174,1782579562732,-0.070000000000000007,3.2200000000000002,-7.21
1175,1782579562798,0,1.6799999999999999,-17.149999999999999
1176,1782579562848,-0.34999999999999998,1.1200000000000001,-17.359999999999999
1177,1782579562898,-0.34999999999999998,0.69999999999999996,-17.359999999999999
1178,1782579562931,-0.34999999999999998,-1.1200000000000001,-17.359999999999999
1179,1782579563081,-1.1899999999999999,-3.2200000000000002,-17.010000000000002
1180,1782579563114,0.41999999999999998,-3.2200000000000002,-17.010000000000002
1181,1782579563164,0.56000000000000005,-4.3399999999999999,-17.219999999999999
1182,1782579563247,0.97999999999999998,-4.3399999999999999,-17.5
1183,1782579563264,-0.14000000000000001,-3.5,-18.48
1184,1782579563382,-0.28000000000000003,-3.29,-18.34
1185,1782579563430,-0.28000000000000003,-3.29,-18.34
1186,1782579563480,-0.28000000000000003,-2.73,-18.199999999999999
1187,1782579563498,1.05,-0.69999999999999996,-18.41
1188,1782579563514,0.070000000000000007,-2.1000000000000001,-18.969999999999999
1189,1782579563581,0.070000000000000007,-0.69999999999999996,-19.949999999999999
1190,1782579563598,-0.56000000000000005,-0.070000000000000007,-20.23
1191,1782579563698,-0.56000000000000005,-0.69999999999999996,-20.510000000000002
1192,1782579563780,-0.69999999999999996,-1.26,-27.16
1193,1782579563848,-0.69999999999999996,-0.77000000000000002,-27.23
1194,1782579563914,-0.69999999999999996,0.69999999999999996,-27.370000000000001
1195,1782579563948,1.1899999999999999,1.1899999999999999,-27.440000000000001
1196,1782579563963,1.1899999999999999,2.0299999999999998,-27.440000000000001
1197,1782579564080,-2.3799999999999999,1.8200000000000001,-26.109999999999999
1198,1782579564147,-2.3799999999999999,1.3300000000000001,-26.109999999999999
1199,1782579564230,-2.3799999999999999,0.41999999999999998,-26.109999999999999
1200,1782579564281,-1.3300000000000001,0.77000000000000002,-26.879999999999999
1201,1782579564347,-1.3999999999999999,-0.56000000000000005,-26.390000000000001
1202,1782579564430,-1.47,-0.56000000000000005,-25.760000000000002
1203,1782579564513,-3.7799999999999998,0.14000000000000001,-27.02
1204,1782579564546,-3.7799999999999998,1.6100000000000001,-27.16
1205,1782579564630,-0.34999999999999998,1.6100000000000001,-27.16
1206,1782579564697,1.8200000000000001,2.0299999999999998,-27.579999999999998
1207,1782579564762,-2.0299999999999998,-2.9399999999999999,-29.260000000000002
1208,1782579564796,-2.0299999999999998,-3.0099999999999998,-29.68
1209,1782579564829,-0.56000000000000005,-3.0099999999999998,-29.75
1210,1782579564863,0.070000000000000007,-2.9399999999999999,-30.239999999999998
1211,1782579564880,0.070000000000000007,-2.7999999999999998,-30.379999999999999
1212,1782579564913,5.04,-2.7999999999999998,-30.52
1213,1782579564962,5.04,-2.7999999999999998,-30.52
1214,1782579565029,5.04,-3.5699999999999998,-30.52
1215,1782579565080,2.1699999999999999,-4.1299999999999999,-29.960000000000001
1216,1782579565129,-1.3300000000000001,2.3100000000000001,-27.440000000000001
1217,1782579565197,-1.3300000000000001,3.29,-26.670000000000002
1218,1782579565313,-0.48999999999999999,3.29,-26.670000000000002
1219,1782579565379,1.1899999999999999,2.8700000000000001,-27.859999999999999
1220,1782579565413,-0.070000000000000007,3.5699999999999998,-27.719999999999999
1221,1782579565463,-0.070000000000000007,3.5699999999999998,-27.300000000000001
1222,1782579565512,-0.83999999999999997,2.8700000000000001,-26.879999999999999
1223,1782579565580,-1.54,2.5899999999999999,-26.530000000000001
1224,1782579565646,-4.4800000000000004,-2.1699999999999999,-28.210000000000001
1225,1782579565697,-6.79,-2.1699999999999999,-28.07
1226,1782579565746,-6.79,-2.1699999999999999,-27.93
1227,1782579565795,-6.79,-2.5899999999999999,-27.789999999999999
1228,1782579565829,-2.5899999999999999,-2.1000000000000001,-27.789999999999999
1229,1782579565895,-3.0800000000000001,-1.8200000000000001,-28.699999999999999
1230,1782579565945,-3.0800000000000001,-1.05,-28.629999999999999
1231,1782579565996,-1.8899999999999999,-3.4300000000000002,-28.489999999999998
1232,1782579566062,0.69999999999999996,-1.05,-28.350000000000001
1233,1782579566112,0.69999999999999996,-0.34999999999999998,-28.350000000000001
1234,1782579566163,-3.3599999999999999,-1.54,-29.469999999999999
1235,1782579566262,-3.4300000000000002,-1.3999999999999999,-29.539999999999999
1236,1782579566295,-3.4300000000000002,-1.54,-29.68
1237,1782579566461,-2.7999999999999998,-2.4500000000000002,-29.399999999999999
1238,1782579566511,-2.7999999999999998,-1.47,-29.399999999999999
1239,1782579566561,-1.54,-1.3999999999999999,-30.239999999999998
1240,1782579566611,2.52,-1.3999999999999999,-30.449999999999999
1241,1782579566661,10.5,2.3799999999999999,-31.920000000000002
1242,1782579566744,10.5,2.3799999999999999,-31.920000000000002
1243,1782579566811,10.5,2.3799999999999999,-32.340000000000003
1244,1782579566861,1.26,1.54,-32.340000000000003
1245,1782579566895,8.6799999999999997,3.5699999999999998,-35.420000000000002
1246,1782579566944,8.6799999999999997,3.5699999999999998,-36.189999999999998
1247,1782579566961,6.5800000000000001,3.5699999999999998,-37.659999999999997
1248,1782579566977,0.34999999999999998,1.75,-38.710000000000001
1249,1782579567028,-6.1600000000000001,1.54,-38.780000000000001
1250,1782579567078,-6.1600000000000001,1.54,-39.689999999999998
1251,1782579567161,-2.52,-0.28000000000000003,-32.479999999999997
1252,1782579567227,-2.52,-0.28000000000000003,-31.5
1253,1782579567261,-2.52,-0.28000000000000003,-30.940000000000001
1254,1782579567277,-2.4500000000000002,0.91000000000000003,-30.940000000000001
1255,1782579567295,-1.96,2.2400000000000002,-29.960000000000001
1256,1782579567328,-1.96,2.2400000000000002,-29.260000000000002
1257,1782579567360,-1.96,2.2400000000000002,-27.859999999999999
1258,1782579567394,-3.29,2.2400000000000002,-27.789999999999999
1259,1782579567461,-4.1299999999999999,-4.7599999999999998,-26.879999999999999
1260,1782579567511,-4.1299999999999999,-5.3200000000000003,-25.829999999999998
1261,1782579567627,0.83999999999999997,-1.3300000000000001,-28
1262,1782579567677,1.8899999999999999,-0.69999999999999996,-28.210000000000001
1263,1782579567760,-7.5599999999999996,-2.8700000000000001,-29.960000000000001
1264,1782579567794,-3.3599999999999999,-2.8700000000000001,-30.100000000000001
1265,1782579567810,0.63,0.83999999999999997,-30.239999999999998
1266,1782579567860,0.63,2.2400000000000002,-30.239999999999998
1267,1782579567910,0.63,2.2400000000000002,-30.239999999999998
1268,1782579568027,-2.2400000000000002,-1.26,-31.57
1269,1782579568060,-1.75,-1.1899999999999999,-31.57
1270,1782579568076,-1.3300000000000001,-1.1899999999999999,-31.5
1271,1782579568143,-0.83999999999999997,-1.26,-31.359999999999999
1272,1782579568176,0.070000000000000007,-1.1899999999999999,-31.359999999999999
1273,1782579568227,1.26,-1.1899999999999999,-31.289999999999999
1274,1782579568326,0,-3.2200000000000002,-32.759999999999998
1275,1782579568393,-1.8899999999999999,-3.2200000000000002,-32.899999999999999
1276,1782579568426,-1.8899999999999999,-3.0800000000000001,-32.899999999999999
1277,1782579568443,-1.8899999999999999,-3.0800000000000001,-33.530000000000001
1278,1782579568460,-0.41999999999999998,-2.73,-33.670000000000002
1279,1782579568509,-0.41999999999999998,-2.1000000000000001,-33.810000000000002
1280,1782579568560,-3.1499999999999999,-6.0899999999999999,-30.170000000000002
1281,1782579568743,3.0800000000000001,4.6200000000000001,-31.289999999999999
1282,1782579568810,-1.1899999999999999,1.8200000000000001,-33.18
1283,1782579568876,-1.1899999999999999,1.8200000000000001,-33.039999999999999
1284,1782579568910,-1.1899999999999999,1.1899999999999999,-32.549999999999997
1285,1782579569009,-1.1899999999999999,-0.34999999999999998,-32.549999999999997
1286,1782579569109,-1.8899999999999999,-0.34999999999999998,-31.989999999999998
1287,1782579569175,-1.47,-1.26,-31.989999999999998
1288,1782579569242,-1.1200000000000001,-3.4300000000000002,-31.989999999999998
1289,1782579569342,-5.5300000000000002,-4.3399999999999999,-30.100000000000001
1290,1782579569359,-5.5300000000000002,-4.3399999999999999,-30.239999999999998
1291,1782579569375,-1.8200000000000001,-4.2699999999999996,-29.960000000000001
1292,1782579569409,-0.91000000000000003,-4.2699999999999996,-29.960000000000001
1293,1782579569492,-0.14000000000000001,-3.7799999999999998,-30.030000000000001
1294,1782579569593,-0.14000000000000001,-3.6400000000000001,-30.239999999999998
1295,1782579569626,-1.3999999999999999,1.6100000000000001,-24.640000000000001
1296,1782579569676,-1.3999999999999999,2.0299999999999998,-24.780000000000001
1297,1782579569725,-0.56000000000000005,2.0299999999999998,-24.920000000000002
1298,1782579569792,-0.56000000000000005,2.0299999999999998,-24.989999999999998
1299,1782579569843,-0.56000000000000005,1.6799999999999999,-25.129999999999999
1300,1782579569892,-0.28000000000000003,1.05,-25.199999999999999
1301,1782579569942,-0.56000000000000005,0.34999999999999998,-25.199999999999999
1302,1782579570042,0.34999999999999998,-5.9500000000000002,-31.010000000000002
1303,1782579570108,4.6900000000000004,-4.4100000000000001,-31.010000000000002
1304,1782579570158,4.6900000000000004,-3.3599999999999999,-31.010000000000002
1305,1782579570209,4.6900000000000004,0.69999999999999996,-30.940000000000001
1306,1782579570242,-5.3200000000000003,2.52,-28.210000000000001
1307,1782579570308,-1.75,2.52,-28.98
1308,1782579570425,2.5899999999999999,2.52,-29.329999999999998
1309,1782579570476,2.5899999999999999,1.8200000000000001,-29.329999999999998
1310,1782579570508,-4.4100000000000001,-4.9000000000000004,-29.190000000000001
1311,1782579570559,-4.4100000000000001,-4.9000000000000004,-29.329999999999998
1312,1782579570658,-4.4100000000000001,-4.9000000000000004,-29.609999999999999
1313,1782579570725,-4.4100000000000001,-4.7599999999999998,-29.82
1314,1782579570775,5.25,-0.77000000000000002,-32.619999999999997
1315,1782579570792,5.25,-0.41999999999999998,-32.619999999999997
1316,1782579570891,3.5,0.56000000000000005,-32.479999999999997
1317,1782579570924,3.4300000000000002,0.56000000000000005,-32.130000000000003
1318,1782579571075,-1.47,-0.20999999999999999,-29.68
1319,1782579571091,-1.3999999999999999,0.77000000000000002,-29.68
1320,1782579571124,-1.47,0.97999999999999998,-29.539999999999999
1321,1782579571141,-3.6400000000000001,0.97999999999999998,-29.329999999999998
1322,1782579571158,-4.4800000000000004,0.97999999999999998,-28.77
1323,1782579571208,-4.7599999999999998,-1.1899999999999999,-28.77
1324,1782579571325,-2.5899999999999999,5.7400000000000002,-23.449999999999999
1325,1782579571407,4.4100000000000001,5.7400000000000002,-23.449999999999999
1326,1782579571440,4.4100000000000001,6.2300000000000004,-24.43
1327,1782579571458,4.4100000000000001,5.7400000000000002,-24.43
1328,1782579571474,-4.2699999999999996,5.04,-24.5
1329,1782579571507,-6.5800000000000001,0.91000000000000003,-24.5
1330,1782579571607,3.7799999999999998,4.8300000000000001,-29.960000000000001
1331,1782579571673,-8.6799999999999997,-1.3999999999999999,-29.960000000000001
1332,1782579571724,-8.6799999999999997,-9.1699999999999999,-28.489999999999998
1333,1782579571773,-8.6799999999999997,-9.1699999999999999,-28.280000000000001
1334,1782579571807,-2.3100000000000001,-6.5099999999999998,-30.800000000000001
1335,1782579571856,-3.2200000000000002,-6.5099999999999998,-31.920000000000002
1336,1782579571907,-3.2200000000000002,-9.3100000000000005,-32.689999999999998
1337,1782579572024,-3.0099999999999998,-9.5199999999999996,-32.689999999999998
1338,1782579572057,-3.0099999999999998,-9.5199999999999996,-33.109999999999999
1339,1782579572107,-1.1200000000000001,-1.8899999999999999,-32.549999999999997
1340,1782579572157,-0.48999999999999999,-1.8899999999999999,-31.640000000000001
1341,1782579572207,0.69999999999999996,-2.9399999999999999,-31.43
1342,1782579572256,0.69999999999999996,-3.1499999999999999,-30.800000000000001
1343,1782579572339,-0.48999999999999999,-3.3599999999999999,-29.68
1344,1782579572373,-0.56000000000000005,-4.6900000000000004,-28.77
1345,1782579572390,-0.97999999999999998,-4.9699999999999998,-28.699999999999999
1346,1782579572456,-0.070000000000000007,2.6600000000000001,-25.199999999999999
1347,1782579572490,1.1899999999999999,2.7999999999999998,-25.129999999999999
1348,1782579572507,1.1899999999999999,2.8700000000000001,-24.780000000000001
1349,1782579572540,1.1899999999999999,3.7799999999999998,-24.640000000000001
1350,1782579572557,0.97999999999999998,3.7799999999999998,-24.640000000000001
1351,1782579572574,0.83999999999999997,3.7799999999999998,-24.640000000000001
1352,1782579572739,-2.1000000000000001,1.26,-24.640000000000001
1353,1782579572806,-1.6100000000000001,0.91000000000000003,-24.640000000000001
1354,1782579572873,-1.6100000000000001,-0.070000000000000007,-24.57
1355,1782579572889,-1.6100000000000001,-1.47,-24.5
1356,1782579572939,-2.3100000000000001,-1.47,-24.5
1357,1782579572973,-0.28000000000000003,-3.29,-24.5
1358,1782579573039,-1.3300000000000001,-3.29,-24.640000000000001
1359,1782579573106,-1.3300000000000001,-2.3100000000000001,-24.710000000000001
1360,1782579573156,-0.28000000000000003,-1.96,-25.059999999999999
1361,1782579573206,1.3300000000000001,-1.54,-25.199999999999999
1362,1782579573255,4.9000000000000004,-1.1899999999999999,-22.609999999999999
1363,1782579573356,4.9000000000000004,-1.1899999999999999,-22.68
1364,1782579573422,4.9000000000000004,-2.1699999999999999,-22.960000000000001
1365,1782579573455,1.54,-4.4100000000000001,-23.309999999999999
1366,1782579573522,-4.1299999999999999,-0.34999999999999998,-24.359999999999999
1367,1782579573572,-4.1299999999999999,0,-24.43
1368,1782579573639,-4.1299999999999999,0.56000000000000005,-24.710000000000001
1369,1782579573772,-1.6799999999999999,3.6400000000000001,-22.609999999999999
1370,1782579573822,-4.6900000000000004,1.96,-22.82
1371,1782579573872,-4.6900000000000004,0.41999999999999998,-23.170000000000002
1372,1782579573905,-4.6900000000000004,-1.6100000000000001,-23.239999999999998
1373,1782579573955,-4.4100000000000001,-1.6799999999999999,-23.73
1374,1782579573972,-3.2200000000000002,-0.77000000000000002,-23.239999999999998
1375,1782579574038,-3.0800000000000001,-0.34999999999999998,-23.239999999999998
1376,1782579574138,-2.4500000000000002,0.34999999999999998,-23.379999999999999
1377,1782579574172,-1.3300000000000001,0.56000000000000005,-23.59
1378,1782579574188,0.48999999999999999,0.97999999999999998,-23.73
1379,1782579574238,1.1200000000000001,2.0299999999999998,-24.219999999999999
1380,1782579574288,-0.91000000000000003,2.3799999999999999,-21.77
1381,1782579574355,-0.91000000000000003,2.3799999999999999,-21.77
1382,1782579574454,-2.6600000000000001,1.6799999999999999,-21.629999999999999
1383,1782579574505,-4.5499999999999998,0.69999999999999996,-21.699999999999999
1384,1782579574573,-1.47,0.20999999999999999,-19.879999999999999
1385,1782579574655,-0.91000000000000003,0.20999999999999999,-19.809999999999999
1386,1782579574688,-0.20999999999999999,0.20999999999999999,-19.809999999999999
1387,1782579574754,-0.20999999999999999,1.1200000000000001,-19.670000000000002
1388,1782579574771,0,1.1200000000000001,-18.829999999999998
1389,1782579574788,0,1.1200000000000001,-18.829999999999998
1390,1782579574821,-1.47,1.1200000000000001,-18.27
1391,1782579574905,-2.9399999999999999,-0.63,-14.210000000000001
1392,1782579574938,-1.54,-0.63,-14.210000000000001
1393,1782579574971,0.56000000000000005,-0.28000000000000003,-14.140000000000001
1394,1782579575005,1.1200000000000001,0.20999999999999999,-14.210000000000001
1395,1782579575021,1.1200000000000001,1.26,-14.279999999999999
1396,1782579575054,1.1200000000000001,1.6100000000000001,-14.42
1397,1782579575138,0.20999999999999999,1.1200000000000001,-11.9
1398,1782579575188,0.20999999999999999,1.47,-11.9
1399,1782579575387,1.26,-2.2400000000000002,-11.34
1400,1782579575437,0.20999999999999999,-3.1499999999999999,-11.48
1401,1782579575554,0.20999999999999999,-3.7799999999999998,-11.9
1402,1782579575621,0.20999999999999999,-3.8500000000000001,-11.9
1403,1782579575703,0.14000000000000001,-0.91000000000000003,-9.5199999999999996
1404,1782579575754,0.41999999999999998,0.28000000000000003,-9.4499999999999993
1405,1782579575920,-4.4100000000000001,-2.9399999999999999,-5.25
1406,1782579575987,-4.4100000000000001,-2.9399999999999999,-4.9699999999999998
1407,1782579576037,-3.3599999999999999,-3.2200000000000002,-4.7599999999999998
1408,1782579576120,0.28000000000000003,-2.9399999999999999,-4.4100000000000001
1409,1782579576170,0.41999999999999998,-1.8899999999999999,8.0500000000000007
1410,1782579576270,0.56000000000000005,-1.8899999999999999,9.2400000000000002
1411,1782579576287,0.63,-1.8899999999999999,10.57
1412,1782579576336,0.56000000000000005,-1.8899999999999999,11.76
1413,1782579576420,2.0299999999999998,-1.1899999999999999,16.309999999999999
1414,1782579576469,3.71,-0.97999999999999998,16.170000000000002
1415,1782579576503,3.7799999999999998,-0.20999999999999999,16.170000000000002
1416,1782579576570,3.7799999999999998,-0.83999999999999997,16.170000000000002
1417,1782579576619,3.7799999999999998,-0.83999999999999997,16.239999999999998
1418,1782579576636,0.97999999999999998,-2.6600000000000001,18.829999999999998
1419,1782579576703,-0.97999999999999998,-3.2200000000000002,19.109999999999999
1420,1782579576753,-0.97999999999999998,-4.0599999999999996,19.600000000000001
1421,1782579576852,-0.97999999999999998,-4.1299999999999999,20.300000000000001
1422,1782579576886,-0.69999999999999996,-4.1299999999999999,20.719999999999999
1423,1782579576970,0.91000000000000003,2.6600000000000001,21.210000000000001
1424,1782579577053,0.69999999999999996,2.7999999999999998,21.489999999999998
1425,1782579577086,0.63,2.7999999999999998,21.629999999999999
1426,1782579577153,0.14000000000000001,2.7999999999999998,21.629999999999999
1427,1782579577202,0,-0.14000000000000001,21.629999999999999
1428,1782579577219,-0.14000000000000001,-0.97999999999999998,21.629999999999999
1429,1782579577252,0,-2.2400000000000002,21.489999999999998
1430,1782579577336,2.73,-4.6200000000000001,21.98
1431,1782579577402,2.73,-2.9399999999999999,21.98
1432,1782579577452,2.73,-2.3100000000000001,21.629999999999999
1433,1782579577469,2.5899999999999999,0.56000000000000005,21.559999999999999
1434,1782579577502,1.47,-3.9900000000000002,23.940000000000001
1435,1782579577552,1.6799999999999999,-3.0099999999999998,24.359999999999999
1436,1782579577620,1.8200000000000001,-3.0099999999999998,24.359999999999999
1437,1782579577702,1.8200000000000001,-1.75,24.43
1438,1782579577819,3.5,-2.3100000000000001,22.68
1439,1782579577868,0.56000000000000005,-1.1899999999999999,22.82
1440,1782579577918,0.34999999999999998,0.28000000000000003,23.030000000000001
1441,1782579577985,0,0.28000000000000003,23.030000000000001
1442,1782579578051,-2.6600000000000001,1.96,20.370000000000001
1443,1782579578119,-0.14000000000000001,1.96,20.02
1444,1782579578186,4.2699999999999996,2.4500000000000002,19.809999999999999
1445,1782579578285,4.5499999999999998,1.54,20.510000000000002
1446,1782579578318,4.5499999999999998,1.96,21.210000000000001
1447,1782579578335,4.5499999999999998,2.1699999999999999,21.91
1448,1782579578401,-0.91000000000000003,2.1699999999999999,21.98
1449,1782579578485,-2.0299999999999998,1.96,22.050000000000001
1450,1782579578535,0.97999999999999998,1.1899999999999999,27.510000000000002
1451,1782579578601,0.91000000000000003,1.26,27.93
1452,1782579578618,-3.1499999999999999,3.9199999999999999,28.140000000000001
1453,1782579578634,-3.1499999999999999,3.9199999999999999,28.629999999999999
1454,1782579578668,-3.1499999999999999,0.56000000000000005,28.77
1455,1782579578734,-3.1499999999999999,3.3599999999999999,28.77
1456,1782579578867,-0.070000000000000007,4.0599999999999996,24.989999999999998
1457,1782579578901,-5.25,2.3100000000000001,25.129999999999999
1458,1782579578967,-5.25,2.3100000000000001,25.129999999999999
1459,1782579579001,-5.25,2.3100000000000001,25.48
1460,1782579579034,-1.8899999999999999,0.14000000000000001,25.690000000000001
1461,1782579579051,-0.77000000000000002,-0.77000000000000002,25.899999999999999
1462,1782579579151,3.1499999999999999,-1.47,24.920000000000002
1463,1782579579201,3.1499999999999999,-2.1699999999999999,24.920000000000002
1464,1782579579251,3.3599999999999999,-2.1699999999999999,25.129999999999999
1465,1782579579350,-4.2000000000000002,-5.3899999999999997,26.879999999999999
1466,1782579579401,-2.6600000000000001,-3.71,26.879999999999999
1467,1782579579467,-0.83999999999999997,-3.2200000000000002,26.879999999999999
1468,1782579579517,0.91000000000000003,0,26.809999999999999
1469,1782579579567,1.1899999999999999,0.28000000000000003,26.809999999999999
1470,1782579579600,2.52,0.69999999999999996,26.739999999999998
1471,1782579579634,2.52,0.69999999999999996,26.809999999999999
1472,1782579579650,2.52,2.7999999999999998,26.739999999999998
1473,1782579579701,-0.77000000000000002,-0.41999999999999998,27.649999999999999
1474,1782579579718,-0.28000000000000003,-0.41999999999999998,27.649999999999999
1475,1782579579800,0.91000000000000003,0.83999999999999997,27.649999999999999
1476,1782579579834,1.05,0.91000000000000003,27.649999999999999
1477,1782579579867,0.91000000000000003,1.26,27.510000000000002
1478,1782579579917,-1.3300000000000001,-1.1200000000000001,27.16
1479,1782579580000,-1.3300000000000001,-0.97999999999999998,26.739999999999998
1480,1782579580033,-1.3999999999999999,-0.91000000000000003,26.530000000000001
1481,1782579580100,-1.3300000000000001,-0.97999999999999998,26.039999999999999
1482,1782579580200,-3.3599999999999999,-4.2000000000000002,21.699999999999999
1483,1782579580233,-3.3599999999999999,-4.2000000000000002,21.629999999999999
1484,1782579580284,-3.3599999999999999,-3.0800000000000001,21.629999999999999
1485,1782579580333,-3.2200000000000002,-2.6600000000000001,21.559999999999999
1486,1782579580384,1.1899999999999999,-1.8200000000000001,21.559999999999999
1487,1782579580516,5.1799999999999997,2.3799999999999999,23.449999999999999
1488,1782579580566,-0.34999999999999998,2.3100000000000001,23.59
1489,1782579580650,-2.7999999999999998,0.97999999999999998,23.59
1490,1782579580750,-2.0299999999999998,-0.48999999999999999,26.039999999999999
1491,1782579580866,-2.6600000000000001,-0.20999999999999999,26.039999999999999
1492,1782579580932,-2.6600000000000001,-0.34999999999999998,25.760000000000002
1493,1782579580982,-0.83999999999999997,0.63,26.809999999999999
1494,1782579581016,-0.83999999999999997,0.63,26.530000000000001
1495,1782579581032,0.28000000000000003,1.3300000000000001,26.530000000000001
1496,1782579581066,1.05,0.56000000000000005,26.809999999999999
1497,1782579581099,1.05,0.48999999999999999,26.809999999999999
1498,1782579581199,1.05,-1.54,26.809999999999999
1499,1782579581265,2.52,-0.28000000000000003,26.600000000000001
1500,1782579581283,2.52,-3.71,26.039999999999999
1501,1782579581315,2.8700000000000001,-0.28000000000000003,26.879999999999999
1502,1782579581366,2.9399999999999999,-1.3300000000000001,26.879999999999999
1503,1782579581399,3.5,-1.3300000000000001,27.719999999999999
1504,1782579581432,3.5,-1.3300000000000001,27.789999999999999
1505,1782579581449,3.5,-1.3300000000000001,27.789999999999999
1506,1782579581482,2.1000000000000001,0.070000000000000007,27.510000000000002
1507,1782579581549,2.1000000000000001,0.070000000000000007,28.280000000000001
1508,1782579581616,2.1000000000000001,0.28000000000000003,28.350000000000001
1509,1782579581683,1.96,0.28000000000000003,28.489999999999998
1510,1782579581782,1.75,-0.34999999999999998,27.510000000000002
1511,1782579581849,1.6799999999999999,-0.34999999999999998,27.510000000000002
1512,1782579581882,1.75,-1.3999999999999999,27.510000000000002
1513,1782579581949,1.6799999999999999,-0.070000000000000007,27.510000000000002
1514,1782579581982,1.6799999999999999,-1.6799999999999999,27.370000000000001
1515,1782579582015,1.6799999999999999,-1.6799999999999999,27.370000000000001
1516,1782579582032,0.28000000000000003,-1.6799999999999999,27.370000000000001
1517,1782579582048,0.28000000000000003,-1.6799999999999999,27.370000000000001
1518,1782579582081,-0.20999999999999999,-1.6799999999999999,27.859999999999999
1519,1782579582115,5.9500000000000002,3.9900000000000002,27.93
1520,1782579582198,4.5499999999999998,3.9900000000000002,27.93
1521,1782579582249,1.3999999999999999,2.4500000000000002,27.93
1522,1782579582298,0.69999999999999996,3.2200000000000002,27.93
1523,1782579582315,-0.070000000000000007,1.3999999999999999,28.489999999999998
1524,1782579582331,-2.9399999999999999,3.1499999999999999,28.98
1525,1782579582398,-3.0800000000000001,2.4500000000000002,28.98
1526,1782579582431,-3.0800000000000001,2.1000000000000001,28.98
1527,1782579582497,-2.9399999999999999,0.28000000000000003,29.050000000000001
1528,1782579582531,-0.070000000000000007,-4.6900000000000004,29.890000000000001
1529,1782579582598,4.7599999999999998,-1.6100000000000001,29.050000000000001
1530,1782579582664,5.46,-2.2400000000000002,28.84
1531,1782579582698,5.8099999999999996,-2.2400000000000002,28.77
1532,1782579582748,5.8099999999999996,-2.2400000000000002,28.699999999999999
1533,1782579582814,5.8099999999999996,-2.52,28.699999999999999
1534,1782579582897,3.4300000000000002,0.070000000000000007,26.809999999999999
1535,1782579582947,4.4100000000000001,0.070000000000000007,26.600000000000001
1536,1782579583047,4.4100000000000001,0.41999999999999998,26.460000000000001
1537,1782579583114,2.73,-2.4500000000000002,22.190000000000001
1538,1782579583147,2.73,-4.0599999999999996,21.699999999999999
1539,1782579583197,2.73,-4.0599999999999996,21.699999999999999
1540,1782579583281,2.7999999999999998,-4.0599999999999996,21.77
1541,1782579583347,4.2699999999999996,-3.9900000000000002,21.98
1542,1782579583364,5.5999999999999996,-3.29,24.920000000000002
1543,1782579583398,5.5999999999999996,-2.73,24.920000000000002
1544,1782579583413,5.5999999999999996,-1.26,25.199999999999999
1545,1782579583430,3.29,0.20999999999999999,25.829999999999998
1546,1782579583480,2.73,0.77000000000000002,27.02
1547,1782579583597,1.05,0.20999999999999999,27.02
1548,1782579583647,2.73,-0.070000000000000007,31.359999999999999
1549,1782579583697,3.7799999999999998,-2.3100000000000001,31.57
1550,1782579583730,2.5899999999999999,-0.070000000000000007,31.710000000000001
1551,1782579583763,5.46,0.56000000000000005,32.200000000000003
1552,1782579583780,2.5899999999999999,0.56000000000000005,32.270000000000003
1553,1782579583830,2.5899999999999999,0.56000000000000005,32.270000000000003
1554,1782579583897,0.77000000000000002,0.56000000000000005,32.060000000000002
1555,1782579583930,-0.20999999999999999,-2.6600000000000001,31.43
1556,1782579583980,-0.20999999999999999,-2.6600000000000001,31.5
1557,1782579584047,3.0099999999999998,-1.96,31.5
1558,1782579584080,3.1499999999999999,0.28000000000000003,31.57
1559,1782579584196,0.56000000000000005,0.070000000000000007,32.130000000000003
1560,1782579584246,0.070000000000000007,-1.26,32.130000000000003
1561,1782579584313,-1.54,-0.14000000000000001,32.130000000000003
1562,1782579584363,-1.54,2.4500000000000002,32.130000000000003
1563,1782579584380,-1.54,0.070000000000000007,32.130000000000003
1564,1782579584413,0.070000000000000007,-0.14000000000000001,32.130000000000003
1565,1782579584446,1.8200000000000001,0.070000000000000007,32.200000000000003
1566,1782579584463,1.8200000000000001,0.070000000000000007,32.549999999999997
1567,1782579584496,1.8200000000000001,0.070000000000000007,33.18
1568,1782579584546,0.070000000000000007,-0.56000000000000005,34.020000000000003
1569,1782579584646,0.070000000000000007,0.34999999999999998,33.530000000000001
1570,1782579584663,0.070000000000000007,0.34999999999999998,32.549999999999997
1571,1782579584696,4.1299999999999999,0.20999999999999999,32.340000000000003
1572,1782579584730,4.2699999999999996,0.20999999999999999,31.57
1573,1782579584779,5.9500000000000002,-1.8200000000000001,31.920000000000002
1574,1782579584846,3.5,-0.41999999999999998,31.780000000000001
1575,1782579584896,5.04,-1.8200000000000001,31.780000000000001
1576,1782579584929,4.2699999999999996,-1.8200000000000001,31.5
1577,1782579585095,-0.14000000000000001,-0.97999999999999998,25.129999999999999
1578,1782579585162,0.28000000000000003,-1.6799999999999999,24.43
1579,1782579585212,0.28000000000000003,-1.6799999999999999,23.239999999999998
1580,1782579585279,0.34999999999999998,-2.7999999999999998,25.48
1581,1782579585362,-0.20999999999999999,-2.7999999999999998,25.620000000000001
1582,1782579585479,-1.26,-2.0299999999999998,26.18
1583,1782579585545,2.6600000000000001,-1.05,44.450000000000003
1584,1782579585562,1.96,0.34999999999999998,44.450000000000003
1585,1782579585645,1.3999999999999999,-1.05,44.450000000000003
1586,1782579585746,-0.20999999999999999,0.34999999999999998,44.380000000000003
1587,1782579585762,-2.3799999999999999,2.1699999999999999,40.600000000000001
1588,1782579585829,-2.3799999999999999,3.1499999999999999,40.810000000000002
1589,1782579585862,-0.91000000000000003,2.9399999999999999,41.579999999999998
1590,1782579585879,0.14000000000000001,3.1499999999999999,41.719999999999999
1591,1782579585895,0.14000000000000001,4.4100000000000001,41.93
1592,1782579585928,0.20999999999999999,4.4100000000000001,42.280000000000001
1593,1782579585962,0.20999999999999999,2.9399999999999999,42.280000000000001
1594,1782579586078,6.5099999999999998,-1.3300000000000001,34.579999999999998
1595,1782579586161,2.2400000000000002,-1.3300000000000001,33.460000000000001
1596,1782579586211,2.2400000000000002,-3.9199999999999999,32.270000000000003
1597,1782579586244,0.28000000000000003,-1.3300000000000001,32.200000000000003
1598,1782579586262,0.14000000000000001,-3.6400000000000001,31.010000000000002
1599,1782579586395,-2.3100000000000001,-1.3300000000000001,20.16
1600,1782579586478,-2.3100000000000001,-1.3300000000000001,20.789999999999999
1601,1782579586511,0,-1.3300000000000001,21.420000000000002
1602,1782579586578,11.27,-3.5,22.050000000000001
1603,1782579586628,12.039999999999999,0,22.050000000000001
1604,1782579586678,12.039999999999999,0.77000000000000002,22.260000000000002
1605,1782579586729,12.039999999999999,3.6400000000000001,23.52
1606,1782579586777,6.4400000000000004,4.0599999999999996,23.52
1607,1782579586844,0.69999999999999996,4.0599999999999996,23.59
1608,1782579586895,14.56,6.6500000000000004,23.449999999999999
1609,1782579586977,13.859999999999999,0.83999999999999997,23.52
1610,1782579587061,4.0599999999999996,-5.46,23.66
1611,1782579587160,8.1899999999999995,-3.8500000000000001,24.850000000000001
1612,1782579587261,8.3300000000000001,-11.550000000000001,26.739999999999998
1613,1782579587327,6.9299999999999997,-11.76,29.120000000000001
1614,1782579587378,4.5499999999999998,-6.79,49.140000000000001
1615,1782579587393,4.5499999999999998,-5.3899999999999997,49.909999999999997
1616,1782579587461,5.1799999999999997,-9.8000000000000007,50.189999999999998
1617,1782579587511,4.5499999999999998,-9.8000000000000007,50.890000000000001
1618,1782579587644,4.4800000000000004,-9.0299999999999994,45.640000000000001
1619,1782579587693,7.7000000000000002,-6.8600000000000003,44.659999999999997
1620,1782579587743,10.640000000000001,-5.8799999999999999,44.590000000000003
1621,1782579587777,10.640000000000001,-0.97999999999999998,43.469999999999999
1622,1782579587794,10.640000000000001,0.56000000000000005,43.399999999999999
1623,1782579587827,6.2300000000000004,2.4500000000000002,41.369999999999997
1624,1782579587910,-2.2400000000000002,4.4800000000000004,34.439999999999998
1625,1782579588043,-3.3599999999999999,4.4800000000000004,34.369999999999997
1626,1782579588094,-2.4500000000000002,4.4800000000000004,34.369999999999997
1627,1782579588126,2.1699999999999999,0,25.760000000000002
1628,1782579588210,1.54,-2.3100000000000001,25.41
1629,1782579588260,0.34999999999999998,-3.29,24.989999999999998
1630,1782579588376,0.34999999999999998,-3.29,24.57
1631,1782579588426,2.9399999999999999,-1.8899999999999999,11.130000000000001
1632,1782579588459,2.9399999999999999,-0.28000000000000003,10.99
1633,1782579588510,2.9399999999999999,0.48999999999999999,10.710000000000001
1634,1782579588560,2.8700000000000001,0.48999999999999999,10.57
1635,1782579588677,-1.05,2.8700000000000001,-0.20999999999999999
1636,1782579588710,-1.05,2.8700000000000001,-0.20999999999999999
1637,1782579588743,0.69999999999999996,2.3799999999999999,-0.28000000000000003
1638,1782579588794,0.69999999999999996,2.3799999999999999,-0.28000000000000003
1639,1782579588876,1.05,0.56000000000000005,-0.28000000000000003
1640,1782579588925,-3.8500000000000001,-4.9000000000000004,-11.69
1641,1782579588975,-3.8500000000000001,-5.7400000000000002,-12.880000000000001
1642,1782579589059,0.41999999999999998,-5.7400000000000002,-13.369999999999999
1643,1782579589076,3.9199999999999999,-3.29,-14.56
1644,1782579589109,3.9199999999999999,-2.5899999999999999,-16.100000000000001
1645,1782579589142,3.9199999999999999,-1.26,-16.870000000000001
1646,1782579589175,1.6100000000000001,-1.26,-17.43
1647,1782579589243,1.6100000000000001,-1.26,-18.199999999999999
1648,1782579589292,-2.73,-0.77000000000000002,-23.379999999999999
1649,1782579589342,-3.7799999999999998,-2.1000000000000001,-23.379999999999999
1650,1782579589425,-3.7799999999999998,-2.1000000000000001,-23.73
1651,1782579589492,-3.7799999999999998,-2.73,-23.800000000000001
1652,1782579589525,-2.1000000000000001,-5.5300000000000002,-35.210000000000001
1653,1782579589559,-0.48999999999999999,-5.5300000000000002,-32.200000000000003
1654,1782579589592,1.6100000000000001,-5.3200000000000003,-32.200000000000003
1655,1782579589675,1.6100000000000001,-4.2699999999999996,-32.200000000000003
1656,1782579589725,1.6100000000000001,-4.2000000000000002,-33.32
1657,1782579589742,0.63,-1.75,-33.810000000000002
1658,1782579589791,0.56000000000000005,-1.6100000000000001,-34.159999999999997
1659,1782579589858,0.56000000000000005,-1.6100000000000001,-34.649999999999999
1660,1782579589892,0.91000000000000003,0.83999999999999997,-35.770000000000003
1661,1782579589908,0.91000000000000003,1.8200000000000001,-35.840000000000003
1662,1782579589942,0.91000000000000003,2.2400000000000002,-36.119999999999997
1663,1782579589991,1.75,2.4500000000000002,-36.119999999999997
1664,1782579590008,0.20999999999999999,-0.97999999999999998,-34.859999999999999
1665,1782579590041,0.20999999999999999,-0.56000000000000005,-34.579999999999998
1666,1782579590108,-0.34999999999999998,0.41999999999999998,-34.439999999999998
1667,1782579590175,-0.56000000000000005,1.6100000000000001,-34.439999999999998
1668,1782579590308,-3.1499999999999999,-3.3599999999999999,-38.5
1669,1782579590375,-5.04,-3.3599999999999999,-39.130000000000003
1670,1782579590457,-5.04,-2.4500000000000002,-39.409999999999997
1671,1782579590508,-5.04,-2.1000000000000001,-39.829999999999998
1672,1782579590558,-4.3399999999999999,1.6100000000000001,-34.439999999999998
1673,1782579590608,-3.8500000000000001,0.41999999999999998,-33.950000000000003
1674,1782579590658,-3.5699999999999998,0.28000000000000003,-33.810000000000002
1675,1782579590758,-3.6400000000000001,0.28000000000000003,-33.810000000000002
1676,1782579590774,0.83999999999999997,0.83999999999999997,-27.859999999999999
1677,1782579590808,0.83999999999999997,0.83999999999999997,-27.510000000000002
1678,1782579590891,0.83999999999999997,1.05,-27.23
1679,1782579590940,0.69999999999999996,0.69999999999999996,-27.09
1680,1782579591024,-1.26,0.56000000000000005,-26.879999999999999
1681,1782579591057,-4.5499999999999998,-2.52,-30.170000000000002
1682,1782579591091,-4.5499999999999998,-0.28000000000000003,-30.59
1683,1782579591107,-3.7799999999999998,0.48999999999999999,-30.030000000000001
1684,1782579591174,-1.6799999999999999,1.3999999999999999,-30.030000000000001
1685,1782579591240,-0.48999999999999999,1.3999999999999999,-29.960000000000001
1686,1782579591340,-3.9199999999999999,-0.56000000000000005,-35.979999999999997
1687,1782579591407,-3.9199999999999999,-0.77000000000000002,-35.840000000000003
1688,1782579591440,-3.9199999999999999,-3.5,-35.630000000000003
1689,1782579591473,-1.6799999999999999,-3.7799999999999998,-35.560000000000002
1690,1782579591540,-1.54,-3.7799999999999998,-35.560000000000002
1691,1782579591590,-0.91000000000000003,-3.7799999999999998,-35.560000000000002
1692,1782579591607,0.63,-2.6600000000000001,-35.630000000000003
1693,1782579591657,5.1799999999999997,2.7999999999999998,-37.799999999999997
1694,1782579591707,1.75,1.6100000000000001,-37.799999999999997
1695,1782579591756,-1.75,-3.1499999999999999,-37.799999999999997
1696,1782579591823,-1.96,-4.2699999999999996,-37.799999999999997
1697,1782579591890,-2.5899999999999999,-5.8799999999999999,-35.350000000000001
1698,1782579591923,2.1000000000000001,0.77000000000000002,-35.560000000000002
1699,1782579592006,5.5999999999999996,1.6799999999999999,-36.609999999999999
1700,1782579592023,5.5999999999999996,1.6799999999999999,-37.240000000000002
1701,1782579592089,5.5999999999999996,1.75,-38.009999999999998
1702,1782579592140,0.28000000000000003,1.6799999999999999,-38.289999999999999
1703,1782579592156,-3.4300000000000002,4.6200000000000001,-38.640000000000001
1704,1782579592273,-3.7799999999999998,2.2400000000000002,-38.149999999999999
1705,1782579592323,-3.4300000000000002,2.2400000000000002,-37.729999999999997
1706,1782579592373,-2.7999999999999998,0.77000000000000002,-37.520000000000003
1707,1782579592407,0.28000000000000003,0.20999999999999999,-37.380000000000003
1708,1782579592473,2.52,3.2200000000000002,-37.380000000000003
1709,1782579592523,2.52,3.2200000000000002,-36.189999999999998
1710,1782579592572,2.52,0.41999999999999998,-35.07
1711,1782579592623,2.2400000000000002,-0.56000000000000005,-34.719999999999999
1712,1782579592673,0.83999999999999997,-4.2699999999999996,-34.299999999999997
1713,1782579592722,-2.1699999999999999,-3.29,-34.859999999999999
1714,1782579592806,-2.1000000000000001,-7,-34.859999999999999
1715,1782579592856,-2.1000000000000001,-7,-34.859999999999999
1716,1782579592906,-2.1000000000000001,-7,-35.630000000000003
1717,1782579593039,-1.3300000000000001,-1.8899999999999999,-30.309999999999999
1718,1782579593089,-2.4500000000000002,-2.1699999999999999,-30.239999999999998
1719,1782579593224,-1.54,0.28000000000000003,-29.609999999999999
1720,1782579593322,-1.54,0.28000000000000003,-29.609999999999999
1721,1782579593388,-0.48999999999999999,0.28000000000000003,-29.609999999999999
1722,1782579593422,-0.48999999999999999,-4.3399999999999999,-29.68
1723,1782579593488,-1.1899999999999999,2.3799999999999999,-36.82
1724,1782579593539,-2.1000000000000001,-1.47,-36.399999999999999
1725,1782579593688,-2.4500000000000002,0.97999999999999998,-36.189999999999998
1726,1782579593738,-4.2000000000000002,2.73,-36.539999999999999
1727,1782579593772,-4.2000000000000002,1.6799999999999999,-36.609999999999999
1728,1782579593805,-4.2000000000000002,0.91000000000000003,-36.539999999999999
1729,1782579593822,-3.29,-1.75,-36.539999999999999
1730,1782579593855,-0.77000000000000002,-2.9399999999999999,-36.539999999999999
1731,1782579593938,-0.77000000000000002,-3.1499999999999999,-35.840000000000003
1732,1782579593955,-0.77000000000000002,-3.4300000000000002,-35.560000000000002
1733,1782579594006,-2.3799999999999999,-4.2699999999999996,-34.789999999999999
1734,1782579594071,-3.6400000000000001,0.77000000000000002,-35.490000000000002
1735,1782579594138,-3.6400000000000001,3.1499999999999999,-35.770000000000003
1736,1782579594190,-1.96,3.2200000000000002,-35.770000000000003
1737,1782579594254,-1.96,3.2200000000000002,-35.840000000000003
1738,1782579594305,-1.1899999999999999,0.77000000000000002,-35.909999999999997
1739,1782579594388,-5.3200000000000003,-1.3999999999999999,-30.940000000000001
1740,1782579594421,-5.3200000000000003,-2.3100000000000001,-30.449999999999999
1741,1782579594488,-5.3200000000000003,-4.0599999999999996,-30.449999999999999
1742,1782579594554,-3.4300000000000002,-4.0599999999999996,-30.449999999999999
1743,1782579594604,-0.28000000000000003,-5.1799999999999997,-28.84
1744,1782579594638,-1.26,-5.1799999999999997,-29.260000000000002
1745,1782579594722,-1.54,-4.9000000000000004,-29.609999999999999
