index,date,GYRO_X,GYRO_Y,GYRO_Z,1,2,3,4,5
0,1765895465948,-13,19,1,0,0,0,0,0
1,1765895519647,32,18,-10,0,0,0,0,0
2,1765895520030,7,21,8,0,0,0,0,0
3,1765895522646,-37,-1,21,0,0,0,0,0
4,1765895527164,-57,99,-23,0,0,0,0,0
5,1765895527381,-62,119,-4,0,0,0,0,0
6,1765895528231,23,148,-2,0,0,0,0,0
7,1765895529330,-19,-3,14,0,0,0,0,0
8,1765895531280,20,-228,-7,0,0,0,0,0
9,1765895533097,7,-159,28,0,0,0,0,0
10,1765895533947,-7,-121,-1,0,0,0,0,0
11,1765895536614,-36,6,31,0,0,0,0,0
12,1765895538881,-24,-5,47,0,0,0,0,0
13,1765895539980,12,-27,4,0,0,0,0,0
14,1765895541047,3,-64,-8,0,0,0,0,0
15,1765895543965,-39,12,27,0,0,0,0,0
16,1765895546629,-12,-19,2,0,0,0,0,0
17,1765895547847,-36,95,27,0,0,0,0,0
18,1765895548912,-36,-18,-18,0,0,0,0,0
19,1765895550113,12,-140,-1,0,0,0,0,0
20,1765895557829,24,-70,-86,0,0,0,0,0
21,1765895558929,-61,-53,-15,0,0,0,0,0
22,1765895565245,-13,12,9,0,0,0,0,0
23,1765895565613,-1,24,-4,0,0,0,0,0
24,1765895567595,-22,34,22,0,0,0,0,0
25,1765895571963,1,10,6,0,0,0,0,0
26,1765895578695,40,-328,30,0,0,0,0,0
27,1765895579929,1,-78,10,0,0,0,0,0
28,1765895580979,-46,246,-50,0,0,0,0,0
29,1765895584080,32,-192,2,0,0,0,0,0
30,1765895588763,-85,-191,76,0,0,0,0,0
31,1765895589146,45,-218,0,0,0,0,0,0
32,1765895589980,-95,-142,17,0,0,0,0,0
33,1765895591147,61,-354,103,0,0,0,0,0
34,1765895593930,24,23,7,0,0,0,0,0
35,1765895595362,11,-208,-1,0,0,0,0,0
36,1765895599565,-9,-9,-31,0,0,0,0,0
37,1765895605029,-79,425,-36,0,0,0,0,0
38,1765895606979,-56,445,-35,0,0,0,0,0
39,1765895608364,-28,395,9,0,0,0,0,0
40,1765895609447,-26,-107,-2,0,0,0,0,0
41,1765895611979,8,81,-9,0,0,0,0,0
42,1765895612813,20,-526,41,0,0,0,0,0
43,1765895613496,9,-405,30,0,0,0,0,0
44,1765895613846,-11,-379,21,0,0,0,0,0
45,1765895614279,40,-366,36,0,0,0,0,0
46,1765895618713,-1,-90,11,0,0,0,0,0
47,1765895619096,-8,-26,6,0,0,0,0,0
48,1765895620162,-11,2,2,0,0,0,0,0
49,1765895621229,-15,11,5,0,0,0,0,0
50,1765895622812,-9,18,3,0,0,0,0,0
51,1765895625113,-10,17,1,0,0,0,0,0
52,1765895630180,-12,19,1,0,0,0,0,0
53,1765895633814,-10,20,1,0,0,0,0,0
54,1765895639013,-9,19,1,0,0,0,0,0
55,1765895648112,-12,19,2,0,0,0,0,0
56,1765895648546,-10,18,2,0,0,0,0,0
57,1765895648946,-11,19,3,0,0,0,0,0
58,1765895650129,-10,18,2,0,0,0,0,0
59,1765895653179,-10,18,2,0,0,0,0,0
60,1765895653647,-6,18,0,0,0,0,0,0
61,1765895654031,-10,20,2,0,0,0,0,0
62,1765895662130,-12,18,3,0,0,0,0,0
63,1765895665830,-10,17,1,0,0,0,0,0
64,1765895670347,-10,19,1,0,0,0,0,0
65,1765895670714,-9,19,2,0,0,0,0,0
66,1765895673428,-9,19,2,0,0,0,0,0
67,1765895675031,-11,19,1,0,0,0,0,0
68,1765895675913,-10,20,1,0,0,0,0,0
69,1765895678330,-6,19,2,0,0,0,0,0
70,1765895679913,-11,19,1,0,0,0,0,0
71,1765895681646,-12,19,3,0,0,0,0,0
72,1765895685413,-8,20,2,0,0,0,0,0
73,1765895685597,-11,18,1,0,0,0,0,0
74,1765895687247,-10,18,2,0,0,0,0,0
75,1765895688829,-9,18,1,0,0,0,0,0
76,1765895692797,-10,20,1,0,0,0,0,0
77,1765895693880,-10,18,2,0,0,0,0,0
78,1765895695547,-10,19,0,0,0,0,0,0
79,1765895696429,-10,19,1,0,0,0,0,0
80,1765895698031,-9,19,2,0,0,0,0,0
81,1765895699330,-12,19,2,0,0,0,0,0
82,1765895701696,-12,17,2,0,0,0,0,0
83,1765895713011,-8,17,3,0,0,0,0,0
84,1765895713380,-11,19,0,0,0,0,0,0
85,1765895714946,-11,18,0,0,0,0,0,0
86,1765895716312,-11,18,1,0,0,0,0,0
87,1765895718680,-11,19,2,0,0,0,0,0
88,1765895719095,-8,19,1,0,0,0,0,0
89,1765895721029,-10,19,3,0,0,0,0,0
90,1765895722863,-10,21,2,0,0,0,0,0
91,1765895724930,-9,18,2,0,0,0,0,0
92,1765895725913,-8,19,2,0,0,0,0,0
93,1765895726379,-10,19,3,0,0,0,0,0
94,1765895737370,-11,18,1,0,0,0,0,0
95,1765895738664,-11,20,2,0,0,0,0,0
96,1765895739815,-9,18,1,0,0,0,0,0
97,1765895741170,-10,19,2,0,0,0,0,0
98,1765895741528,-11,19,1,0,0,0,0,0
99,1765895745598,-9,19,2,0,0,0,0,0
100,1765895747381,-12,19,2,0,0,0,0,0
101,1765895748914,-10,20,1,0,0,0,0,0
102,1765895749848,-10,17,4,0,0,0,0,0
103,1765895751599,-10,17,1,0,0,0,0,0
104,1765895752316,-10,19,1,0,0,0,0,0
105,1765895753931,-9,18,2,0,0,0,0,0
106,1765895754797,-9,19,1,0,0,0,0,0
107,1765895755165,-10,19,2,0,0,0,0,0
108,1765895759581,-10,16,3,0,0,0,0,0
109,1765895762964,-9,19,2,0,0,0,0,0
110,1765895764979,-12,18,1,0,0,0,0,0
111,1765895768781,-9,18,2,0,0,0,0,0
112,1765895769778,-12,17,2,0,0,0,0,0
113,1765895773528,-8,18,2,0,0,0,0,0
114,1765895775479,-12,18,1,0,0,0,0,0
115,1765895776246,-11,18,0,0,0,0,0,0
116,1765895784483,-11,19,2,0,0,0,0,0
117,1765895787580,-9,18,1,0,0,0,0,0
118,1765895795763,-9,17,3,0,0,0,0,0
119,1765895797311,-12,18,-3,0,0,0,0,0
120,1765895798729,-11,20,0,0,0,0,0,0
121,1765895800163,-9,19,2,0,0,0,0,0
122,1765895805496,-11,18,1,0,0,0,0,0
123,1765895805862,-12,18,2,0,0,0,0,0
124,1765895809113,-11,18,2,0,0,0,0,0
125,1765895897212,-11,18,3,0,0,0,0,0
126,1765895897328,-8,18,2,0,0,0,0,0
127,1765895897460,-12,19,2,0,0,0,0,0
128,1765895897579,-10,19,2,0,0,0,0,0
129,1765895897678,-10,19,3,0,0,0,0,0
130,1765895897828,-9,18,0,0,0,0,0,0
131,1765895897911,-11,20,2,0,0,0,0,0
132,1765895898078,-9,19,2,0,0,0,0,0
133,1765895898144,-10,16,2,0,0,0,0,0
134,1765895909711,-10,18,2,0,0,0,0,0
135,1765895911344,-7,18,2,0,0,0,0,0
136,1765895912177,-13,19,2,0,0,0,0,0
137,1765895912677,-10,18,2,0,0,0,0,0
138,1765895918829,-9,20,-1,0,0,0,0,0
139,1765895920677,-11,18,2,0,0,0,0,0
140,1765895921912,-10,19,1,0,0,0,0,0
141,1765895924743,-10,19,2,0,0,0,0,0
142,1765895935128,-8,18,3,0,0,0,0,0
143,1765895935576,-11,19,2,0,0,0,0,0
144,1765895935894,-11,19,2,0,0,0,0,0
145,1765895945944,-11,21,2,0,0,0,0,0
146,1765895947760,-10,19,2,0,0,0,0,0
147,1765895949427,-9,17,3,0,0,0,0,0
148,1765895953009,-8,17,-255,0,0,0,0,0
149,1765895953411,-10,17,1,0,0,0,0,0
150,1765895956111,-10,18,2,0,0,0,0,0
151,1765895957627,-10,18,2,0,0,0,0,0
152,1765895958960,-9,18,1,0,0,0,0,0
153,1765895960728,-14,21,2,0,0,0,0,0
154,1765895962059,-9,17,3,0,0,0,0,0
155,1765895963793,-11,20,2,0,0,0,0,0
156,1765895965126,-11,18,2,0,0,0,0,0
157,1765895966911,-8,18,2,0,0,0,0,0
158,1765895969044,-10,20,1,0,0,0,0,0
159,1765895975028,-11,17,3,0,0,0,0,0
160,1765895975462,-11,19,2,0,0,0,0,0
161,1765895976760,-10,17,1,0,0,0,0,0
162,1765895978127,-10,19,1,0,0,0,0,0
163,1765895979894,-10,19,1,0,0,0,0,0
164,1765895981241,-12,19,1,0,0,0,0,0
165,1765895982577,-10,18,2,0,0,0,0,0
166,1765895984360,-10,21,2,0,0,0,0,0
167,1765895985661,-9,18,1,0,0,0,0,0
168,1765895987026,-11,21,2,0,0,0,0,0
169,1765895987444,-9,19,2,0,0,0,0,0
170,1765895989059,-10,19,2,0,0,0,0,0
171,1765895990344,-9,18,2,0,0,0,0,0
172,1765895991709,-11,20,1,0,0,0,0,0
173,1765895992211,-9,18,2,0,0,0,0,0
174,1765895993460,-10,19,1,0,0,0,0,0
175,1765895994793,-9,16,2,0,0,0,0,0
176,1765895996594,-8,19,1,0,0,0,0,0
177,1765895997959,-10,18,3,0,0,0,0,0
178,1765895999277,-11,19,2,0,0,0,0,0
179,1765896000892,-9,17,2,0,0,0,0,0
180,1765896002643,-11,19,2,0,0,0,0,0
181,1765896003961,-9,19,1,0,0,0,0,0
182,1765896005760,-10,18,2,0,0,0,0,0
183,1765896007077,-12,19,2,0,0,0,0,0
184,1765896008426,-9,18,2,0,0,0,0,0
185,1765896010209,-10,17,3,0,0,0,0,0
186,1765896011808,-10,18,2,0,0,0,0,0
187,1765896013143,-9,18,2,0,0,0,0,0
188,1765896014926,-9,18,2,0,0,0,0,0
189,1765896016511,-11,17,1,0,0,0,0,0
190,1765896017859,-9,20,2,0,0,0,0,0
191,1765896019625,-11,17,1,0,0,0,0,0
192,1765896022544,-10,21,0,0,0,0,0,0
193,1765896024341,-10,18,2,0,0,0,0,0
194,1765896025691,-12,18,2,0,0,0,0,0
195,1765896027042,-12,17,1,0,0,0,0,0
196,1765896028827,-10,19,3,0,0,0,0,0
197,1765896030425,-10,18,2,0,0,0,0,0
198,1765896031743,-11,19,2,0,0,0,0,0
199,1765896033526,-11,18,4,0,0,0,0,0
200,1765896033710,-10,19,2,0,0,0,0,0
201,1765896035326,-14,21,2,0,0,0,0,0
202,1765896036643,-9,20,4,0,0,0,0,0
203,1765896037109,-8,17,1,0,0,0,0,0
204,1765896038428,-10,19,3,0,0,0,0,0
205,1765896041375,-10,18,2,0,0,0,0,0
206,1765896043126,-11,18,2,0,0,0,0,0
207,1765896047825,-10,18,2,0,0,0,0,0
208,1765896049141,-9,19,2,0,0,0,0,0
209,1765896050926,-9,20,2,0,0,0,0,0
210,1765896052276,-10,18,3,0,0,0,0,0
211,1765896053593,-11,19,2,0,0,0,0,0
212,1765896054043,-7,18,1,0,0,0,0,0
213,1765896055410,-10,20,2,0,0,0,0,0
214,1765896058493,-11,20,1,0,0,0,0,0
215,1765896060074,-10,18,3,0,0,0,0,0
216,1765896061374,-7,21,1,0,0,0,0,0
217,1765896061826,-11,19,0,0,0,0,0,0
218,1765896063177,-11,18,1,0,0,0,0,0
219,1765896064458,-10,18,2,0,0,0,0,0
220,1765896064893,-9,19,2,0,0,0,0,0
221,1765896067793,-10,19,1,0,0,0,0,0
222,1765896069592,-11,18,2,0,0,0,0,0
223,1765896070926,-12,17,2,0,0,0,0,0
224,1765896072275,-8,18,2,0,0,0,0,0
225,1765896073876,-11,20,1,0,0,0,0,0
226,1765896075608,-11,16,2,0,0,0,0,0
227,1765896087391,-10,20,2,0,0,0,0,0
228,1765896087510,-10,18,2,0,0,0,0,0
229,1765896087625,-12,20,1,0,0,0,0,0
230,1765896087758,-11,20,2,0,0,0,0,0
231,1765896087860,-13,18,2,0,0,0,0,0
232,1765896088009,-9,18,2,0,0,0,0,0
233,1765896088092,-10,18,3,0,0,0,0,0
234,1765896088260,-8,18,2,0,0,0,0,0
235,1765896088325,-11,20,1,0,0,0,0,0
236,1765896093460,-11,19,2,0,0,0,0,0
237,1765896096458,-9,18,1,0,0,0,0,0
238,1765896100291,-10,18,3,0,0,0,0,0
239,1765896101793,-10,18,1,0,0,0,0,0
240,1765896101942,-12,18,2,0,0,0,0,0
241,1765896105742,-11,18,2,0,0,0,0,0
242,1765896110341,-10,19,2,0,0,0,0,0
243,1765896124326,-10,20,3,0,0,0,0,0
244,1765896128343,-11,18,2,0,0,0,0,0
245,1765896129575,-9,19,2,0,0,0,0,0
246,1765896134494,-10,19,1,0,0,0,0,0
247,1765896134925,-9,18,2,0,0,0,0,0
248,1765896137375,-11,18,1,0,0,0,0,0
249,1765896138192,-10,16,2,0,0,0,0,0
250,1765896138658,-10,18,2,0,0,0,0,0
251,1765896143292,-9,19,2,0,0,0,0,0
252,1765896144658,-10,18,2,0,0,0,0,0
253,1765896147141,-10,17,2,0,0,0,0,0
254,1765896150124,-10,20,2,0,0,0,0,0
255,1765896151773,-18,20,6,0,0,0,0,0
256,1765896157191,-10,18,2,0,0,0,0,0
257,1765896157608,-10,20,2,0,0,0,0,0
258,1765896158557,-9,19,1,0,0,0,0,0
259,1765896158941,-9,18,3,0,0,0,0,0
260,1765896162476,-10,20,2,0,0,0,0,0
261,1765896162924,-10,17,2,0,0,0,0,0
262,1765896166275,-10,18,2,0,0,0,0,0
263,1765896169208,-10,19,2,0,0,0,0,0
264,1765896170558,-12,19,0,0,0,0,0,0
265,1765896172107,-10,18,2,0,0,0,0,0
266,1765896172473,-10,18,2,0,0,0,0,0
267,1765896173875,-11,19,1,0,0,0,0,0
268,1765896180040,-9,18,3,0,0,0,0,0
269,1765896180373,-11,18,1,0,0,0,0,0
270,1765896182759,-12,19,3,0,0,0,0,0
271,1765896185224,-11,17,2,0,0,0,0,0
272,1765896188160,-11,18,1,0,0,0,0,0
273,1765896189073,-11,18,1,0,0,0,0,0
274,1765896193724,-11,18,2,0,0,0,0,0
275,1765896200907,-22,-209,5,0,0,0,0,0
276,1765896204474,6,-71,52,0,0,0,0,0
277,1765896208690,-60,10,31,0,0,0,0,0
278,1765896209758,-5,-8,13,0,0,0,0,0
279,1765896212539,-6,-2,-6,0,0,0,0,0
280,1765896215358,17,-20,28,0,0,0,0,0
281,1765896219841,-7,12,2,0,0,0,0,0
282,1765896222308,-10,18,2,0,0,0,0,0
283,1765896225107,-11,19,2,0,0,0,0,0
284,1765896227541,-12,19,1,0,0,0,0,0
285,1765896227906,-9,16,2,0,0,0,0,0
286,1765896230541,-10,18,2,0,0,0,0,0
287,1765896233056,-11,19,2,0,0,0,0,0
288,1765896234190,-10,18,1,0,0,0,0,0
289,1765896242607,-11,18,2,0,0,0,0,0
290,1765896246442,-9,18,2,0,0,0,0,0
291,1765896247241,-11,18,1,0,0,0,0,0
292,1765896249974,-10,18,2,0,0,0,0,0
293,1765896265973,-11,18,3,0,0,0,0,0
294,1765896268241,-12,18,2,0,0,0,0,0
295,1765896269241,-10,18,1,0,0,0,0,0
296,1765896270560,-10,18,0,0,0,0,0,0
297,1765896271325,-12,17,3,0,0,0,0,0
298,1765896277511,-12,18,2,0,0,0,0,0
299,1765896278007,-22,18,4,0,0,0,0,0
300,1765896278310,-40,36,6,0,0,0,0,0
301,1765896278411,-8,17,2,0,0,0,0,0
302,1765896278526,-12,17,2,0,0,0,0,0
303,1765896278642,-9,21,1,0,0,0,0,0
304,1765896278758,-10,19,3,0,0,0,0,0
305,1765896278891,-10,18,2,0,0,0,0,0
306,1765896278992,-11,19,1,0,0,0,0,0
307,1765896280558,-10,19,2,0,0,0,0,0
308,1765896280625,-10,18,2,0,0,0,0,0
309,1765896281625,-9,18,1,0,0,0,0,0
310,1765896283309,-9,19,2,0,0,0,0,0
311,1765896284792,-10,18,3,0,0,0,0,0
312,1765896285459,-10,18,1,0,0,0,0,0
313,1765896288075,-11,18,3,0,0,0,0,0
314,1765896288558,-11,18,1,0,0,0,0,0
315,1765896297209,-9,18,1,0,0,0,0,0
316,1765896297335,-10,19,2,0,0,0,0,0
317,1765896297439,-11,20,2,0,0,0,0,0
318,1765896297591,-8,18,2,0,0,0,0,0
319,1765896297677,-9,20,1,0,0,0,0,0
320,1765896297836,-10,19,4,0,0,0,0,0
321,1765896297917,-9,18,1,0,0,0,0,0
322,1765896298069,-10,17,2,0,0,0,0,0
323,1765896298130,-10,18,4,0,0,0,0,0
324,1765896298224,-13,18,1,0,0,0,0,0
325,1765896299621,-11,18,2,0,0,0,0,0
326,1765896301739,-12,18,1,0,0,0,0,0
327,1765896305376,-10,16,2,0,0,0,0,0
328,1765896306920,-9,19,1,0,0,0,0,0
329,1765896309109,-11,18,2,0,0,0,0,0
330,1765896313860,-10,19,3,0,0,0,0,0
331,1765896316477,-11,19,3,0,0,0,0,0
332,1765896318883,-10,19,1,0,0,0,0,0
333,1765896323937,-9,18,2,0,0,0,0,0
334,1765896325000,-12,18,2,0,0,0,0,0
335,1765896326377,-10,21,2,0,0,0,0,0
336,1765896328690,-4,0,-12,0,0,0,0,0
337,1765896329089,-10,-3,1,0,0,0,0,0
338,1765896330170,-17,26,0,0,0,0,0,0
339,1765896332074,-14,9,35,0,0,0,0,0
340,1765896334303,-11,-13,-5,0,0,0,0,0
341,1765896335965,-2,41,19,0,0,0,0,0
342,1765896336363,1,121,-14,0,0,0,0,0
343,1765896336997,-25,-1,33,0,0,0,0,0
344,1765896339193,3,-171,107,0,0,0,0,0
345,1765896339617,53,-288,25,0,0,0,0,0
346,1765896341623,72,-254,-21,0,0,0,0,0
347,1765896342003,14,-223,-7,0,0,0,0,0
348,1765896343253,-6,-157,-28,0,0,0,0,0
349,1765896343631,-79,-135,-6,0,0,0,0,0
350,1765896347730,14,10,-17,0,0,0,0,0
351,1765896352421,-11,17,1,0,0,0,0,0
352,1765896357754,-10,19,2,0,0,0,0,0
353,1765896358145,-11,19,2,0,0,0,0,0
354,1765896359521,-10,18,2,0,0,0,0,0
355,1765896360844,39,48,-7,0,0,0,0,0
356,1765896365634,2,23,3,0,0,0,0,0
357,1765896369159,-11,18,1,0,0,0,0,0
358,1765896370080,-10,18,3,0,0,0,0,0
359,1765896370474,-11,18,2,0,0,0,0,0
360,1765896374141,-20,-6,16,0,0,0,0,0
361,1765896378178,-78,-50,-18,0,0,0,0,0
362,1765896379997,14,-27,22,0,0,0,0,0
363,1765896386636,10,-3,-4,0,0,0,0,0
364,1765896389569,80,-478,-42,0,0,0,0,0
365,1765896394128,-59,-264,37,0,0,0,0,0
366,1765896394442,15,-365,13,0,0,0,0,0
367,1765896396791,-10,246,-24,0,0,0,0,0
368,1765896398757,-30,133,-26,0,0,0,0,0
369,1765896401244,1,504,0,0,0,0,0,0
370,1765896406953,40,-755,36,0,0,0,0,0
371,1765896407391,41,-597,30,0,0,0,0,0
372,1765896408041,19,-344,36,0,0,0,0,0
373,1765896408447,-2,-394,-1,0,0,0,0,0
374,1765896409109,30,-373,34,0,0,0,0,0
375,1765896413041,-2,-216,-9,0,0,0,0,0
376,1765896415524,6,-32,-1,0,0,0,0,0
377,1765896416559,56,-57,2,0,0,0,0,0
378,1765896417875,-27,-37,-45,0,0,0,0,0
379,1765896420058,-16,-14,10,0,0,0,0,0
380,1765896424425,-16,-327,12,0,0,0,0,0
381,1765896424774,54,-458,58,0,0,0,0,0
382,1765896425210,67,-361,28,0,0,0,0,0
383,1765896427124,64,-287,26,0,0,0,0,0
384,1765896431176,89,31,-64,0,0,0,0,0
385,1765896433724,6,-13,-12,0,0,0,0,0
386,1765896434610,-59,-231,35,0,0,0,0,0
387,1765896438909,-19,-371,-3,0,0,0,0,0
388,1765896443077,17,-242,11,0,0,0,0,0
389,1765896445836,-16,-76,18,0,0,0,0,0
390,1765896448979,-10,16,3,0,0,0,0,0
391,1765896452436,-12,18,2,0,0,0,0,0
392,1765896454905,-11,18,2,0,0,0,0,0
393,1765896458366,-9,17,2,0,0,0,0,0
394,1765896458736,-11,19,1,0,0,0,0,0
395,1765896459411,-10,18,2,0,0,0,0,0
396,1765896459770,-11,20,2,0,0,0,0,0
397,1765896460223,-12,18,3,0,0,0,0,0
398,1765896461968,-12,20,2,0,0,0,0,0
399,1765896462772,-12,18,0,0,0,0,0,0
400,1765896464132,-8,18,2,0,0,0,0,0
401,1765896479028,-11,18,2,0,0,0,0,0
402,1765896482288,-8,20,2,0,0,0,0,0
403,1765896482692,-10,19,2,0,0,0,0,0
404,1765896483340,-9,20,2,0,0,0,0,0
405,1765896488692,-10,19,2,0,0,0,0,0
406,1765896488855,-11,19,2,0,0,0,0,0
407,1765896488934,-10,18,3,0,0,0,0,0
408,1765896489054,-11,20,3,0,0,0,0,0
409,1765896489172,-10,20,2,0,0,0,0,0
410,1765896489286,-10,17,3,0,0,0,0,0
411,1765896489409,-10,19,3,0,0,0,0,0
412,1765896489488,-10,20,1,0,0,0,0,0
413,1765896489612,-10,17,2,0,0,0,0,0
414,1765896490552,-11,19,2,0,0,0,0,0
415,1765896493298,-10,18,2,0,0,0,0,0
416,1765896493662,-10,18,1,0,0,0,0,0
417,1765896493707,-10,18,2,0,0,0,0,0
418,1765896494031,-8,19,0,0,0,0,0,0
419,1765896494233,-10,19,4,0,0,0,0,0
420,1765896494519,-10,18,2,0,0,0,0,0
421,1765896494800,-11,18,2,0,0,0,0,0
422,1765896497969,-10,17,3,0,0,0,0,0
423,1765896498246,-9,19,2,0,0,0,0,0
424,1765896502059,-9,20,2,0,0,0,0,0
425,1765896505414,-11,19,2,0,0,0,0,0
426,1765896505590,-10,18,1,0,0,0,0,0
427,1765896505902,-10,19,2,0,0,0,0,0
428,1765896511439,-9,19,1,0,0,0,0,0
429,1765896511529,-11,19,2,0,0,0,0,0
430,1765896511910,-12,17,1,0,0,0,0,0
431,1765896512162,-11,18,1,0,0,0,0,0
432,1765896512994,-12,18,1,0,0,0,0,0
433,1765896515555,-10,18,2,0,0,0,0,0
434,1765896515954,-10,19,0,0,0,0,0,0
435,1765896518904,-9,18,2,0,0,0,0,0
436,1765896519065,-9,18,2,0,0,0,0,0
437,1765896519338,-10,19,3,0,0,0,0,0
438,1765896519446,-11,19,1,0,0,0,0,0
439,1765896520111,-9,18,1,0,0,0,0,0
440,1765896521996,-11,19,2,0,0,0,0,0
441,1765896523001,-10,18,2,0,0,0,0,0
442,1765896523188,-10,20,2,0,0,0,0,0
443,1765896523357,-9,18,1,0,0,0,0,0
444,1765896528700,-9,19,2,0,0,0,0,0
445,1765896529620,-8,17,1,0,0,0,0,0
446,1765896529620,-10,18,2,0,0,0,0,0
447,1765896529620,-8,19,2,0,0,0,0,0
448,1765896529621,-11,19,2,0,0,0,0,0
449,1765896529740,-10,20,2,0,0,0,0,0
450,1765896529937,-10,18,2,0,0,0,0,0
451,1765896530537,-11,18,3,0,0,0,0,0
452,1765896530733,-10,17,2,0,0,0,0,0
453,1765896530887,-9,18,1,0,0,0,0,0
454,1765896532240,-9,18,3,0,0,0,0,0
455,1765896532545,-11,18,2,0,0,0,0,0
456,1765896532732,-9,19,1,0,0,0,0,0
457,1765896533000,-9,19,2,0,0,0,0,0
458,1765896533170,-10,17,2,0,0,0,0,0
459,1765896533364,-10,21,2,0,0,0,0,0
460,1765896533671,-9,18,1,0,0,0,0,0
461,1765896535099,-9,16,3,0,0,0,0,0
462,1765896535467,-10,19,2,0,0,0,0,0
463,1765896535690,-9,18,2,0,0,0,0,0
464,1765896535887,-10,19,2,0,0,0,0,0
465,1765896536256,-9,18,2,0,0,0,0,0
466,1765896536569,-9,19,2,0,0,0,0,0
467,1765896537945,-9,19,2,0,0,0,0,0
468,1765896537945,-9,20,2,0,0,0,0,0
469,1765896538069,-10,19,3,0,0,0,0,0
470,1765896538261,-9,18,4,0,0,0,0,0
471,1765896538543,-11,19,1,0,0,0,0,0
472,1765896538741,-10,18,1,0,0,0,0,0
473,1765896733728,-13,20,2,0,0,0,0,0
474,1765896733914,-11,18,1,0,0,0,0,0
475,1765896733950,-10,19,2,0,0,0,0,0
476,1765896734167,-12,19,2,0,0,0,0,0
477,1765896734213,-11,20,2,0,0,0,0,0
478,1765896734354,-9,18,3,0,0,0,0,0
479,1765896734405,-12,19,1,0,0,0,0,0
480,1765896734573,-11,18,1,0,0,0,0,0
481,1765896735263,-9,19,2,0,0,0,0,0
482,1765896992147,-11,19,1,0,0,0,0,0
483,1765896992263,-11,18,2,0,0,0,0,0
484,1765896992380,-11,19,2,0,0,0,0,0
485,1765896992513,-10,18,1,0,0,0,0,0
486,1765896992614,-11,20,3,0,0,0,0,0
487,1765896992764,-10,18,3,0,0,0,0,0
488,1765896992846,-9,19,0,0,0,0,0,0
489,1765896992997,-9,19,2,0,0,0,0,0
490,1765896993064,-11,19,2,0,0,0,0,0
491,1765896997096,-11,18,2,0,0,0,0,0
492,1765896999746,-12,19,2,0,0,0,0,0
493,1765897001225,-12,19,1,0,0,0,0,0
494,1765897002033,-10,19,1,0,0,0,0,0
495,1765897002432,-10,19,1,0,0,0,0,0
496,1765897003600,-10,18,2,0,0,0,0,0
497,1765897013400,-10,18,2,0,0,0,0,0
498,1765897014224,-11,19,1,0,0,0,0,0
499,1765897014634,-10,18,2,0,0,0,0,0
500,1765897019735,-10,18,2,0,0,0,0,0
501,1765897022696,-10,18,2,0,0,0,0,0
502,1765897024652,-11,17,1,0,0,0,0,0
503,1765897026051,-11,19,1,0,0,0,0,0
504,1765897029420,-10,22,1,0,0,0,0,0
505,1765897029593,-9,18,1,0,0,0,0,0
506,1765897029627,-10,17,2,0,0,0,0,0
507,1765897029836,-11,20,2,0,0,0,0,0
508,1765897029873,-8,18,3,0,0,0,0,0
509,1765897030055,-9,19,1,0,0,0,0,0
510,1765897030136,-9,19,2,0,0,0,0,0
511,1765897030251,-10,20,1,0,0,0,0,0
512,1765897030360,-10,19,1,0,0,0,0,0
513,1765897030508,-12,19,1,0,0,0,0,0
514,1765897030579,-10,19,3,0,0,0,0,0
515,1765897030736,-9,18,1,0,0,0,0,0
516,1765897030810,-10,18,1,0,0,0,0,0
517,1765897030998,-8,18,2,0,0,0,0,0
518,1765897031034,-12,20,2,0,0,0,0,0
519,1765897031142,-9,18,2,0,0,0,0,0
520,1765897031283,-11,19,1,0,0,0,0,0
521,1765897031393,-12,18,3,0,0,0,0,0
522,1765897031503,-12,20,2,0,0,0,0,0
523,1765897031648,-9,21,2,0,0,0,0,0
524,1765897031751,-11,19,1,0,0,0,0,0
525,1765897031898,-10,19,2,0,0,0,0,0
526,1765897031973,-11,19,1,0,0,0,0,0
527,1765897032113,-10,19,1,0,0,0,0,0
528,1765897032210,-8,19,1,0,0,0,0,0
529,1765897032281,-11,18,1,0,0,0,0,0
530,1765897032457,-11,19,1,0,0,0,0,0
531,1765897032518,-9,19,2,0,0,0,0,0
532,1765897032683,-9,18,2,0,0,0,0,0
533,1765897032779,-9,18,1,0,0,0,0,0
534,1765897032914,-13,19,0,0,0,0,0,0
535,1765897033022,-9,20,5,0,0,0,0,0
536,1765897033130,-10,20,3,0,0,0,0,0
537,1765897033199,-10,19,2,0,0,0,0,0
538,1765897033269,-10,17,1,0,0,0,0,0
539,1765897033411,-9,17,2,0,0,0,0,0
540,1765897033482,-11,18,1,0,0,0,0,0
541,1765897033655,-11,19,2,0,0,0,0,0
542,1765897033729,-8,19,3,0,0,0,0,0
543,1765897034233,-11,19,3,0,0,0,0,0
544,1765897034272,-9,19,1,0,0,0,0,0
545,1765897034272,-11,18,1,0,0,0,0,0
546,1765897034272,-9,18,2,0,0,0,0,0
547,1765897034306,-11,18,1,0,0,0,0,0
548,1765897034444,-10,19,1,0,0,0,0,0
549,1765897034507,-10,19,2,0,0,0,0,0
550,1765897034643,-10,18,1,0,0,0,0,0
551,1765897034709,-10,19,2,0,0,0,0,0
552,1765897034876,-11,18,3,0,0,0,0,0
553,1765897034943,-12,19,1,0,0,0,0,0
554,1765897035120,-11,19,2,0,0,0,0,0
555,1765897035190,-12,19,3,0,0,0,0,0
556,1765897035290,-10,20,1,0,0,0,0,0
557,1765897035429,-10,18,3,0,0,0,0,0
558,1765897035501,-10,19,2,0,0,0,0,0
559,1765897035673,-11,19,0,0,0,0,0,0
560,1765897035705,-10,18,2,0,0,0,0,0
561,1765897035896,-11,19,2,0,0,0,0,0
562,1765897035929,-10,17,1,0,0,0,0,0
563,1765897036224,-10,18,1,0,0,0,0,0
564,1765897036293,-10,20,2,0,0,0,0,0
565,1765897036434,-11,19,2,0,0,0,0,0
566,1765897036474,-11,18,2,0,0,0,0,0
567,1765897036670,-11,18,2,0,0,0,0,0
568,1765897036703,-10,18,2,0,0,0,0,0
569,1765897036859,-11,19,1,0,0,0,0,0
570,1765897036928,-11,20,1,0,0,0,0,0
571,1765897037189,-11,19,3,0,0,0,0,0
572,1765897037263,-10,19,3,0,0,0,0,0
573,1765897037402,-10,19,2,0,0,0,0,0
574,1765897037469,-12,19,3,0,0,0,0,0
575,1765897037615,-11,21,1,0,0,0,0,0
576,1765897037726,-11,18,2,0,0,0,0,0
577,1765897037839,-8,19,3,0,0,0,0,0
578,1765897037959,-10,19,2,0,0,0,0,0
579,1765897038039,-11,20,0,0,0,0,0,0
580,1765897038160,-8,19,1,0,0,0,0,0
581,1765897038245,-9,19,2,0,0,0,0,0
582,1765897038363,-10,18,2,0,0,0,0,0
583,1765897038483,-11,18,1,0,0,0,0,0
584,1765897038559,-11,18,1,0,0,0,0,0
585,1765897038746,-8,17,1,0,0,0,0,0
586,1765897039087,-9,20,2,0,0,0,0,0
587,1765897039426,-11,19,1,0,0,0,0,0
588,1765897039500,-11,19,1,0,0,0,0,0
589,1765897041185,-11,19,1,0,0,0,0,0
590,1765897042436,-11,18,3,0,0,0,0,0
591,1765897042934,-11,17,2,0,0,0,0,0
592,1765897043087,-12,19,3,0,0,0,0,0
593,1765897043290,-9,19,2,0,0,0,0,0
594,1765897047183,-11,18,2,0,0,0,0,0
595,1765897047358,-11,21,1,0,0,0,0,0
596,1765897047414,-10,17,4,0,0,0,0,0
597,1765897049002,-9,20,1,0,0,0,0,0
598,1765897049076,-8,19,2,0,0,0,0,0
599,1765897049321,-7,19,2,0,0,0,0,0
600,1765897049734,-10,20,3,0,0,0,0,0
601,1765897051461,-10,18,2,0,0,0,0,0
602,1765897051864,-9,18,1,0,0,0,0,0
603,1765897052075,-11,18,3,0,0,0,0,0
604,1765897052174,-9,18,1,0,0,0,0,0
605,1765897052452,-10,17,0,0,0,0,0,0
606,1765897052557,-9,21,2,0,0,0,0,0
607,1765897052833,-10,19,3,0,0,0,0,0
608,1765897053213,-8,18,3,0,0,0,0,0
609,1765897053425,-12,19,1,0,0,0,0,0
610,1765897053723,-10,19,2,0,0,0,0,0
611,1765897053928,-11,19,2,0,0,0,0,0
612,1765897054422,-11,19,2,0,0,0,0,0
613,1765897054814,-10,19,2,0,0,0,0,0
614,1765897054962,-10,19,1,0,0,0,0,0
615,1765897055397,-10,18,1,0,0,0,0,0
616,1765897057424,-9,18,2,0,0,0,0,0
617,1765897057864,-9,19,1,0,0,0,0,0
618,1765897059216,-11,20,2,0,0,0,0,0
619,1765897060229,-10,19,0,0,0,0,0,0
620,1765897063278,-10,19,2,0,0,0,0,0
621,1765897063378,-9,18,2,0,0,0,0,0
622,1765897065353,-9,18,1,0,0,0,0,0
623,1765897068175,-10,18,2,0,0,0,0,0
624,1765897068467,-11,20,1,0,0,0,0,0
625,1765897069026,-8,18,2,0,0,0,0,0
626,1765897069330,-10,18,2,0,0,0,0,0
627,1765897069361,-9,17,2,0,0,0,0,0
628,1765897069724,-10,19,2,0,0,0,0,0
629,1765897069822,-10,18,2,0,0,0,0,0
630,1765897069927,-11,18,1,0,0,0,0,0
631,1765897070138,-9,18,2,0,0,0,0,0
632,1765897070496,-10,18,1,0,0,0,0,0
633,1765897071905,-10,20,1,0,0,0,0,0
634,1765897072085,-10,19,2,0,0,0,0,0
635,1765897072161,-9,19,2,0,0,0,0,0
636,1765897072391,-10,20,1,0,0,0,0,0
637,1765897073827,-9,18,0,0,0,0,0,0
638,1765897073967,-9,18,1,0,0,0,0,0
639,1765897075843,-9,19,2,0,0,0,0,0
640,1765897077409,-9,18,0,0,0,0,0,0
641,1765897079677,-10,18,2,0,0,0,0,0
642,1765897081142,-11,18,1,0,0,0,0,0
643,1765897081880,-10,19,2,0,0,0,0,0
644,1765897082089,-10,17,2,0,0,0,0,0
645,1765897082254,-11,20,2,0,0,0,0,0
646,1765897082629,-10,18,3,0,0,0,0,0
647,1765897083038,-11,18,1,0,0,0,0,0
648,1765897083571,-9,19,3,0,0,0,0,0
649,1765897084284,-11,19,1,0,0,0,0,0
650,1765897084339,-11,18,2,0,0,0,0,0
651,1765897084577,-9,19,2,0,0,0,0,0
652,1765897084691,-10,19,2,0,0,0,0,0
653,1765897084988,-9,18,0,0,0,0,0,0
654,1765897085047,-10,20,2,0,0,0,0,0
655,1765897089309,-12,18,2,0,0,0,0,0
656,1765897089309,-9,18,2,0,0,0,0,0
657,1765897090550,-10,18,2,0,0,0,0,0
658,1765897090610,-11,20,2,0,0,0,0,0
659,1765897092096,-9,19,1,0,0,0,0,0
660,1765897093906,-11,18,3,0,0,0,0,0
661,1765897097444,-11,18,3,0,0,0,0,0
662,1765897099021,-11,19,1,0,0,0,0,0
663,1765897099316,-11,17,1,0,0,0,0,0
664,1765897099542,-8,18,0,0,0,0,0,0
665,1765897099723,-10,18,2,0,0,0,0,0
666,1765897100795,-12,18,1,0,0,0,0,0
667,1765897100910,-9,19,0,0,0,0,0,0
668,1765897103156,-9,18,1,0,0,0,0,0
669,1765897103490,-13,20,1,0,0,0,0,0
670,1765897103929,-12,21,2,0,0,0,0,0
671,1765897105090,-10,17,2,0,0,0,0,0
672,1765897105460,-11,20,0,0,0,0,0,0
673,1765897106694,-11,18,2,0,0,0,0,0
674,1765897107428,-10,20,2,0,0,0,0,0
675,1765897108665,-10,19,1,0,0,0,0,0
676,1765897109050,-10,18,2,0,0,0,0,0
677,1765897109607,-10,18,2,0,0,0,0,0
678,1765897109711,-12,18,2,0,0,0,0,0
679,1765897110142,-10,18,2,0,0,0,0,0
680,1765897110410,-10,20,2,0,0,0,0,0
681,1765897110575,-9,18,3,0,0,0,0,0
682,1765897111216,-10,18,1,0,0,0,0,0
683,1765897111216,-10,20,1,0,0,0,0,0
684,1765897111483,-9,17,1,0,0,0,0,0
685,1765897111535,-10,19,2,0,0,0,0,0
686,1765897111818,-11,19,1,0,0,0,0,0
687,1765897111986,-9,18,3,0,0,0,0,0
688,1765897112044,-11,19,1,0,0,0,0,0
689,1765897112385,-10,19,1,0,0,0,0,0
690,1765897112855,-10,18,3,0,0,0,0,0
691,1765897113147,-10,17,1,0,0,0,0,0
692,1765897113147,-10,19,2,0,0,0,0,0
693,1765897113492,-9,19,2,0,0,0,0,0
694,1765897113948,-11,18,2,0,0,0,0,0
695,1765897126049,-8,19,-1,0,0,0,0,0
696,1765897126914,-12,18,2,0,0,0,0,0
697,1765897127345,-10,19,2,0,0,0,0,0
698,1765897127746,-12,20,1,0,0,0,0,0
699,1765897127996,-10,19,1,0,0,0,0,0
700,1765897128278,-9,21,1,0,0,0,0,0
701,1765897128564,-11,17,1,0,0,0,0,0
702,1765897128779,-6,4,7,0,0,0,0,0
703,1765897129045,-10,-4,5,0,0,0,0,0
704,1765897130480,-9,-151,9,0,0,0,0,0
705,1765897131979,-18,-197,-3,0,0,0,0,0
706,1765897132281,-4,-191,-1,0,0,0,0,0
707,1765897132581,30,-119,18,0,0,0,0,0
708,1765897132646,-8,-118,-26,0,0,0,0,0
709,1765897135047,2,22,17,0,0,0,0,0
710,1765897136695,-60,-250,5,0,0,0,0,0
711,1765897138563,26,-366,13,0,0,0,0,0
712,1765897139579,-54,-358,-31,0,0,0,0,0
713,1765897139699,-2,-365,42,0,0,0,0,0
714,1765897144051,3,-223,-1,0,0,0,0,0
715,1765897144058,42,-104,24,0,0,0,0,0
716,1765897144059,40,-48,15,0,0,0,0,0
717,1765897144531,-38,162,-4,0,0,0,0,0
718,1765897144978,-15,269,-31,0,0,0,0,0
719,1765897145328,-87,295,-28,0,0,0,0,0
720,1765897145714,-6,259,-42,0,0,0,0,0
721,1765897147515,-26,-138,39,0,0,0,0,0
722,1765897147831,-22,-6,30,0,0,0,0,0
723,1765897148098,-4,99,26,0,0,0,0,0
724,1765897148378,-8,102,4,0,0,0,0,0
725,1765897149613,-45,464,-59,0,0,0,0,0
726,1765897152111,-28,578,50,0,0,0,0,0
727,1765897153079,-40,506,-21,0,0,0,0,0
728,1765897153497,-37,275,-10,0,0,0,0,0
729,1765897154330,16,-228,48,0,0,0,0,0
730,1765897155094,-52,688,-22,0,0,0,0,0
731,1765897155378,-135,975,-125,0,0,0,0,0
732,1765897157629,70,-626,74,0,0,0,0,0
733,1765897158679,32,-448,39,0,0,0,0,0
734,1765897159065,89,-425,72,0,0,0,0,0
735,1765897159745,71,-449,73,0,0,0,0,0
736,1765897160928,96,-383,-56,0,0,0,0,0
737,1765897161121,-42,-334,20,0,0,0,0,0
738,1765897161555,66,-312,0,0,0,0,0,0
739,1765897161801,-2,-254,54,0,0,0,0,0
740,1765897162227,10,-201,88,0,0,0,0,0
741,1765897162489,-46,-147,-15,0,0,0,0,0
742,1765897164644,44,-145,109,0,0,0,0,0
743,1765897166098,-19,-122,-29,0,0,0,0,0
744,1765897166347,25,-152,-2,0,0,0,0,0
745,1765897166414,-73,-128,16,0,0,0,0,0
746,1765897166678,38,-87,-28,0,0,0,0,0
747,1765897166778,-18,-97,23,0,0,0,0,0
748,1765897168179,-76,-38,-5,0,0,0,0,0
749,1765897169797,-109,-386,11,0,0,0,0,0
750,1765897170095,-45,-477,31,0,0,0,0,0
751,1765897170361,40,-435,31,0,0,0,0,0
752,1765897170481,174,-424,55,0,0,0,0,0
753,1765897172280,-75,-258,-3,0,0,0,0,0
754,1765897173045,-97,-165,-28,0,0,0,0,0
755,1765897173328,-82,-82,-90,0,0,0,0,0
756,1765897173862,48,2,8,0,0,0,0,0
757,1765897174147,-69,-20,15,0,0,0,0,0
758,1765897174547,-42,-30,26,0,0,0,0,0
759,1765897174897,-21,-22,-18,0,0,0,0,0
760,1765897177149,32,29,-72,0,0,0,0,0
761,1765897177232,-60,67,-64,0,0,0,0,0
762,1765897178112,17,-78,1,0,0,0,0,0
763,1765897178411,48,-46,-238,0,0,0,0,0
764,1765897178612,-30,22,24,0,0,0,0,0
765,1765897178963,70,9,0,0,0,0,0,0
766,1765897179164,-69,13,-11,0,0,0,0,0
767,1765897179427,-48,7,44,0,0,0,0,0
768,1765897179729,23,6,52,0,0,0,0,0
769,1765897181596,18,58,4,0,0,0,0,0
770,1765897182962,61,-129,-42,0,0,0,0,0
771,1765897183178,-49,-412,-23,0,0,0,0,0
772,1765897183446,0,-596,-35,0,0,0,0,0
773,1765897183828,12,-426,59,0,0,0,0,0
774,1765897186245,0,-372,31,0,0,0,0,0
775,1765897186644,-16,-339,41,0,0,0,0,0
776,1765897187530,10,-284,34,0,0,0,0,0
777,1765897188100,52,-275,28,0,0,0,0,0
778,1765897188312,-22,-253,-22,0,0,0,0,0
779,1765897189096,-5,-404,51,0,0,0,0,0
780,1765897190128,-20,-654,82,0,0,0,0,0
781,1765897190531,31,-132,4,0,0,0,0,0
782,1765897190811,0,-442,30,0,0,0,0,0
783,1765897192480,-247,-127,-1,0,0,0,0,0
784,1765897193078,195,190,1,0,0,0,0,0
785,1765897195980,-41,303,-42,0,0,0,0,0
786,1765897196027,-49,66,-58,0,0,0,0,0
787,1765897196294,-18,-379,-16,0,0,0,0,0
788,1765897197514,-27,105,18,0,0,0,0,0
789,1765897199093,19,537,-4,0,0,0,0,0
790,1765897199896,-93,703,-74,0,0,0,0,0
791,1765897201011,6,479,-35,0,0,0,0,0
792,1765897201378,0,465,-14,0,0,0,0,0
793,1765897204848,-10,629,-40,0,0,0,0,0
794,1765897205036,7,233,36,0,0,0,0,0
795,1765897205160,-24,195,1,0,0,0,0,0
796,1765897205613,9,-711,58,0,0,0,0,0
797,1765897206236,0,-682,140,0,0,0,0,0
798,1765897206236,34,-406,73,0,0,0,0,0
799,1765897206547,-43,-506,75,0,0,0,0,0
800,1765897207178,65,-594,80,0,0,0,0,0
801,1765897207304,-72,-416,156,0,0,0,0,0
802,1765897208746,69,-444,0,0,0,0,0,0
803,1765897212107,-4,-212,26,0,0,0,0,0
804,1765897212297,-3,-147,19,0,0,0,0,0
805,1765897212612,24,-44,-27,0,0,0,0,0
806,1765897213052,-9,-35,-33,0,0,0,0,0
807,1765897216026,100,-84,38,0,0,0,0,0
808,1765897216398,-34,-66,69,0,0,0,0,0
809,1765897217674,-25,-51,-50,0,0,0,0,0
810,1765897219331,-18,-15,55,0,0,0,0,0
811,1765897220125,20,41,21,0,0,0,0,0
812,1765897220477,34,-128,37,0,0,0,0,0
813,1765897222656,-62,-435,-2166,0,0,0,0,0
814,1765897229518,-45,40,-56,0,0,0,0,0
815,1765897229875,76,29,-5,0,0,0,0,0
816,1765897230281,11,-38,19,0,0,0,0,0
817,1765897234644,-4,27,-16,0,0,0,0,0
818,1765897238206,41,-144,6,0,0,0,0,0
819,1765897238256,27,-152,30,0,0,0,0,0
820,1765897238546,-23,-155,19,0,0,0,0,0
821,1765897241037,4,289,16,0,0,0,0,0
822,1765897241220,11,268,-21,0,0,0,0,0
823,1765897244019,16,-41,2,0,0,0,0,0
824,1765897244198,19,-26,11,0,0,0,0,0
825,1765897245997,-24,16,5,0,0,0,0,0
826,1765897250312,-11,16,3,0,0,0,0,0
827,1765897253741,-10,18,2,0,0,0,0,0
828,1765897254072,-9,19,2,0,0,0,0,0
829,1765897254290,-9,18,2,0,0,0,0,0
830,1765897255046,-4,15,1,0,0,0,0,0
831,1765897256278,-10,17,1,0,0,0,0,0
832,1765897257177,-10,17,2,0,0,0,0,0
833,1765897257460,-10,17,3,0,0,0,0,0
834,1765897258278,-9,18,1,0,0,0,0,0
835,1765897258487,-9,16,3,0,0,0,0,0
836,1765897258697,-11,17,1,0,0,0,0,0
837,1765897260628,-9,17,1,0,0,0,0,0
838,1765897266064,-10,18,3,0,0,0,0,0
839,1765897266265,-10,19,2,0,0,0,0,0
840,1765897266982,-10,17,2,0,0,0,0,0
841,1765897268745,-11,16,1,0,0,0,0,0
842,1765897268883,-10,16,3,0,0,0,0,0
843,1765897269216,-9,18,2,0,0,0,0,0
844,1765897269343,-10,17,2,0,0,0,0,0
845,1765897269876,-11,17,3,0,0,0,0,0
846,1765897269940,-10,16,2,0,0,0,0,0
847,1765897270743,-8,17,2,0,0,0,0,0
848,1765897270875,-10,17,2,0,0,0,0,0
849,1765897272049,-9,18,4,0,0,0,0,0
850,1765897272159,-9,18,1,0,0,0,0,0
851,1765897273025,-9,16,3,0,0,0,0,0
852,1765897274031,-9,16,2,0,0,0,0,0
853,1765897274687,-9,18,2,0,0,0,0,0
854,1765897278542,-10,16,3,0,0,0,0,0
855,1765897278690,-9,17,3,0,0,0,0,0
856,1765897283311,-11,21,2,0,0,0,0,0
857,1765897283832,-11,17,2,0,0,0,0,0
858,1765897283832,-8,18,1,0,0,0,0,0
859,1765897288218,-9,17,3,0,0,0,0,0
860,1765897288218,-10,17,2,0,0,0,0,0
861,1765897288702,-11,18,1,0,0,0,0,0
862,1765897288844,-9,17,2,0,0,0,0,0
863,1765897289049,-10,16,2,0,0,0,0,0
864,1765897303948,-9,18,2,0,0,0,0,0
865,1765897305369,-8,19,2,0,0,0,0,0
866,1765897305792,-9,18,1,0,0,0,0,0
867,1765897306370,-10,16,1,0,0,0,0,0
868,1765897308390,-10,17,2,0,0,0,0,0
869,1765897308668,-10,18,3,0,0,0,0,0
870,1765897309172,-9,18,2,0,0,0,0,0
871,1765897312438,-9,18,1,0,0,0,0,0
872,1765897312940,-9,16,2,0,0,0,0,0
873,1765897314455,-10,16,1,0,0,0,0,0
874,1765897314775,-10,16,2,0,0,0,0,0
875,1765897317812,-8,17,2,0,0,0,0,0
876,1765897323788,-9,17,2,0,0,0,0,0
877,1765897326628,-9,17,2,0,0,0,0,0
878,1765897326682,-10,17,2,0,0,0,0,0
879,1765897326736,-10,16,2,0,0,0,0,0
880,1765897326876,-9,15,3,0,0,0,0,0
881,1765897326974,-10,16,2,0,0,0,0,0
882,1765897327130,-9,18,2,0,0,0,0,0
883,1765897327232,-11,16,2,0,0,0,0,0
884,1765897327337,-9,16,1,0,0,0,0,0
885,1765897327494,-8,17,0,0,0,0,0,0
886,1765897327602,-9,18,3,0,0,0,0,0
887,1765897327697,-11,17,1,0,0,0,0,0
888,1765897327848,-10,17,2,0,0,0,0,0
889,1765897327947,-8,18,2,0,0,0,0,0
890,1765897328046,-11,18,2,0,0,0,0,0
891,1765897328242,-9,17,2,0,0,0,0,0
892,1765897328297,-10,16,3,0,0,0,0,0
893,1765897328467,-10,18,2,0,0,0,0,0
894,1765897328510,-10,16,2,0,0,0,0,0
895,1765897328776,-10,17,1,0,0,0,0,0
896,1765897328956,-9,16,3,0,0,0,0,0
897,1765897328999,-8,18,1,0,0,0,0,0
898,1765897329186,-9,18,3,0,0,0,0,0
899,1765897329283,-10,16,2,0,0,0,0,0
900,1765897329422,-9,17,1,0,0,0,0,0
901,1765897329514,-10,16,3,0,0,0,0,0
902,1765897329647,-10,18,3,0,0,0,0,0
903,1765897329780,-11,17,2,0,0,0,0,0
904,1765897329909,-11,17,1,0,0,0,0,0
905,1765897329993,-10,18,1,0,0,0,0,0
906,1765897330124,-9,18,2,0,0,0,0,0
907,1765897330256,-9,17,3,0,0,0,0,0
908,1765897330398,-9,17,3,0,0,0,0,0
909,1765897330528,-10,18,2,0,0,0,0,0
910,1765897330610,-9,17,2,0,0,0,0,0
911,1765897330789,-9,17,2,0,0,0,0,0
912,1765897330876,-10,17,2,0,0,0,0,0
913,1765897331002,-9,17,2,0,0,0,0,0
914,1765897331107,-10,17,2,0,0,0,0,0
915,1765897331315,-8,17,1,0,0,0,0,0
916,1765897331315,-10,15,1,0,0,0,0,0
917,1765897331540,-10,17,2,0,0,0,0,0
918,1765897331618,-9,17,2,0,0,0,0,0
919,1765897331768,-10,18,1,0,0,0,0,0
920,1765897331846,-9,16,2,0,0,0,0,0
921,1765897331995,-10,17,1,0,0,0,0,0
922,1765897332072,-11,18,1,0,0,0,0,0
923,1765897332225,-10,16,2,0,0,0,0,0
924,1765897332302,-10,18,1,0,0,0,0,0
925,1765897332897,-7,17,2,0,0,0,0,0
926,1765897332973,-7,17,1,0,0,0,0,0
927,1765897332973,-10,18,1,0,0,0,0,0
928,1765897332973,-10,18,1,0,0,0,0,0
929,1765897332974,-10,17,3,0,0,0,0,0
930,1765897333043,-9,17,2,0,0,0,0,0
931,1765897333195,-9,17,2,0,0,0,0,0
932,1765897333338,-9,17,1,0,0,0,0,0
933,1765897333412,-10,17,3,0,0,0,0,0
934,1765897333566,-8,17,1,0,0,0,0,0
935,1765897333637,-12,17,1,0,0,0,0,0
936,1765897333781,-10,16,2,0,0,0,0,0
937,1765897333856,-10,18,1,0,0,0,0,0
938,1765897333998,-10,16,2,0,0,0,0,0
939,1765897334150,-10,17,1,0,0,0,0,0
940,1765897334303,-10,19,3,0,0,0,0,0
941,1765897334377,-9,18,2,0,0,0,0,0
942,1765897334524,-9,17,2,0,0,0,0,0
943,1765897334599,-9,18,2,0,0,0,0,0
944,1765897334758,-9,16,3,0,0,0,0,0
945,1765897334835,-8,18,3,0,0,0,0,0
946,1765897334984,-8,18,2,0,0,0,0,0
947,1765897335052,-10,16,2,0,0,0,0,0
948,1765897335269,-8,17,3,0,0,0,0,0
949,1765897335269,-8,18,1,0,0,0,0,0
950,1765897335506,-9,19,1,0,0,0,0,0
951,1765897335585,-9,17,1,0,0,0,0,0
952,1765897335734,-9,17,3,0,0,0,0,0
953,1765897335808,-10,16,2,0,0,0,0,0
954,1765897335962,-10,16,1,0,0,0,0,0
955,1765897336030,-9,17,2,0,0,0,0,0
956,1765897336177,-12,18,3,0,0,0,0,0
957,1765897336244,-9,17,1,0,0,0,0,0
958,1765897336393,-12,16,2,0,0,0,0,0
959,1765897336543,-8,17,2,0,0,0,0,0
960,1765897336695,-11,17,2,0,0,0,0,0
961,1765897336765,-12,18,2,0,0,0,0,0
962,1765897336911,7,22,-2,0,0,0,0,0
963,1765897337055,-18,16,2,0,0,0,0,0
964,1765897337131,-7,19,0,0,0,0,0,0
965,1765897337207,-10,15,3,0,0,0,0,0
966,1765897337354,-10,20,2,0,0,0,0,0
967,1765897337506,-7,18,1,0,0,0,0,0
968,1765897337575,-12,16,1,0,0,0,0,0
969,1765897337720,-8,18,2,0,0,0,0,0
970,1765897337828,-8,15,4,0,0,0,0,0
971,1765897337960,-9,16,1,0,0,0,0,0
972,1765897338056,-10,18,2,0,0,0,0,0
973,1765897338186,-8,18,2,0,0,0,0,0
974,1765897338283,-9,15,1,0,0,0,0,0
975,1765897338426,-12,16,1,0,0,0,0,0
976,1765897338524,-9,16,2,0,0,0,0,0
977,1765897338670,-10,17,2,0,0,0,0,0
978,1765897338767,-8,15,2,0,0,0,0,0
979,1765897338955,-11,17,2,0,0,0,0,0
980,1765897339002,-7,16,2,0,0,0,0,0
981,1765897339221,-10,16,1,0,0,0,0,0
982,1765897339402,-9,16,2,0,0,0,0,0
983,1765897339449,-8,16,3,0,0,0,0,0
984,1765897339629,-9,17,1,0,0,0,0,0
985,1765897339672,-9,16,1,0,0,0,0,0
986,1765897339892,-9,18,1,0,0,0,0,0
987,1765897340574,-8,17,3,0,0,0,0,0
988,1765897341135,-8,17,3,0,0,0,0,0
989,1765897341794,-6,16,1,0,0,0,0,0
990,1765897342071,-10,16,0,0,0,0,0,0
991,1765897344153,-8,16,2,0,0,0,0,0
992,1765897344232,-10,17,2,0,0,0,0,0
993,1765897344683,-8,16,1,0,0,0,0,0
994,1765897345042,-9,16,1,0,0,0,0,0
995,1765897345367,-9,18,3,0,0,0,0,0
996,1765897345496,-9,15,1,0,0,0,0,0
997,1765897346607,-9,17,2,0,0,0,0,0
998,1765897346651,-10,17,3,0,0,0,0,0
999,1765897349518,-9,17,2,0,0,0,0,0
1000,1765897349917,-8,18,2,0,0,0,0,0
1001,1765897350720,-8,16,2,0,0,0,0,0
1002,1765897351126,-9,16,1,0,0,0,0,0
1003,1765897351611,-8,16,1,0,0,0,0,0
1004,1765897352012,-9,17,3,0,0,0,0,0
1005,1765897352191,-9,17,2,0,0,0,0,0
1006,1765897352365,-9,16,3,0,0,0,0,0
1007,1765897352543,-10,16,2,0,0,0,0,0
1008,1765897352761,-7,17,2,0,0,0,0,0
1009,1765897352852,-9,15,1,0,0,0,0,0
1010,1765897353296,-9,18,2,0,0,0,0,0
1011,1765897353952,-7,18,1,0,0,0,0,0
1012,1765897354168,-9,16,2,0,0,0,0,0
1013,1765897354908,-10,16,2,0,0,0,0,0
1014,1765897355803,-9,16,1,0,0,0,0,0
1015,1765897356509,-9,18,3,0,0,0,0,0
1016,1765897358058,-8,15,3,0,0,0,0,0
1017,1765897359348,-9,16,3,0,0,0,0,0
1018,1765897359702,-9,17,3,0,0,0,0,0
1019,1765897359744,-8,16,2,0,0,0,0,0
1020,1765897359924,-10,17,3,0,0,0,0,0
1021,1765897360100,-9,17,2,0,0,0,0,0
1022,1765897363345,-9,16,2,0,0,0,0,0
1023,1765897363494,-6,16,4,0,0,0,0,0
1024,1765897363542,-9,15,1,0,0,0,0,0
1025,1765897363730,-9,16,1,0,0,0,0,0
1026,1765897363776,-10,14,3,0,0,0,0,0
1027,1765897363923,-8,16,3,0,0,0,0,0
1028,1765897364021,-9,17,2,0,0,0,0,0
1029,1765897364119,-11,16,1,0,0,0,0,0
1030,1765897364261,-9,17,2,0,0,0,0,0
1031,1765897364307,-9,18,3,0,0,0,0,0
1032,1765897364781,-8,16,1,0,0,0,0,0
1033,1765897365722,-9,15,1,0,0,0,0,0
1034,1765897366628,-8,16,0,0,0,0,0,0
1035,1765897366628,-9,15,2,0,0,0,0,0
1036,1765897366810,-9,16,1,0,0,0,0,0
1037,1765897367131,-10,15,2,0,0,0,0,0
1038,1765897367424,-10,15,2,0,0,0,0,0
1039,1765897367607,-9,16,2,0,0,0,0,0
1040,1765897367853,-9,15,-1,0,0,0,0,0
1041,1765897367996,-10,16,2,0,0,0,0,0
1042,1765897368182,-9,16,3,0,0,0,0,0
1043,1765897368711,-8,16,2,0,0,0,0,0
1044,1765897368877,-9,16,1,0,0,0,0,0
1045,1765897371337,-9,15,2,0,0,0,0,0
1046,1765897371705,-10,16,2,0,0,0,0,0
1047,1765897371861,-10,15,1,0,0,0,0,0
1048,1765897372212,-10,18,3,0,0,0,0,0
1049,1765897372361,-9,17,2,0,0,0,0,0
1050,1765897372993,-8,16,2,0,0,0,0,0
1051,1765897373513,-9,17,2,0,0,0,0,0
1052,1765897375254,-9,17,0,0,0,0,0,0
1053,1765897375763,-10,16,1,0,0,0,0,0
1054,1765897377048,-10,18,2,0,0,0,0,0
1055,1765897377620,-9,16,2,0,0,0,0,0
1056,1765897377620,-7,15,1,0,0,0,0,0
1057,1765897377841,-9,16,2,0,0,0,0,0
1058,1765897378172,-10,16,2,0,0,0,0,0
1059,1765897379142,-10,16,1,0,0,0,0,0
1060,1765897380077,-8,15,1,0,0,0,0,0
1061,1765897380175,-8,16,2,0,0,0,0,0
1062,1765897381359,-8,15,1,0,0,0,0,0
1063,1765897381628,-10,16,2,0,0,0,0,0
1064,1765897381964,-9,17,2,0,0,0,0,0
1065,1765897382700,-31,19,-4,0,0,0,0,0
1066,1765897382812,11,-17,-5,0,0,0,0,0
1067,1765897383229,-43,-29,-20,0,0,0,0,0
1068,1765897383493,12,-24,25,0,0,0,0,0
1069,1765897383738,-24,-66,8,0,0,0,0,0
1070,1765897385819,-40,-188,3,0,0,0,0,0
1071,1765897386686,-4,-278,19,0,0,0,0,0
1072,1765897387226,3,-76,2,0,0,0,0,0
1073,1765897387474,-16,-7,41,0,0,0,0,0
1074,1765897387992,-22,32,-39,0,0,0,0,0
1075,1765897388584,5,29,-19,0,0,0,0,0
1076,1765897389093,39,-338,-6,0,0,0,0,0
1077,1765897390175,11,-367,26,0,0,0,0,0
1078,1765897391525,6,-399,28,0,0,0,0,0
1079,1765897392475,66,-371,26,0,0,0,0,0
1080,1765897392659,-2,-387,23,0,0,0,0,0
1081,1765897393510,-10,47,-3,0,0,0,0,0
1082,1765897394244,7,145,-42,0,0,0,0,0
1083,1765897394775,-11,-195,-1,0,0,0,0,0
1084,1765897397325,16,294,-46,0,0,0,0,0
1085,1765897397608,-59,246,-16,0,0,0,0,0
1086,1765897397643,19,-175,-26,0,0,0,0,0
1087,1765897397892,8,-252,-38,0,0,0,0,0
1088,1765897401108,10,489,-61,0,0,0,0,0
1089,1765897401776,-166,748,-116,0,0,0,0,0
1090,1765897403177,-21,579,-27,0,0,0,0,0
1091,1765897403942,-30,307,-16,0,0,0,0,0
1092,1765897404158,1,-141,8,0,0,0,0,0
1093,1765897404674,-28,-56,77,0,0,0,0,0
1094,1765897404991,-43,489,1,0,0,0,0,0
1095,1765897406591,3,-675,3,0,0,0,0,0
1096,1765897410008,-144,-439,-71,0,0,0,0,0
1097,1765897410610,126,-341,86,0,0,0,0,0
1098,1765897413075,-83,-41,11,0,0,0,0,0
1099,1765897413277,63,-74,-26,0,0,0,0,0
1100,1765897413491,-18,-75,50,0,0,0,0,0
1101,1765897413875,-21,-64,105,0,0,0,0,0
1102,1765897414558,-4,-122,0,0,0,0,0,0
1103,1765897415343,-64,-92,-64,0,0,0,0,0
1104,1765897416224,0,-64,59,0,0,0,0,0
1105,1765897416591,16,-72,17,0,0,0,0,0
1106,1765897417325,61,-421,6,0,0,0,0,0
1107,1765897417424,57,-465,98,0,0,0,0,0
1108,1765897419391,-198,-507,88,0,0,0,0,0
1109,1765897420208,-59,-694,3,0,0,0,0,0
1110,1765897422158,78,-1588,98,0,0,0,0,0
1111,1765897426626,-11,19,2,0,0,0,0,0
1112,1765897428074,-8,14,0,0,0,0,0,0
1113,1765897428275,-16,15,4,0,0,0,0,0
1114,1765897428542,-5,17,2,0,0,0,0,0
1115,1765897428591,-9,16,2,0,0,0,0,0
1116,1765897428891,-12,17,2,0,0,0,0,0
1117,1765897429291,-10,19,4,0,0,0,0,0
1118,1765897429474,-8,17,1,0,0,0,0,0
1119,1765897429825,-11,18,2,0,0,0,0,0
1120,1765897430940,-8,17,2,0,0,0,0,0
1121,1765897433758,-21,275,-26,0,0,0,0,0
1122,1765897434961,-12,-327,10,0,0,0,0,0
1123,1765897435058,3,-333,28,0,0,0,0,0
1124,1765897436742,-7,-711,56,0,0,0,0,0
1125,1765897438308,84,-591,111,0,0,0,0,0
1126,1765897438791,-31,-684,152,0,0,0,0,0
1127,1765897440391,-225,-141,-51,0,0,0,0,0
1128,1765897440726,-188,-149,-13,0,0,0,0,0
1129,1765897441010,9,-119,50,0,0,0,0,0
1130,1765897443526,66,108,-25,0,0,0,0,0
1131,1765897444008,25,65,-43,0,0,0,0,0
1132,1765897444192,105,76,-4,0,0,0,0,0
1133,1765897444492,88,36,-15,0,0,0,0,0
1134,1765897444808,-24,-7,-22,0,0,0,0,0
1135,1765897445282,-64,-10,-25,0,0,0,0,0
1136,1765897445307,59,-21,-31,0,0,0,0,0
1137,1765897445575,-7,-56,13,0,0,0,0,0
1138,1765897445810,-80,-54,-20,0,0,0,0,0
1139,1765897446141,110,-52,46,0,0,0,0,0
1140,1765897446541,56,-43,52,0,0,0,0,0
1141,1765897446975,-14,-195,75,0,0,0,0,0
1142,1765897447259,-57,-208,-17,0,0,0,0,0
1143,1765897448175,9,516,-31,0,0,0,0,0
1144,1765897448440,-64,453,-58,0,0,0,0,0
1145,1765897448810,12,76,19,0,0,0,0,0
1146,1765897449074,-70,-23,-33,0,0,0,0,0
1147,1765897449210,35,-412,79,0,0,0,0,0
1148,1765897449491,47,-474,61,0,0,0,0,0
1149,1765897449907,9,-343,47,0,0,0,0,0
1150,1765897451008,-22,159,-16,0,0,0,0,0
1151,1765897451192,-58,-266,-27,0,0,0,0,0
1152,1765897451474,24,-495,11,0,0,0,0,0
1153,1765897452658,17,-489,-1,0,0,0,0,0
1154,1765897453740,108,-406,27,0,0,0,0,0
1155,1765897454576,-18,-320,42,0,0,0,0,0
1156,1765897456305,-42,-1186,95,0,0,0,0,0
1157,1765897457740,-22,21,0,0,0,0,0,0
1158,1765897458193,-13,19,-1,0,0,0,0,0
1159,1765897460941,-5,139,4,0,0,0,0,0
1160,1765897461224,0,144,2,0,0,0,0,0
1161,1765897463108,-2,13,4,0,0,0,0,0
1162,1765897464425,-8,16,1,0,0,0,0,0
1163,1765897465525,-10,17,1,0,0,0,0,0
1164,1765897465691,-7,17,4,0,0,0,0,0
1165,1765897465959,-9,17,1,0,0,0,0,0
1166,1765897466159,-7,16,2,0,0,0,0,0
1167,1765897470024,-8,18,1,0,0,0,0,0
1168,1765897470241,-9,20,3,0,0,0,0,0
1169,1765897470674,-8,17,2,0,0,0,0,0
1170,1765897470810,-11,16,1,0,0,0,0,0
1171,1765897470911,-11,17,2,0,0,0,0,0
1172,1765897471308,-9,17,2,0,0,0,0,0
1173,1765897471626,-9,17,1,0,0,0,0,0
1174,1765897471891,-6,16,4,0,0,0,0,0
1175,1765897471973,-9,15,3,0,0,0,0,0
1176,1765897472425,-10,17,3,0,0,0,0,0
1177,1765897474673,-22,73,-5,0,0,0,0,0
1178,1765897474891,-21,86,-7,0,0,0,0,0
1179,1765897476141,-32,156,2,0,0,0,0,0
1180,1765897476308,-19,177,5,0,0,0,0,0
1181,1765897476574,-9,166,0,0,0,0,0,0
1182,1765897476642,-32,164,-13,0,0,0,0,0
1183,1765897476974,-20,179,4,0,0,0,0,0
1184,1765897478491,-12,73,3,0,0,0,0,0
1185,1765897479276,-10,34,6,0,0,0,0,0
1186,1765897479993,-10,14,5,0,0,0,0,0
1187,1765897482175,-8,16,2,0,0,0,0,0
1188,1765897482525,-9,16,2,0,0,0,0,0
1189,1765897482775,-8,16,2,0,0,0,0,0
1190,1765897485157,-11,17,3,0,0,0,0,0
1191,1765897487258,-11,16,2,0,0,0,0,0
1192,1765897487575,-9,17,3,0,0,0,0,0
1193,1765897488090,-9,17,3,0,0,0,0,0
1194,1765897488292,-10,17,2,0,0,0,0,0
1195,1765897488675,-11,18,2,0,0,0,0,0
1196,1765897489240,-10,15,3,0,0,0,0,0
1197,1765897490190,-10,18,1,0,0,0,0,0
1198,1765897490624,-10,16,2,0,0,0,0,0
1199,1765897491226,-10,17,2,0,0,0,0,0
1200,1765897491458,-10,17,2,0,0,0,0,0
1201,1765897492525,-10,16,1,0,0,0,0,0
1202,1765897494423,-11,17,2,0,0,0,0,0
1203,1765897495324,-9,18,2,0,0,0,0,0
1204,1765897495493,-11,17,1,0,0,0,0,0
1205,1765897495758,-11,18,2,0,0,0,0,0
1206,1765897497492,-10,17,2,0,0,0,0,0
1207,1765897500181,-9,17,1,0,0,0,0,0
1208,1765897503024,-9,18,1,0,0,0,0,0
1209,1765897503559,-9,17,2,0,0,0,0,0
1210,1765897503807,-8,16,1,0,0,0,0,0
1211,1765897504057,-9,17,2,0,0,0,0,0
1212,1765897504323,-11,16,2,0,0,0,0,0
1213,1765897505492,-10,17,3,0,0,0,0,0
1214,1765897506974,-9,17,2,0,0,0,0,0
1215,1765897507741,-11,17,2,0,0,0,0,0
1216,1765897508973,-10,17,2,0,0,0,0,0
1217,1765897509157,-9,17,1,0,0,0,0,0
1218,1765897509807,-9,17,2,0,0,0,0,0
1219,1765897509990,-9,18,1,0,0,0,0,0
1220,1765897510273,-8,16,1,0,0,0,0,0
1221,1765897511151,-10,16,2,0,0,0,0,0
1222,1765897514525,-10,16,2,0,0,0,0,0
1223,1765897514707,-8,17,3,0,0,0,0,0
1224,1765897514992,-10,19,2,0,0,0,0,0
1225,1765897515524,-8,17,2,0,0,0,0,0
1226,1765897516292,-10,16,1,0,0,0,0,0
1227,1765897518873,-10,17,3,0,0,0,0,0
1228,1765897519209,-8,16,2,0,0,0,0,0
1229,1765897520526,-8,15,3,0,0,0,0,0
1230,1765897522573,-9,16,2,0,0,0,0,0
1231,1765897522808,-10,17,1,0,0,0,0,0
1232,1765897524474,-10,17,2,0,0,0,0,0
1233,1765897524474,-8,15,1,0,0,0,0,0
1234,1765897527793,-11,16,2,0,0,0,0,0
1235,1765897527975,-8,17,2,0,0,0,0,0
1236,1765897528324,-8,15,1,0,0,0,0,0
1237,1765897528510,-9,15,2,0,0,0,0,0
1238,1765897532559,-8,18,1,0,0,0,0,0
1239,1765897533148,-11,16,0,0,0,0,0,0
1240,1765897533148,-9,17,2,0,0,0,0,0
1241,1765897533241,-9,16,1,0,0,0,0,0
1242,1765897533591,-8,16,3,0,0,0,0,0
1243,1765897533759,-11,17,1,0,0,0,0,0
1244,1765897534011,-9,15,2,0,0,0,0,0
1245,1765897534706,-11,16,1,0,0,0,0,0
1246,1765897535222,-9,18,2,0,0,0,0,0
1247,1765897535522,-8,17,2,0,0,0,0,0
1248,1765897535739,-8,15,1,0,0,0,0,0
1249,1765897536023,-10,16,1,0,0,0,0,0
1250,1765897537423,-9,18,2,0,0,0,0,0
1251,1765897540507,-10,17,2,0,0,0,0,0
1252,1765897540756,-8,16,2,0,0,0,0,0
1253,1765897544104,-10,17,2,0,0,0,0,0
1254,1765897544473,-10,17,2,0,0,0,0,0
1255,1765897547073,-10,17,3,0,0,0,0,0
1256,1765897549005,-7,16,1,0,0,0,0,0
1257,1765897549540,-9,15,3,0,0,0,0,0
1258,1765897549823,-8,16,1,0,0,0,0,0
1259,1765897552689,-10,15,3,0,0,0,0,0
1260,1765897553240,-8,16,2,0,0,0,0,0
1261,1765897553523,-8,17,2,0,0,0,0,0
1262,1765897556739,-8,16,1,0,0,0,0,0
1263,1765897558406,-11,15,2,0,0,0,0,0
1264,1765897558556,-15,-54,22,0,0,0,0,0
1265,1765897558756,28,81,-13,0,0,0,0,0
1266,1765897559773,-6,147,-12,0,0,0,0,0
1267,1765897559840,-36,178,11,0,0,0,0,0
1268,1765897560071,-22,184,-13,0,0,0,0,0
1269,1765897560356,-31,172,-18,0,0,0,0,0
1270,1765897563156,18,-13,48,0,0,0,0,0
1271,1765897563539,-19,-367,23,0,0,0,0,0
1272,1765897564187,67,-12571,230,0,0,0,0,0
1273,1765897565323,-43,277,17,0,0,0,0,0
1274,1765897566070,-41,287,-45,0,0,0,0,0
1275,1765897569140,-49,576,-3,0,0,0,0,0
1276,1765897569439,-85,673,-86,0,0,0,0,0
1277,1765897569556,18,704,-8,0,0,0,0,0
1278,1765897569839,-59,749,10,0,0,0,0,0
1279,1765897570157,-126,179,31,0,0,0,0,0
1280,1765897571890,-22,672,-55,0,0,0,0,0
1281,1765897574606,-129,799,-28,0,0,0,0,0
1282,1765897574955,-19,358,-52,0,0,0,0,0
1283,1765897575657,68,-769,74,0,0,0,0,0
1284,1765897577053,7,-496,23,0,0,0,0,0
1285,1765897577556,47,-452,62,0,0,0,0,0
1286,1765897578374,70,-262,-23,0,0,0,0,0
1287,1765897578757,5,-520,-70,0,0,0,0,0
1288,1765897579874,-79,-274,-36,0,0,0,0,0
1289,1765897581106,-25,-118,-10,0,0,0,0,0
1290,1765897581841,-26,-137,7,0,0,0,0,0
1291,1765897582123,-47,-105,4,0,0,0,0,0
1292,1765897582606,17,-104,-23,0,0,0,0,0
1293,1765897582839,17,-33,-41,0,0,0,0,0
1294,1765897583006,-68,-38,-53,0,0,0,0,0
1295,1765897583190,0,-89,-153,0,0,0,0,0
1296,1765897585708,34,-157,-17,0,0,0,0,0
1297,1765897585808,61,-96,2103,0,0,0,0,0
1298,1765897586290,84,-201,-42,0,0,0,0,0
1299,1765897589974,61,-135,72,0,0,0,0,0
1300,1765897590623,34,-188,29,0,0,0,0,0
1301,1765897591004,72,-112,23,0,0,0,0,0
1302,1765897591203,-29,-9,17,0,0,0,0,0
1303,1765897592472,-22,17,19,0,0,0,0,0
1304,1765897594589,-31,8,12,0,0,0,0,0
1305,1765897595089,71,44,56,0,0,0,0,0
1306,1765897595588,-19,33,13,0,0,0,0,0
1307,1765897595855,-112,70,48,0,0,0,0,0
1308,1765897596188,-87,11,6,0,0,0,0,0
1309,1765897596471,46,40,-17,0,0,0,0,0
1310,1765897597804,16,-63,-13,0,0,0,0,0
1311,1765897599088,-23,-78,28,0,0,0,0,0
1312,1765897600290,111,677,-21,0,0,0,0,0
1313,1765897600574,23,372,-19,0,0,0,0,0
1314,1765897602857,43,9,34,0,0,0,0,0
1315,1765897604274,67,-386,2,0,0,0,0,0
1316,1765897604474,-20,-351,-17,0,0,0,0,0
1317,1765897604772,95,-387,119,0,0,0,0,0
1318,1765897605039,20,-428,24,0,0,0,0,0
1319,1765897606523,41,-475,24,0,0,0,0,0
1320,1765897607857,9,-327,-5,0,0,0,0,0
1321,1765897609389,-39,-424,-8,0,0,0,0,0
1322,1765897610023,35,-566,25,0,0,0,0,0
1323,1765897610023,-8,-729,-46,0,0,0,0,0
1324,1765897610188,79,-848,40,0,0,0,0,0
1325,1765897611672,-79,412,-25,0,0,0,0,0
1326,1765897612923,42,-372,67,0,0,0,0,0
1327,1765897613507,15,-19,-44,0,0,0,0,0
1328,1765897614139,-23,-62,12,0,0,0,0,0
1329,1765897614188,11,-90,-39,0,0,0,0,0
1330,1765897615123,-37,96,25,0,0,0,0,0
1331,1765897616473,-83,644,-124,0,0,0,0,0
1332,1765897616740,4,655,55,0,0,0,0,0
1333,1765897617022,-83,533,-55,0,0,0,0,0
1334,1765897617288,-5,459,-35,0,0,0,0,0
1335,1765897617674,-54,618,88,0,0,0,0,0
1336,1765897619491,-70,707,-84,0,0,0,0,0
1337,1765897622855,-1,-610,-16,0,0,0,0,0
1338,1765897623055,20,-771,50,0,0,0,0,0
1339,1765897623389,30,-406,29,0,0,0,0,0
1340,1765897623774,16,-561,85,0,0,0,0,0
1341,1765897624905,-44,-394,121,0,0,0,0,0
1342,1765897624939,-11,-395,-11,0,0,0,0,0
1343,1765897625873,91,-394,27,0,0,0,0,0
1344,1765897626542,19,-345,-40,0,0,0,0,0
1345,1765897626856,-19,-317,-28,0,0,0,0,0
1346,1765897627606,-113,-345,54,0,0,0,0,0
1347,1765897629089,20,-219,-7,0,0,0,0,0
1348,1765897631339,-44,-81,-60,0,0,0,0,0
1349,1765897632054,-42,-82,11,0,0,0,0,0
1350,1765897632055,6,-28,18,0,0,0,0,0
1351,1765897635772,-2,-108,-22,0,0,0,0,0
1352,1765897635939,19,-63,15,0,0,0,0,0
1353,1765897636306,5,-35,-46,0,0,0,0,0
1354,1765897636588,-45,-67,42,0,0,0,0,0
1355,1765897637005,-59,48,16,0,0,0,0,0
1356,1765897638705,-101,-304,214,0,0,0,0,0
1357,1765897639055,126,-335,28,0,0,0,0,0
1358,1765897639903,107,-510,62,0,0,0,0,0
1359,1765897640156,-59,-404,-34,0,0,0,0,0
1360,1765897640521,21,-297,-15,0,0,0,0,0
1361,1765897641004,52,-363,55,0,0,0,0,0
1362,1765897642505,2,23,26,0,0,0,0,0
1363,1765897643805,-48,-28,6,0,0,0,0,0
1364,1765897647555,69,-52,65,0,0,0,0,0
1365,1765897647939,-8,-22,-25,0,0,0,0,0
1366,1765897649222,1,-34,-1,0,0,0,0,0
1367,1765897649607,6,-80,36,0,0,0,0,0
1368,1765897650822,-15,481,6,0,0,0,0,0
1369,1765897651872,19,-507,58,0,0,0,0,0
1370,1765897652338,0,-466,1,0,0,0,0,0
1371,1765897652656,48,-403,140,0,0,0,0,0
1372,1765897654605,-7,-414,-32,0,0,0,0,0
1373,1765897655189,83,-426,15,0,0,0,0,0
1374,1765897655822,-99,-330,7,0,0,0,0,0
1375,1765897656022,-20,-300,19,0,0,0,0,0
1376,1765897656205,41,-286,51,0,0,0,0,0
1377,1765897656272,62,-401,18,0,0,0,0,0
1378,1765897656471,36,-399,-13,0,0,0,0,0
1379,1765897656905,10,-414,-46,0,0,0,0,0
1380,1765897657623,-49,-730,188,0,0,0,0,0
1381,1765897657775,-89,-410,38,0,0,0,0,0
1382,1765897658123,-235,-570,3,0,0,0,0,0
1383,1765897658189,-56,110,9,0,0,0,0,0
1384,1765897658372,167,206,35,0,0,0,0,0
1385,1765897659006,-35,-403,96,0,0,0,0,0
1386,1765897659256,-11,-240,7,0,0,0,0,0
1387,1765897659921,-30,87,-26,0,0,0,0,0
1388,1765897662322,-49,-82,84,0,0,0,0,0
1389,1765897663306,108,728,-83,0,0,0,0,0
1390,1765897663588,-100,512,-171,0,0,0,0,0
1391,1765897664189,15,148,58,0,0,0,0,0
1392,1765897664390,-23,133,-8,0,0,0,0,0
1393,1765897665557,29,460,5,0,0,0,0,0
1394,1765897665956,-110,576,-70,0,0,0,0,0
1395,1765897666955,45,155,164,0,0,0,0,0
1396,1765897667424,-22,586,37,0,0,0,0,0
1397,1765897667872,-18,576,-11,0,0,0,0,0
1398,1765897671072,132,604,22,0,0,0,0,0
1399,1765897671589,-34,287,-63,0,0,0,0,0
1400,1765897672888,6,-605,28,0,0,0,0,0
1401,1765897674556,-72,-550,25,0,0,0,0,0
1402,1765897675071,131,-425,52,0,0,0,0,0
1403,1765897675337,40,-472,16,0,0,0,0,0
1404,1765897677787,-131,-74,-43,0,0,0,0,0
1405,1765897678104,8,-45,81,0,0,0,0,0
1406,1765897678556,60,-35,-47,0,0,0,0,0
1407,1765897681975,16,-4,-37,0,0,0,0,0
1408,1765897685605,122,-582,197,0,0,0,0,0
1409,1765897686423,-67,-372,47,0,0,0,0,0
1410,1765897687105,64,-281,14,0,0,0,0,0
1411,1765897688007,12,-68,-61,0,0,0,0,0
1412,1765897688289,-46,-85,30,0,0,0,0,0
1413,1765897689621,-61,-35,32,0,0,0,0,0
1414,1765897690556,-147,18,2,0,0,0,0,0
1415,1765897692038,3,-12,12,0,0,0,0,0
1416,1765897696172,17,-535,66,0,0,0,0,0
1417,1765897696205,-13,-502,67,0,0,0,0,0
1418,1765897696738,0,32,12,0,0,0,0,0
1419,1765897696988,3,59,4,0,0,0,0,0
1420,1765897698456,12,-340,62,0,0,0,0,0
1421,1765897700238,46,-213,53,0,0,0,0,0
1422,1765897700388,17,-160,-19,0,0,0,0,0
1423,1765897700788,50,-192,51,0,0,0,0,0
1424,1765897701038,249,-321,-20,0,0,0,0,0
1425,1765897705390,-35,-313,25,0,0,0,0,0
1426,1765897705656,74,-254,56,0,0,0,0,0
1427,1765897706555,-22,-128,92,0,0,0,0,0
1428,1765897707706,54,558,-6,0,0,0,0,0
1429,1765897708438,-1,229,-115,0,0,0,0,0
1430,1765897709022,-53,74,14,0,0,0,0,0
1431,1765897709026,-66,-440,111,0,0,0,0,0
1432,1765897709026,-90,-24,71,0,0,0,0,0
1433,1765897710504,89,659,250,0,0,0,0,0
1434,1765897711639,-8,597,27,0,0,0,0,0
1435,1765897712837,-20,759,-25,0,0,0,0,0
1436,1765897713105,-40,744,-98,0,0,0,0,0
1437,1765897713224,-16,718,-26,0,0,0,0,0
1438,1765897713404,-28,671,-82,0,0,0,0,0
1439,1765897714205,7,-390,-6,0,0,0,0,0
1440,1765897716071,-49,178,-58,0,0,0,0,0
1441,1765897716138,10,-152,-7,0,0,0,0,0
1442,1765897716422,55,-434,-1,0,0,0,0,0
1443,1765897717605,26,-755,58,0,0,0,0,0
1444,1765897719254,79,-566,85,0,0,0,0,0
1445,1765897720050,-133,-500,-151,0,0,0,0,0
1446,1765897720087,-27,-451,-42,0,0,0,0,0
1447,1765897721005,62,-282,3,0,0,0,0,0
1448,1765897721372,11,-232,31,0,0,0,0,0
1449,1765897721705,-7,-141,-34,0,0,0,0,0
1450,1765897721922,21,-146,1,0,0,0,0,0
1451,1765897722205,-26,-46,-44,0,0,0,0,0
1452,1765897722438,-41,-20,-17,0,0,0,0,0
1453,1765897723604,-14,-81,-109,0,0,0,0,0
1454,1765897724106,34,-109,63,0,0,0,0,0
1455,1765897725372,-43,-90,10,0,0,0,0,0
1456,1765897727854,-14,-349,-4,0,0,0,0,0
1457,1765897728040,119,-439,-252,0,0,0,0,0
1458,1765897728387,-31,-538,147,0,0,0,0,0
1459,1765897728538,-24,-535,43,0,0,0,0,0
1460,1765897728887,46,-444,-41,0,0,0,0,0
1461,1765897729837,-7,-289,21,0,0,0,0,0
1462,1765897731737,106,-29,12,0,0,0,0,0
1463,1765897732155,6,16,-8,0,0,0,0,0
1464,1765897732587,-19,-32,9,0,0,0,0,0
1465,1765897735756,74,34,-22,0,0,0,0,0
1466,1765897736622,-6,-33,38,0,0,0,0,0
1467,1765897736737,47,0,0,0,0,0,0,0
1468,1765897736971,-93,4,-6,0,0,0,0,0
1469,1765897737237,-135,10,-82,0,0,0,0,0
1470,1765897737572,76,-5,0,0,0,0,0,0
1471,1765897737738,-22,-102,7,0,0,0,0,0
1472,1765897738020,-58,-121,85,0,0,0,0,0
1473,1765897738355,-55,-153,4,0,0,0,0,0
1474,1765897738437,31,-138,-11,0,0,0,0,0
1475,1765897738855,1,-110,23,0,0,0,0,0
1476,1765897740854,-23,-464,118,0,0,0,0,0
1477,1765897742035,84,-424,87,0,0,0,0,0
1478,1765897742041,61,-290,143,0,0,0,0,0
1479,1765897742054,29,-156,110,0,0,0,0,0
1480,1765897742070,42,63,34,0,0,0,0,0
1481,1765897742505,-27,166,-36,0,0,0,0,0
1482,1765897742787,30,-242,-44,0,0,0,0,0
1483,1765897743204,-9,-349,-65,0,0,0,0,0
1484,1765897743588,28,-469,81,0,0,0,0,0
1485,1765897743987,-7,-471,149,0,0,0,0,0
1486,1765897745671,-9,-305,118,0,0,0,0,0
1487,1765897746522,-22,-459,-37,0,0,0,0,0
1488,1765897746687,76,-399,164,0,0,0,0,0
1489,1765897747270,251,-658,63,0,0,0,0,0
1490,1765897747555,129,-640,-14,0,0,0,0,0
1491,1765897748654,-13,-449,58,0,0,0,0,0
1492,1765897750255,9,-4,-45,0,0,0,0,0
1493,1765897750854,-40,-308,40,0,0,0,0,0
1494,1765897751721,-33,242,47,0,0,0,0,0
1495,1765897752337,-46,513,-38,0,0,0,0,0
1496,1765897754022,3,-61,-3,0,0,0,0,0
1497,1765897754154,-18,-45,-3,0,0,0,0,0
1498,1765897755588,-102,1061,-19,0,0,0,0,0
1499,1765897756121,12,-89,30,0,0,0,0,0
1500,1765897757272,-12,389,-39,0,0,0,0,0
1501,1765897758838,-22,274,-251,0,0,0,0,0
1502,1765897759488,3,-252,-17,0,0,0,0,0
1503,1765897762754,-88,-466,-16,0,0,0,0,0
1504,1765897763974,51,-499,63,0,0,0,0,0
1505,1765897763978,-10,-495,-34,0,0,0,0,0
1506,1765897763987,-63,-502,86,0,0,0,0,0
1507,1765897764221,-41,-554,60,0,0,0,0,0
1508,1765897764504,110,-480,38,0,0,0,0,0
1509,1765897765122,-25,-383,182,0,0,0,0,0
1510,1765897766455,-10,-253,-24,0,0,0,0,0
1511,1765897767621,35,-114,-49,0,0,0,0,0
1512,1765897770920,140,-41,-1,0,0,0,0,0
1513,1765897773520,-69,-200,-95,0,0,0,0,0
1514,1765897774370,4224,-533,113,0,0,0,0,0
1515,1765897775237,26,-270,-14,0,0,0,0,0
1516,1765897775569,-34,-261,-38,0,0,0,0,0
1517,1765897776313,8,-273,9,0,0,0,0,0
1518,1765897776325,-11,-187,-52,0,0,0,0,0
1519,1765897776325,-107,-179,-56,0,0,0,0,0
1520,1765897777121,58,-55,71,0,0,0,0,0
1521,1765897777787,28,-62,-5,0,0,0,0,0
1522,1765897778720,70,-7,0,0,0,0,0,0
1523,1765897779720,-20,-14,-15,0,0,0,0,0
1524,1765897780087,35,31,2,0,0,0,0,0
1525,1765897780436,-32,56,-63,0,0,0,0,0
1526,1765897781038,33,32,-2,0,0,0,0,0
1527,1765897781889,64,13,7,0,0,0,0,0
1528,1765897782770,15,-13,-32,0,0,0,0,0
1529,1765897785004,-8,19,-37,0,0,0,0,0
1530,1765897785171,-86,430,-41,0,0,0,0,0
1531,1765897785370,-1,504,12,0,0,0,0,0
1532,1765897785686,24,428,-25,0,0,0,0,0
1533,1765897785904,-8,354,-19,0,0,0,0,0
1534,1765897786187,-52,267,-63,0,0,0,0,0
1535,1765897786519,35,-506,58,0,0,0,0,0
1536,1765897786587,21,-460,24,0,0,0,0,0
1537,1765897787903,11,139,35,0,0,0,0,0
1538,1765897790187,21,-261,19,0,0,0,0,0
1539,1765897790438,31,-286,-35,0,0,0,0,0
1540,1765897790888,1,-429,50,0,0,0,0,0
1541,1765897792636,218,-763,34,0,0,0,0,0
1542,1765897794372,-34,-75,12,0,0,0,0,0
1543,1765897794620,-26,258,20,0,0,0,0,0
1544,1765897794937,9,321,-72,0,0,0,0,0
1545,1765897797521,-253,467,-38,0,0,0,0,0
1546,1765897798106,22,290,-70,0,0,0,0,0
1547,1765897798883,34,-233,-59,0,0,0,0,0
1548,1765897798888,-1,-338,11,0,0,0,0,0
1549,1765897799171,-61,-72,66,0,0,0,0,0
1550,1765897800471,-31,718,-26,0,0,0,0,0
1551,1765897800804,19,655,-14,0,0,0,0,0
1552,1765897801388,-100,512,-154,0,0,0,0,0
1553,1765897804387,8,-193,-26,0,0,0,0,0
1554,1765897807020,66,-504,58,0,0,0,0,0
1555,1765897807220,26,-499,43,0,0,0,0,0
1556,1765897807755,17,-582,44,0,0,0,0,0
1557,1765897807971,23,-555,101,0,0,0,0,0
1558,1765897808387,-99,-2822,88,0,0,0,0,0
1559,1765897808869,11,-562,54,0,0,0,0,0
1560,1765897809954,89,-535,-57,0,0,0,0,0
1561,1765897811470,70,-347,-48,0,0,0,0,0
1562,1765897813553,31,-84,25,0,0,0,0,0
1563,1765897813903,-10,-99,18,0,0,0,0,0
1564,1765897816156,-47,-63,12,0,0,0,0,0
1565,1765897816452,-109,-237,-60,0,0,0,0,0
1566,1765897816606,27,-22,-37,0,0,0,0,0
1567,1765897818203,61,-365,-3,0,0,0,0,0
1568,1765897819539,4,-450,16,0,0,0,0,0
1569,1765897819737,11,-460,4,0,0,0,0,0
1570,1765897819820,48,-389,26,0,0,0,0,0
1571,1765897820087,-129,-391,25,0,0,0,0,0
1572,1765897820137,-25,-324,-34,0,0,0,0,0
1573,1765897820906,9,-302,-24,0,0,0,0,0
1574,1765897821005,-24,-250,55,0,0,0,0,0
1575,1765897821104,-30,-244,3,0,0,0,0,0
1576,1765897821323,-4,-242,13,0,0,0,0,0
1577,1765897821421,-35,-126,-36,0,0,0,0,0
1578,1765897821736,-107,-160,-51,0,0,0,0,0
1579,1765897821969,57,-129,-121,0,0,0,0,0
1580,1765897824604,24,23,7,0,0,0,0,0
1581,1765897824986,3,29,-16,0,0,0,0,0
1582,1765897825655,-86,19,-28,0,0,0,0,0
1583,1765897825703,58,-44,-25,0,0,0,0,0
1584,1765897826038,-18,-70,16,0,0,0,0,0
1585,1765897826369,-22,-47,16,0,0,0,0,0
1586,1765897826556,-80,-25,-24,0,0,0,0,0
1587,1765897827719,49,-176,-22,0,0,0,0,0
1588,1765897830370,60,-254,91,0,0,0,0,0
1589,1765897833203,76,-407,31,0,0,0,0,0
1590,1765897834287,-30,-213,11,0,0,0,0,0
1591,1765897836203,-38,-452,32,0,0,0,0,0
1592,1765897836704,-11,-428,42,0,0,0,0,0
1593,1765897837188,9,-431,15,0,0,0,0,0
1594,1765897839556,90,-469,-16,0,0,0,0,0
1595,1765897839720,53,-308,31,0,0,0,0,0
1596,1765897839905,21,-267,91,0,0,0,0,0
1597,1765897840587,-79,503,-49,0,0,0,0,0
1598,1765897840702,83,482,21,0,0,0,0,0
1599,1765897840985,0,646,-127,0,0,0,0,0
1600,1765897841053,-160,78,-30,0,0,0,0,0
1601,1765897841339,132,-74,-59,0,0,0,0,0
1602,1765897842934,-11,370,-43,0,0,0,0,0
1603,1765897843102,-272,685,-332,0,0,0,0,0
1604,1765897843354,-60,543,-237,0,0,0,0,0
1605,1765897844172,-87,547,-29,0,0,0,0,0
1606,1765897846068,-28,603,-99,0,0,0,0,0
1607,1765897847320,10,-333,-15,0,0,0,0,0
1608,1765897847570,-4,-343,26,0,0,0,0,0
1609,1765897848719,-20,259,-60,0,0,0,0,0
1610,1765897850253,65,-649,63,0,0,0,0,0
1611,1765897850702,-71,-579,55,0,0,0,0,0
1612,1765897850937,-76,-529,208,0,0,0,0,0
1613,1765897851387,-92,-510,14,0,0,0,0,0
1614,1765897851619,-5,-611,10,0,0,0,0,0
1615,1765897851670,68,-572,-11,0,0,0,0,0
1616,1765897851986,17,-540,-30,0,0,0,0,0
1617,1765897852487,69,-447,-7,0,0,0,0,0
1618,1765897852937,-2,-444,107,0,0,0,0,0
1619,1765897853951,-78,-323,-24,0,0,0,0,0
1620,1765897857520,-32697,-130,1233,0,0,0,0,0
1621,1765897857921,62,-145,117,0,0,0,0,0
1622,1765897858086,-38,-71,143,0,0,0,0,0
1623,1765897858453,-9,-46,-31,0,0,0,0,0
1624,1765897861052,35,-261,-60,0,0,0,0,0
1625,1765897861303,-77,-292,29,0,0,0,0,0
1626,1765897861370,-20,-357,-3,0,0,0,0,0
1627,1765897861587,85,-350,4,0,0,0,0,0
1628,1765897862170,-9,-529,65,0,0,0,0,0
1629,1765897862819,122,-630,38,0,0,0,0,0
1630,1765897862903,43,-769,116,0,0,0,0,0
1631,1765897863120,22,-895,142,0,0,0,0,0
1632,1765897863336,37,-748,46,0,0,0,0,0
1633,1765897863486,-44,-1040,37,0,0,0,0,0
1634,1765897863853,66,-1540,8,0,0,0,0,0
1635,1765897864002,-17,-1517,72,0,0,0,0,0
1636,1765897864286,69,-1452,85,0,0,0,0,0
1637,1765897864986,91,-1220,129,0,0,0,0,0
1638,1765897867103,-7,11,1,0,0,0,0,0
1639,1765897868203,-6,53,-6,0,0,0,0,0
1640,1765897869336,20,108,3,0,0,0,0,0
1641,1765897870103,49,-460,37,0,0,0,0,0
1642,1765897870570,42,-565,27,0,0,0,0,0
1643,1765897871055,-4,-632,2,0,0,0,0,0
1644,1765897871285,-17,-639,56,0,0,0,0,0
1645,1765897871437,7,-667,52,0,0,0,0,0
1646,1765897872019,46,-695,70,0,0,0,0,0
1647,1765897872552,135,-730,107,0,0,0,0,0
1648,1765897876535,-1,-130,-4,0,0,0,0,0
1649,1765897878904,-12,93,12,0,0,0,0,0
1650,1765897878953,-6,68,-5,0,0,0,0,0
1651,1765897879319,17,0,38,0,0,0,0,0
1652,1765897882370,-9,16,2,0,0,0,0,0
1653,1765897883218,-9,17,1,0,0,0,0,0
1654,1765897884004,-8,17,1,0,0,0,0,0
1655,1765897884635,-8,16,1,0,0,0,0,0
1656,1765897887172,-10,17,1,0,0,0,0,0
1657,1765897888002,-9,17,2,0,0,0,0,0
1658,1765897888287,-5,16,3,0,0,0,0,0
1659,1765897888553,-7,17,2,0,0,0,0,0
1660,1765897888936,-10,16,3,0,0,0,0,0
1661,1765897891087,-9,17,2,0,0,0,0,0
1662,1765897892303,-8,16,2,0,0,0,0,0
1663,1765897892653,-9,17,0,0,0,0,0,0
1664,1765897893302,-9,16,1,0,0,0,0,0
1665,1765897893451,-8,15,2,0,0,0,0,0
1666,1765897894020,-9,15,3,0,0,0,0,0
1667,1765897894236,-9,14,3,0,0,0,0,0
1668,1765897894420,-10,17,1,0,0,0,0,0
1669,1765897894685,-10,13,4,0,0,0,0,0
1670,1765897894854,-10,18,1,0,0,0,0,0
1671,1765897894969,-10,14,3,0,0,0,0,0
1672,1765897898124,-9,15,3,0,0,0,0,0
1673,1765897901787,-9,16,2,0,0,0,0,0
1674,1765897909937,-7,15,0,0,0,0,0,0
1675,1765897913702,-7,16,2,0,0,0,0,0
1676,1765897913869,-11,16,2,0,0,0,0,0
1677,1765897914119,-8,16,1,0,0,0,0,0
1678,1765897914237,-9,15,2,0,0,0,0,0
1679,1765897915154,-10,17,2,0,0,0,0,0
1680,1765897915335,-9,16,2,0,0,0,0,0
1681,1765897916020,-9,16,2,0,0,0,0,0
1682,1765897916402,-10,16,2,0,0,0,0,0
1683,1765897917235,-9,16,1,0,0,0,0,0
1684,1765897917336,-9,17,1,0,0,0,0,0
1685,1765897917751,-9,16,1,0,0,0,0,0
1686,1765897918035,-9,16,3,0,0,0,0,0
1687,1765897918135,-8,16,2,0,0,0,0,0
1688,1765897918202,-9,16,1,0,0,0,0,0
1689,1765897918486,-9,16,3,0,0,0,0,0
1690,1765897918571,-9,16,1,0,0,0,0,0
1691,1765897918852,-10,16,2,0,0,0,0,0
1692,1765897919052,-9,16,2,0,0,0,0,0
1693,1765897919318,-8,16,1,0,0,0,0,0
1694,1765897919368,-7,16,2,0,0,0,0,0
1695,1765897920157,-16394,16,2,0,0,0,0,0
1696,1765897920162,-8,16,2,0,0,0,0,0
1697,1765897920518,-9,17,2,0,0,0,0,0
1698,1765897920718,-8,16,1,0,0,0,0,0
1699,1765897921403,-10,16,2,0,0,0,0,0
1700,1765897921635,-9,16,1,0,0,0,0,0
1701,1765897922251,-10,17,1,0,0,0,0,0
1702,1765897922586,-8,17,1,0,0,0,0,0
1703,1765897922770,-9,15,3,0,0,0,0,0
1704,1765897923069,-9,15,1,0,0,0,0,0
1705,1765897923354,-10,16,2,0,0,0,0,0
1706,1765897923636,-8,16,1,0,0,0,0,0
1707,1765897924001,-9,18,1,0,0,0,0,0
1708,1765897924304,-9,15,1,0,0,0,0,0
1709,1765897924368,-9,15,1,0,0,0,0,0
1710,1765897925201,-7,16,1,0,0,0,0,0
1711,1765897925369,-9,15,1,0,0,0,0,0
1712,1765897926120,-9,15,2,0,0,0,0,0
1713,1765897927001,-10,15,1,0,0,0,0,0
1714,1765897927302,-9,16,2,0,0,0,0,0
1715,1765897927334,-9,16,1,0,0,0,0,0
1716,1765897927768,-8,16,1,0,0,0,0,0
1717,1765897927935,-9,16,3,0,0,0,0,0
1718,1765897928135,-9,16,3,0,0,0,0,0
1719,1765897928701,-8,15,1,0,0,0,0,0
1720,1765897928952,-9,14,1,0,0,0,0,0
1721,1765897931369,-9,15,3,0,0,0,0,0
1722,1765897933018,-8,16,2,0,0,0,0,0
1723,1765897933786,-8,16,2,0,0,0,0,0
1724,1765897935618,-8,16,2,0,0,0,0,0
1725,1765897937902,-8,14,1,0,0,0,0,0
1726,1765897940352,-10,16,3,0,0,0,0,0
1727,1765897940635,-9,16,2,0,0,0,0,0
1728,1765897940869,-8,14,0,0,0,0,0,0
1729,1765897941101,-8,16,2,0,0,0,0,0
1730,1765897941252,-8,15,2,0,0,0,0,0
1731,1765897942408,-9,14,3,0,0,0,0,0
1732,1765897942451,-10,15,2,0,0,0,0,0
1733,1765897942552,-8,15,3,0,0,0,0,0
1734,1765897942901,-10,16,-1,0,0,0,0,0
1735,1765897943652,-9,14,3,0,0,0,0,0
1736,1765897944071,-9,14,2,0,0,0,0,0
1737,1765897944785,-9,15,2,0,0,0,0,0
1738,1765897945202,-7,14,0,0,0,0,0,0
1739,1765897945767,-9,14,1,0,0,0,0,0
1740,1765897946053,-8,17,3,0,0,0,0,0
1741,1765897946951,-7,16,1,0,0,0,0,0
1742,1765897947353,-10,14,2,0,0,0,0,0
1743,1765897948868,-9,14,2,0,0,0,0,0
1744,1765897948968,-10,15,2,0,0,0,0,0
1745,1765897949336,-10,15,2,0,0,0,0,0
1746,1765897949735,-9,16,2,0,0,0,0,0
1747,1765897950019,-7,15,1,0,0,0,0,0
1748,1765897950133,-6,16,2,0,0,0,0,0
1749,1765897950769,-7,16,2,0,0,0,0,0
1750,1765897950971,-9,15,3,0,0,0,0,0
1751,1765897951218,-8,15,2,0,0,0,0,0
1752,1765897951568,-9,17,1,0,0,0,0,0
1753,1765897952585,-8,16,3,0,0,0,0,0
1754,1765897953381,-10,15,2,0,0,0,0,0
1755,1765897953388,-6,17,3,0,0,0,0,0
1756,1765897953568,-10,15,2,0,0,0,0,0
1757,1765897953784,-10,15,1,0,0,0,0,0
1758,1765897954235,-8,15,1,0,0,0,0,0
1759,1765897957667,-10,15,2,0,0,0,0,0
1760,1765897960401,-10,16,2,0,0,0,0,0
1761,1765897961668,-7,15,1,0,0,0,0,0
1762,1765897962436,-10,16,3,0,0,0,0,0
1763,1765897962720,-9,14,2,0,0,0,0,0
1764,1765897963668,-8,15,2,0,0,0,0,0
1765,1765897964685,-9,15,2,0,0,0,0,0
1766,1765897967301,-9,15,1,0,0,0,0,0
1767,1765897967735,-9,16,1,0,0,0,0,0
1768,1765897968235,-9,15,2,0,0,0,0,0
1769,1765897968519,-10,16,1,0,0,0,0,0
1770,1765897968634,-9,13,1,0,0,0,0,0
1771,1765897968684,-9,16,2,0,0,0,0,0
1772,1765897968884,-8,15,2,0,0,0,0,0
1773,1765897969470,-9,17,2,0,0,0,0,0
1774,1765897969885,-8,17,1,0,0,0,0,0
1775,1765897970368,-8,18,2,0,0,0,0,0
1776,1765897972468,-10,16,2,0,0,0,0,0
1777,1765897973185,-8,16,3,0,0,0,0,0
1778,1765897973486,-11,16,1,0,0,0,0,0
1779,1765897973701,-10,15,1,0,0,0,0,0
1780,1765897974001,-8,15,1,0,0,0,0,0
1781,1765897974051,-8,15,3,0,0,0,0,0
1782,1765897974467,-10,15,2,0,0,0,0,0
1783,1765897975631,-9,15,2,0,0,0,0,0
1784,1765897975637,-10,16,3,0,0,0,0,0
1785,1765897975643,-9,15,3,0,0,0,0,0
1786,1765897975737,-9,15,2,0,0,0,0,0
1787,1765897975885,-8,18,3,0,0,0,0,0
1788,1765897976053,-10,16,2,0,0,0,0,0
1789,1765897976720,-9,17,1,0,0,0,0,0
1790,1765897977052,-9,15,1,0,0,0,0,0
1791,1765897977536,-9,16,2,0,0,0,0,0
1792,1765897981452,-8,16,2,0,0,0,0,0
1793,1765897981884,-9,16,1,0,0,0,0,0
1794,1765897982119,-9,18,2,0,0,0,0,0
1795,1765897982386,-9,15,2,0,0,0,0,0
1796,1765897982436,-10,15,1,0,0,0,0,0
1797,1765897982751,-9,15,2,0,0,0,0,0
1798,1765897983268,-8,16,2,0,0,0,0,0
1799,1765897984017,-8,15,3,0,0,0,0,0
1800,1765897984669,-10,17,3,0,0,0,0,0
1801,1765897986719,-9,17,2,0,0,0,0,0
1802,1765897986719,-9,14,1,0,0,0,0,0
1803,1765897986726,-7,17,2,0,0,0,0,0
1804,1765897986726,-10,16,3,0,0,0,0,0
1805,1765897987002,-10,16,2,0,0,0,0,0
1806,1765897987235,-9,16,2,0,0,0,0,0
1807,1765897987951,-9,15,2,0,0,0,0,0
1808,1765897988234,-10,18,2,0,0,0,0,0
1809,1765897989769,-9,17,2,0,0,0,0,0
1810,1765897989852,-9,16,2,0,0,0,0,0
1811,1765897990284,-8,18,1,0,0,0,0,0
1812,1765897990652,-9,16,1,0,0,0,0,0
1813,1765897991085,-9,16,2,0,0,0,0,0
1814,1765897991235,-11,14,3,0,0,0,0,0
1815,1765897991402,-10,16,1,0,0,0,0,0
1816,1765897991903,-8,16,3,0,0,0,0,0
1817,1765897993185,-8,17,2,0,0,0,0,0
1818,1765897993617,-8,14,1,0,0,0,0,0
1819,1765897995834,-9,16,1,0,0,0,0,0
1820,1765897995951,-8,15,3,0,0,0,0,0
1821,1765897996268,-9,17,1,0,0,0,0,0
1822,1765897996652,-10,15,3,0,0,0,0,0
1823,1765897996801,-9,17,1,0,0,0,0,0
1824,1765897997723,-9,17,1,0,0,0,0,0
1825,1765897997723,-9,16,2,0,0,0,0,0
1826,1765897997967,-10,17,1,0,0,0,0,0
1827,1765897998201,-8,16,3,0,0,0,0,0
1828,1765898004302,-10,16,1,0,0,0,0,0
1829,1765898004617,-9,16,2,0,0,0,0,0
1830,1765898007967,-9,16,2,0,0,0,0,0
1831,1765898008915,-9,15,1,0,0,0,0,0
1832,1765898008916,-8,16,1,0,0,0,0,0
1833,1765898009168,-11,17,2,0,0,0,0,0
1834,1765898010067,-9,15,3,0,0,0,0,0
1835,1765898010135,-8,15,2,0,0,0,0,0
1836,1765898010635,-11,15,1,0,0,0,0,0
1837,1765898010902,-8,16,0,0,0,0,0,0
1838,1765898011217,-10,16,1,0,0,0,0,0
1839,1765898011517,-9,15,1,0,0,0,0,0
1840,1765898011684,-9,17,2,0,0,0,0,0
1841,1765898011934,-9,16,2,0,0,0,0,0
1842,1765898012299,-10,17,1,0,0,0,0,0
1843,1765898012384,-9,17,1,0,0,0,0,0
1844,1765898012450,-9,16,2,0,0,0,0,0
1845,1765898012736,-9,17,3,0,0,0,0,0
1846,1765898013235,-8,17,2,0,0,0,0,0
1847,1765898013567,-8,18,2,0,0,0,0,0
1848,1765898013935,-9,17,2,0,0,0,0,0
1849,1765898014036,-11,15,1,0,0,0,0,0
1850,1765898014587,-7,16,2,0,0,0,0,0
1851,1765898014784,-8,17,1,0,0,0,0,0
1852,1765898015069,-8,16,2,0,0,0,0,0
1853,1765898015550,-9,16,2,0,0,0,0,0
1854,1765898015818,-8,16,2,0,0,0,0,0
1855,1765898016168,-7,17,1,0,0,0,0,0
1856,1765898016203,-10,15,2,0,0,0,0,0
1857,1765898016618,-9,15,3,0,0,0,0,0
1858,1765898017334,-9,16,1,0,0,0,0,0
1859,1765898017919,-8,16,2,0,0,0,0,0
1860,1765898018201,-8,16,2,0,0,0,0,0
1861,1765898018352,-7,16,2,0,0,0,0,0
1862,1765898018602,-9,17,2,0,0,0,0,0
1863,1765898018785,-9,17,3,0,0,0,0,0
1864,1765898019051,-9,15,3,0,0,0,0,0
1865,1765898022816,-10,15,2,0,0,0,0,0
1866,1765898024901,-10,17,2,0,0,0,0,0
1867,1765898025284,-9,18,1,0,0,0,0,0
1868,1765898025350,-12,16,2,0,0,0,0,0
1869,1765898026800,-8,15,3,0,0,0,0,0
1870,1765898027599,-7,16,2,0,0,0,0,0
1871,1765898027985,32765,13,2,0,0,0,0,0
1872,1765898028384,-7,17,3,0,0,0,0,0
1873,1765898029101,-8,16,1,0,0,0,0,0
1874,1765898031752,-7,16,3,0,0,0,0,0
1875,1765898033666,-8,16,2,0,0,0,0,0
1876,1765898034001,-7,17,2,0,0,0,0,0
1877,1765898034683,-9,15,1,0,0,0,0,0
1878,1765898035501,-8,16,0,0,0,0,0,0
1879,1765898039233,-9,16,1,0,0,0,0,0
1880,1765898040185,-9,15,3,0,0,0,0,0
1881,1765898040967,-9,15,1,0,0,0,0,0
1882,1765898042250,-10,18,1,0,0,0,0,0
1883,1765898043867,-9,17,2,0,0,0,0,0
1884,1765898045617,-9,18,2,0,0,0,0,0
1885,1765898046517,-9,17,2,0,0,0,0,0
1886,1765898049034,-9,17,1,0,0,0,0,0
1887,1765898049267,-9,15,2,0,0,0,0,0
1888,1765898050784,-9,16,3,0,0,0,0,0
1889,1765898052150,-9,17,2,0,0,0,0,0
1890,1765898053533,-9,16,2,0,0,0,0,0
1891,1765898053733,-9,17,3,0,0,0,0,0
1892,1765898054200,-9,16,2,0,0,0,0,0
1893,1765898055733,-10,16,0,0,0,0,0,0
1894,1765898056135,-6,17,2,0,0,0,0,0
1895,1765898056300,-11,14,1,0,0,0,0,0
1896,1765898056634,-9,15,1,0,0,0,0,0
1897,1765898060967,-8,16,1,0,0,0,0,0
1898,1765898061768,-7,17,1,0,0,0,0,0
1899,1765898062350,-9,18,2,0,0,0,0,0
1900,1765898062784,-9,17,2,0,0,0,0,0
1901,1765898063200,-8,14,0,0,0,0,0,0
1902,1765898064784,-8,15,3,0,0,0,0,0
1903,1765898065750,-11,18,0,0,0,0,0,0
1904,1765898065934,-9,14,4,0,0,0,0,0
1905,1765898066034,-9,19,2,0,0,0,0,0
1906,1765898066717,-11,18,1,0,0,0,0,0
1907,1765898068333,-8,18,3,0,0,0,0,0
1908,1765898068984,-10,12,0,0,0,0,0,0
1909,1765898071449,-10,16,1,0,0,0,0,0
1910,1765898072535,-7,14,3,0,0,0,0,0
1911,1765898074234,-9,15,1,0,0,0,0,0
1912,1765898074967,-7,15,1,0,0,0,0,0
1913,1765898074971,-7,15,3,0,0,0,0,0
1914,1765898080150,-7,16,1,0,0,0,0,0
1915,1765898080950,-9,16,2,0,0,0,0,0
1916,1765898081450,-5,14,2,0,0,0,0,0
1917,1765898081885,-11,15,3,0,0,0,0,0
1918,1765898083168,-6,16,2,0,0,0,0,0
1919,1765898084083,-10,16,1,0,0,0,0,0
1920,1765898084182,-9,16,2,0,0,0,0,0
1921,1765898084633,-10,17,1,0,0,0,0,0
1922,1765898087950,-8,17,2,0,0,0,0,0
1923,1765898088401,-7,17,2,0,0,0,0,0
1924,1765898089866,-9,15,2,0,0,0,0,0
1925,1765898093200,-7,18,3,0,0,0,0,0
1926,1765898095334,-9,18,3,0,0,0,0,0
1927,1765898096906,-9,16,2,0,0,0,0,0
1928,1765898099482,-7,16,3,0,0,0,0,0
1929,1765898102717,-9,15,1,0,0,0,0,0
1930,1765898103599,-8,15,3,0,0,0,0,0
1931,1765898112716,-10,16,2,0,0,0,0,0
1932,1765898113084,-6,16,2,0,0,0,0,0
1933,1765898114648,-6,17,3,0,0,0,0,0
1934,1765898115466,-9,16,2,0,0,0,0,0
1935,1765898118115,-8,16,2,0,0,0,0,0
1936,1765898121485,-9,15,2,0,0,0,0,0
1937,1765898121818,-9,15,3,0,0,0,0,0
1938,1765898124067,-10,15,2,0,0,0,0,0
1939,1765898124783,-8,15,2,0,0,0,0,0
1940,1765898125433,-9,16,2,0,0,0,0,0
1941,1765898128000,-10,15,1,0,0,0,0,0
1942,1765898129318,-7,16,3,0,0,0,0,0
1943,1765898131200,-6,15,1,0,0,0,0,0
1944,1765898131851,-13,14,3,0,0,0,0,0
1945,1765898138448,27,-4,-4,0,0,0,0,0
1946,1765898141733,-119,-30,-27,0,0,0,0,0
1947,1765898142215,-15,549,-37,0,0,0,0,0
1948,1765898142365,-64,560,-81,0,0,0,0,0
1949,1765898142634,-31,453,-70,0,0,0,0,0
1950,1765898145283,-75,49,12,0,0,0,0,0
1951,1765898146083,-31,-393,-29,0,0,0,0,0
1952,1765898146166,28,-318,30,0,0,0,0,0
1953,1765898146448,99,-392,57,0,0,0,0,0
1954,1765898146501,-64,-459,21,0,0,0,0,0
1955,1765898146965,57,-361,22,0,0,0,0,0
1956,1765898147332,61,-300,27,0,0,0,0,0
1957,1765898147532,-32,-300,16,0,0,0,0,0
1958,1765898147717,-54,-284,16,0,0,0,0,0
1959,1765898147999,11,-281,17,0,0,0,0,0
1960,1765898149683,26,-538,69,0,0,0,0,0
1961,1765898152149,-25,308,32,0,0,0,0,0
1962,1765898152783,-19,-220,-24,0,0,0,0,0
1963,1765898153566,72,-321,65,0,0,0,0,0
1964,1765898153649,-70,-254,31,0,0,0,0,0
1965,1765898154399,-74,580,-33,0,0,0,0,0
1966,1765898154699,-25,541,-47,0,0,0,0,0
1967,1765898154982,-12,484,-19,0,0,0,0,0
1968,1765898155466,29,-202,-17,0,0,0,0,0
1969,1765898155732,-198,-213,-17,0,0,0,0,0
1970,1765898156099,-20,-47,28,0,0,0,0,0
1971,1765898159202,-10,573,-62,0,0,0,0,0
1972,1765898159398,-50,569,-9,0,0,0,0,0
1973,1765898159681,-102,582,-89,0,0,0,0,0
1974,1765898159731,-40,549,-79,0,0,0,0,0
1975,1765898160516,16,600,0,0,0,0,0,0
1976,1765898161732,45,-233,25,0,0,0,0,0
1977,1765898162998,-54,917,-169,0,0,0,0,0
1978,1765898163014,0,471,-64,0,0,0,0,0
1979,1765898163249,-35,-651,-21,0,0,0,0,0
1980,1765898163983,29,-580,53,0,0,0,0,0
1981,1765898164984,54,-564,109,0,0,0,0,0
1982,1765898165249,-71,-502,1,0,0,0,0,0
1983,1765898166632,-67,-567,-138,0,0,0,0,0
1984,1765898166667,126,-481,19,0,0,0,0,0
1985,1765898166917,5,-516,-2,0,0,0,0,0
1986,1765898167415,-56,-314,-99,0,0,0,0,0
1987,1765898167667,-18,-346,42,0,0,0,0,0
1988,1765898167831,-37,-386,-6,0,0,0,0,0
1989,1765898168182,-71,-287,14,0,0,0,0,0
1990,1765898168549,51,-242,57,0,0,0,0,0
1991,1765898168849,-10,-170,-48,0,0,0,0,0
1992,1765898168999,-16,-93,-17,0,0,0,0,0
1993,1765898169284,65,-56,33,0,0,0,0,0
1994,1765898169499,-44,-92,1,0,0,0,0,0
1995,1765898169799,5,-106,-238,0,0,0,0,0
1996,1765898170048,42,-46,-22,0,0,0,0,0
1997,1765898170214,-59,-30,43,0,0,0,0,0
1998,1765898170399,-91,-115,-74,0,0,0,0,0
1999,1765898170899,12,-168,54,0,0,0,0,0
2000,1765898174030,74,35,-3,0,0,0,0,0
2001,1765898174632,-18,-494,6,0,0,0,0,0
2002,1765898175499,24,-478,16393,0,0,0,0,0
2003,1765898176065,-46,-586,-36,0,0,0,0,0
2004,1765898176616,2,-466,-5,0,0,0,0,0
2005,1765898178831,-43,-75,-9,0,0,0,0,0
2006,1765898178982,-91,-130,-12,0,0,0,0,0
2007,1765898179700,-20,-93,-5,0,0,0,0,0
2008,1765898181399,-74,17,10,0,0,0,0,0
