index,date,ACCEL_X,ACCEL_Y,ACCEL_Z,1,2,3,4,5
0,1765902321585,-131,8307,-803,0,0,0,0,0
1,1765902323202,282,8363,-1114,0,0,0,0,0
2,1765902325585,868,8351,653,0,0,0,0,0
3,1765902326418,1422,8272,146,0,0,0,0,0
4,1765902326652,802,7897,650,0,0,0,0,0
5,1765902328518,-861,7984,112,0,0,0,0,0
6,1765902328669,-1106,9564,-500,0,0,0,0,0
7,1765902329219,-1882,9969,-476,0,0,0,0,0
8,1765902330418,-2192,8998,-94,0,0,0,0,0
9,1765902330736,-2750,7785,-596,0,0,0,0,0
10,1765902330867,-2779,8738,-276,0,0,0,0,0
11,1765902331168,-1820,9128,-52,0,0,0,0,0
12,1765902331350,-1962,8404,477,0,0,0,0,0
13,1765902331553,-1315,7941,384,0,0,0,0,0
14,1765902331985,-1186,8031,498,0,0,0,0,0
15,1765902332252,-683,8013,777,0,0,0,0,0
16,1765902332322,-550,8285,890,0,0,0,0,0
17,1765902332585,70,7733,101,0,0,0,0,0
18,1765902332835,-119,7361,153,0,0,0,0,0
19,1765902333201,-814,8121,-188,0,0,0,0,0
20,1765902333268,-307,7009,444,0,0,0,0,0
21,1765902334152,-802,8226,-223,0,0,0,0,0
22,1765902334419,-799,8026,-540,0,0,0,0,0
23,1765902335102,-940,8643,274,0,0,0,0,0
24,1765902336769,-1198,7552,-30,0,0,0,0,0
25,1765902337801,-1841,7647,-899,0,0,0,0,0
26,1765902337851,-2264,6691,-830,0,0,0,0,0
27,1765902338085,-1496,8527,-952,0,0,0,0,0
28,1765902339167,-568,9777,-1052,0,0,0,0,0
29,1765902340701,-3548,8921,-539,0,0,0,0,0
30,1765902342769,-2688,7966,-1458,0,0,0,0,0
31,1765902343802,-2506,8613,982,0,0,0,0,0
32,1765902345484,-897,9765,498,0,0,0,0,0
33,1765902348435,-328,7745,-38,0,0,0,0,0
34,1765902350051,-828,7442,-1037,0,0,0,0,0
35,1765902350935,-1030,7718,-3129,0,0,0,0,0
36,1765902351167,-483,8699,-1212,0,0,0,0,0
37,1765902351585,-4383,8271,-1887,0,0,0,0,0
38,1765902351801,-4967,7024,-1137,0,0,0,0,0
39,1765902352352,3551,8197,-867,0,0,0,0,0
40,1765902355151,2278,6995,-930,0,0,0,0,0
41,1765902357585,-5390,8213,-384,0,0,0,0,0
42,1765902358052,-4222,7925,-699,0,0,0,0,0
43,1765902358817,-4730,8748,-1040,0,0,0,0,0
44,1765902359302,-7084,9818,-1713,0,0,0,0,0
45,1765902360573,-3852,7826,1383,0,0,0,0,0
46,1765902361018,-192,10229,841,0,0,0,0,0
47,1765902361605,1716,8266,-927,0,0,0,0,0
48,1765902362936,-4893,7896,-95,0,0,0,0,0
49,1765902363019,-5126,8254,-832,0,0,0,0,0
50,1765902363902,4999,8700,-1871,0,0,0,0,0
51,1765902364168,4206,8683,-1174,0,0,0,0,0
52,1765902364488,1258,8050,-1259,0,0,0,0,0
53,1765902364553,-96,7836,-1204,0,0,0,0,0
54,1765902364702,-2430,7991,-622,0,0,0,0,0
55,1765902365501,-1488,8043,-336,0,0,0,0,0
56,1765902365803,-514,8889,-655,0,0,0,0,0
57,1765902366919,4162,7803,-1252,0,0,0,0,0
58,1765902368068,4490,7701,-692,0,0,0,0,0
59,1765902368367,3755,7591,-1111,0,0,0,0,0
60,1765902369219,-326,7323,-821,0,0,0,0,0
61,1765902373702,604,9192,-306,0,0,0,0,0
62,1765902374569,-189,8813,-1158,0,0,0,0,0
63,1765902375752,-2279,7858,-1270,0,0,0,0,0
64,1765902377418,-3586,9196,281,0,0,0,0,0
65,1765902378351,-4226,9112,293,0,0,0,0,0
66,1765902378917,-4976,7031,-648,0,0,0,0,0
67,1765902379384,-2600,8090,-560,0,0,0,0,0
68,1765902379468,-3130,9262,-1037,0,0,0,0,0
69,1765902379735,-2570,7988,-464,0,0,0,0,0
70,1765902382869,-1199,8606,1223,0,0,0,0,0
71,1765902383202,-1778,8117,-205,0,0,0,0,0
72,1765902387052,-1833,6958,-3466,0,0,0,0,0
73,1765902387368,-5312,7304,-1476,0,0,0,0,0
74,1765902387652,-6944,8158,-1162,0,0,0,0,0
75,1765902387901,-5483,9099,27,0,0,0,0,0
76,1765902388285,-2866,8858,12,0,0,0,0,0
77,1765902388602,-2726,9362,-1354,0,0,0,0,0
78,1765902388736,-4483,7015,-957,0,0,0,0,0
79,1765902388934,-7002,8206,-1422,0,0,0,0,0
80,1765902389203,-5938,10955,-819,0,0,0,0,0
81,1765902389286,-4205,7822,-1016,0,0,0,0,0
82,1765902389537,-5352,7980,-338,0,0,0,0,0
83,1765902389704,-5920,8134,-1264,0,0,0,0,0
84,1765902390933,-2231,8509,1362,0,0,0,0,0
85,1765902391784,-1006,9074,915,0,0,0,0,0
86,1765902392135,-1332,8356,-461,0,0,0,0,0
87,1765902392501,-2753,7546,-1463,0,0,0,0,0
88,1765902392985,-1975,9108,1119,0,0,0,0,0
89,1765902395352,-545,7168,202,0,0,0,0,0
90,1765902395502,-128,6612,-1562,0,0,0,0,0
91,1765902396068,-114,7757,-3066,0,0,0,0,0
92,1765902396368,-870,8394,-2759,0,0,0,0,0
93,1765902399552,-6547,7762,-832,0,0,0,0,0
94,1765902404485,-6180,8805,-661,0,0,0,0,0
95,1765902407669,-6226,7575,-348,0,0,0,0,0
96,1765902407952,-5156,8007,206,0,0,0,0,0
97,1765902408002,-5562,8296,374,0,0,0,0,0
98,1765902409668,4295,8726,-482,0,0,0,0,0
99,1765902410384,-5380,6760,-987,0,0,0,0,0
100,1765902410818,-4396,8892,-741,0,0,0,0,0
101,1765902411002,-3426,8389,-1410,0,0,0,0,0
102,1765902411435,711,10352,-2844,0,0,0,0,0
103,1765902412502,3593,8823,-1157,0,0,0,0,0
104,1765902413450,6154,11851,-2766,0,0,0,0,0
105,1765902414635,4922,9258,-882,0,0,0,0,0
106,1765902414952,6139,8283,-955,0,0,0,0,0
107,1765902415218,5580,8638,-942,0,0,0,0,0
108,1765902415353,1634,8316,-790,0,0,0,0,0
109,1765902415669,-1847,9186,-712,0,0,0,0,0
110,1765902415919,-2384,8509,-1077,0,0,0,0,0
111,1765902416019,-2206,7329,-745,0,0,0,0,0
112,1765902416335,911,8079,128,0,0,0,0,0
113,1765902416702,6299,9694,-311,0,0,0,0,0
114,1765902416835,7286,10289,203,0,0,0,0,0
115,1765902417069,6653,8333,-2167,0,0,0,0,0
116,1765902417602,-6183,9279,-2519,0,0,0,0,0
117,1765902417885,-5326,8049,-854,0,0,0,0,0
118,1765902418819,-3630,8116,-801,0,0,0,0,0
119,1765902420251,-1846,9190,-795,0,0,0,0,0
120,1765902421319,-1991,8702,170,0,0,0,0,0
121,1765902421436,-1370,8252,52,0,0,0,0,0
122,1765902421752,-2092,8527,-576,0,0,0,0,0
123,1765902421885,-1130,7174,-325,0,0,0,0,0
124,1765902422168,-2023,8021,-808,0,0,0,0,0
125,1765902422285,-1286,10332,-1000,0,0,0,0,0
126,1765902422419,-2454,8205,654,0,0,0,0,0
127,1765902422685,-2434,8194,-222,0,0,0,0,0
128,1765902422752,-2028,6796,403,0,0,0,0,0
129,1765902423236,-2266,7582,-762,0,0,0,0,0
130,1765902423553,-2090,7810,-559,0,0,0,0,0
131,1765902426751,29021,8294,-1079,0,0,0,0,0
132,1765902429301,-1094,7496,-4,0,0,0,0,0
133,1765902432435,-1468,9804,-458,0,0,0,0,0
134,1765902432985,-82,7275,-168,0,0,0,0,0
135,1765902433049,-460,8659,-616,0,0,0,0,0
136,1765902433335,-1958,8980,-858,0,0,0,0,0
137,1765902434919,-7502,6692,-2584,0,0,0,0,0
138,1765902435418,-4465,9805,100,0,0,0,0,0
139,1765902436602,-4394,7181,-56,0,0,0,0,0
140,1765902438086,-1631,9568,-160,0,0,0,0,0
141,1765902438335,-1512,9418,-134,0,0,0,0,0
142,1765902440701,-1118,6492,103,0,0,0,0,0
143,1765902441518,-617,8528,-319,0,0,0,0,0
144,1765902442702,-1232,6688,-836,0,0,0,0,0
145,1765902443351,-1423,7843,-389,0,0,0,0,0
146,1765902443451,-208,9212,-568,0,0,0,0,0
147,1765902445018,-1057,8244,-1387,0,0,0,0,0
148,1765902445952,-1810,8836,-867,0,0,0,0,0
149,1765902447102,4325,8863,-1082,0,0,0,0,0
150,1765902447918,-4338,8835,343,0,0,0,0,0
151,1765902449118,2907,8501,348,0,0,0,0,0
152,1765902449302,1891,8688,-312,0,0,0,0,0
153,1765902449785,-1458,6998,802,0,0,0,0,0
154,1765902450367,-3380,6717,885,0,0,0,0,0
155,1765902451035,-3737,7814,502,0,0,0,0,0
156,1765902451735,-4806,9118,-374,0,0,0,0,0
157,1765902452067,-4186,9131,690,0,0,0,0,0
158,1765902452233,-4744,8444,-544,0,0,0,0,0
159,1765902452360,-4717,7121,-760,0,0,0,0,0
160,1765902452617,-4612,10276,519,0,0,0,0,0
161,1765902452933,-7297,7150,-784,0,0,0,0,0
162,1765902453067,-6819,9330,-1182,0,0,0,0,0
163,1765902453333,-6785,11342,-1058,0,0,0,0,0
164,1765902453667,-6281,12255,-1434,0,0,0,0,0
165,1765902453933,-7061,8482,-2566,0,0,0,0,0
166,1765902454285,-6203,9038,-850,0,0,0,0,0
167,1765902456668,-4897,8200,55,0,0,0,0,0
168,1765902459352,-1807,7756,-56,0,0,0,0,0
169,1765902459901,2572,8179,-453,0,0,0,0,0
170,1765902460701,5747,8628,-1728,0,0,0,0,0
171,1765902460967,4737,9268,-755,0,0,0,0,0
172,1765902463585,1581,8392,-2155,0,0,0,0,0
173,1765902464735,4502,9600,-294,0,0,0,0,0
174,1765902465735,-1903,7784,-1901,0,0,0,0,0
175,1765902466535,-6004,8320,271,0,0,0,0,0
176,1765902466785,-5891,8483,-186,0,0,0,0,0
177,1765902467201,-6109,7773,-532,0,0,0,0,0
178,1765902469317,-3938,8475,531,0,0,0,0,0
179,1765902471433,-1320,8854,1156,0,0,0,0,0
180,1765902471501,-545,9192,1634,0,0,0,0,0
181,1765902472551,-1194,7616,908,0,0,0,0,0
182,1765902472883,-3265,7234,759,0,0,0,0,0
183,1765902473234,-1674,8882,611,0,0,0,0,0
184,1765902473951,-2180,8800,-275,0,0,0,0,0
185,1765902474302,-2211,9788,189,0,0,0,0,0
186,1765902475385,-1392,9219,-424,0,0,0,0,0
187,1765902475670,-2060,7422,-1476,0,0,0,0,0
188,1765902476235,-5128,8044,-4334,0,0,0,0,0
189,1765902476468,-2596,9659,-2032,0,0,0,0,0
190,1765902476619,-1415,9885,551,0,0,0,0,0
191,1765902477019,-3724,9626,351,0,0,0,0,0
192,1765902477268,-3774,6386,196,0,0,0,0,0
193,1765902478152,-7264,7548,-656,0,0,0,0,0
194,1765902479685,-305,7879,1510,0,0,0,0,0
195,1765902480016,-756,7816,610,0,0,0,0,0
196,1765902480685,-1971,8968,765,0,0,0,0,0
197,1765902480884,-1231,8269,239,0,0,0,0,0
198,1765902481285,-2229,6816,1082,0,0,0,0,0
199,1765902481852,-180,7175,616,0,0,0,0,0
200,1765902482718,-4308,7076,884,0,0,0,0,0
201,1765902485686,-1796,8459,-1227,0,0,0,0,0
202,1765902487118,-514,7436,-2379,0,0,0,0,0
203,1765902487768,-1942,8270,-402,0,0,0,0,0
204,1765902488635,4594,7262,-1758,0,0,0,0,0
205,1765902489018,-392,8122,-2192,0,0,0,0,0
206,1765902489785,-5220,9009,31788,0,0,0,0,0
207,1765902490166,-4315,8552,-1400,0,0,0,0,0
208,1765902491952,-3888,9436,-349,0,0,0,0,0
209,1765902492436,-2862,8734,-1041,0,0,0,0,0
210,1765902493750,-1345,8210,-455,0,0,0,0,0
211,1765902494001,-1972,8546,-491,0,0,0,0,0
212,1765902494050,-1475,8249,-860,0,0,0,0,0
213,1765902495435,-1091,8956,-1056,0,0,0,0,0
214,1765902497701,-2060,8123,-882,0,0,0,0,0
215,1765902498435,-910,8538,-1104,0,0,0,0,0
216,1765902499635,-526,8530,-1547,0,0,0,0,0
217,1765902499951,-778,8632,-1544,0,0,0,0,0
218,1765902500318,-544,8226,-1310,0,0,0,0,0
219,1765902500651,-939,8128,-646,0,0,0,0,0
220,1765902500935,-1058,8360,-869,0,0,0,0,0
221,1765902501750,-631,8439,-1029,0,0,0,0,0
222,1765902502034,-856,7863,-1032,0,0,0,0,0
223,1765902502201,-1121,8166,-1077,0,0,0,0,0
224,1765902503551,-440,8533,-1348,0,0,0,0,0
225,1765902504535,-429,8244,-1160,0,0,0,0,0
226,1765902505951,-464,8329,-563,0,0,0,0,0
227,1765902506269,-470,8308,-576,0,0,0,0,0
228,1765902506919,-454,8317,-569,0,0,0,0,0
229,1765902507118,-458,8316,-596,0,0,0,0,0
230,1765902507368,-464,8301,-604,0,0,0,0,0
231,1765902507834,-462,8314,-609,0,0,0,0,0
232,1765902508068,-459,8314,-570,0,0,0,0,0
233,1765902508335,-462,8327,-581,0,0,0,0,0
234,1765902508485,-458,8309,-584,0,0,0,0,0
235,1765902508685,-454,8321,-591,0,0,0,0,0
236,1765902509134,-456,8317,-590,0,0,0,0,0
237,1765902510118,-448,8358,-590,0,0,0,0,0
238,1765902510502,-457,8310,-572,0,0,0,0,0
239,1765902511152,-448,8314,-583,0,0,0,0,0
240,1765902512202,-448,8321,-593,0,0,0,0,0
241,1765902515935,-459,8317,-614,0,0,0,0,0
242,1765902516184,-460,8320,-568,0,0,0,0,0
243,1765902516251,-455,8302,-580,0,0,0,0,0
244,1765902516501,-448,8327,-586,0,0,0,0,0
245,1765902520985,-468,8299,-580,0,0,0,0,0
246,1765902521151,-463,8285,-588,0,0,0,0,0
247,1765902521434,-453,8318,-593,0,0,0,0,0
248,1765902523401,-461,8316,-597,0,0,0,0,0
249,1765902524018,-464,8314,-581,0,0,0,0,0
250,1765902524069,-483,8300,-580,0,0,0,0,0
251,1765902524367,-462,8312,-575,0,0,0,0,0
252,1765902524650,-448,8332,-583,0,0,0,0,0
253,1765902525450,-456,8314,-594,0,0,0,0,0
254,1765902527784,-450,8300,-551,0,0,0,0,0
255,1765902528051,-401,8326,-592,0,0,0,0,0
256,1765902528301,-422,8358,-553,0,0,0,0,0
257,1765902528566,-435,8302,-613,0,0,0,0,0
258,1765902528650,-452,8286,-556,0,0,0,0,0
259,1765902529719,-430,8274,-576,0,0,0,0,0
260,1765902530801,-434,8320,-566,0,0,0,0,0
261,1765902530968,-467,8312,-589,0,0,0,0,0
262,1765902531217,-457,8304,-583,0,0,0,0,0
263,1765902531335,-458,8314,-570,0,0,0,0,0
264,1765902531600,-465,8317,-608,0,0,0,0,0
265,1765902531999,-429,8280,-648,0,0,0,0,0
266,1765902534701,-448,8298,-567,0,0,0,0,0
267,1765902534834,-472,8303,-583,0,0,0,0,0
268,1765902535050,-470,8382,-566,0,0,0,0,0
269,1765902535367,-443,8318,-583,0,0,0,0,0
270,1765902535782,-466,8346,-577,0,0,0,0,0
271,1765902537885,-456,8320,-590,0,0,0,0,0
272,1765902538901,-452,8315,-559,0,0,0,0,0
273,1765902541550,-463,8315,-581,0,0,0,0,0
274,1765902542418,-453,8300,-611,0,0,0,0,0
275,1765902543818,-453,8310,-591,0,0,0,0,0
276,1765902544183,-463,8320,-590,0,0,0,0,0
277,1765902544467,-453,8309,-586,0,0,0,0,0
278,1765902545166,-444,8336,-585,0,0,0,0,0
279,1765902545415,-439,8297,-591,0,0,0,0,0
280,1765902547767,-518,8279,-614,0,0,0,0,0
281,1765902548885,-462,8320,-581,0,0,0,0,0
282,1765902549033,-453,8292,-591,0,0,0,0,0
283,1765902549300,-382,8253,-572,0,0,0,0,0
284,1765902550650,-458,8321,-594,0,0,0,0,0
285,1765902551185,-457,8329,-582,0,0,0,0,0
286,1765902551732,-465,8299,-578,0,0,0,0,0
287,1765902552052,-468,8300,-580,0,0,0,0,0
288,1765902552349,-453,8293,-600,0,0,0,0,0
289,1765902553149,-470,8308,-583,0,0,0,0,0
290,1765902554901,-458,8313,-590,0,0,0,0,0
291,1765902555900,-448,8318,-466,0,0,0,0,0
292,1765902556219,-440,8310,-586,0,0,0,0,0
293,1765902556402,-470,8299,-570,0,0,0,0,0
294,1765902556567,-458,8290,-564,0,0,0,0,0
295,1765902556984,-465,8318,-582,0,0,0,0,0
296,1765902557118,-443,8316,-546,0,0,0,0,0
297,1765902557400,-466,8302,-589,0,0,0,0,0
298,1765902557767,-465,8307,-581,0,0,0,0,0
299,1765902558684,-458,8320,-577,0,0,0,0,0
300,1765902559068,-518,8404,-592,0,0,0,0,0
301,1765902561316,-462,8317,-590,0,0,0,0,0
302,1765902561568,-460,8307,-580,0,0,0,0,0
303,1765902561919,-462,8324,-584,0,0,0,0,0
304,1765902562302,-463,8311,-583,0,0,0,0,0
305,1765902562667,-441,8338,-594,0,0,0,0,0
306,1765902563001,-470,8317,-582,0,0,0,0,0
307,1765902563168,-450,8326,-581,0,0,0,0,0
308,1765902563418,-453,8317,-574,0,0,0,0,0
309,1765902563618,-460,8322,-575,0,0,0,0,0
310,1765902563817,-461,8319,-581,0,0,0,0,0
311,1765902564316,-454,8324,-586,0,0,0,0,0
312,1765902564483,-457,8290,-561,0,0,0,0,0
313,1765902565033,-459,8312,-570,0,0,0,0,0
314,1765902565215,-433,8324,-736,0,0,0,0,0
315,1765902565384,-464,8282,-534,0,0,0,0,0
316,1765902565716,-476,8300,-652,0,0,0,0,0
317,1765902565934,-456,8332,-578,0,0,0,0,0
318,1765902566417,-437,8312,-600,0,0,0,0,0
319,1765902566766,-478,8310,-570,0,0,0,0,0
320,1765902567300,-452,8302,-556,0,0,0,0,0
321,1765902567434,-457,8298,-568,0,0,0,0,0
322,1765902567816,-489,8319,-592,0,0,0,0,0
323,1765902568533,-448,8293,-588,0,0,0,0,0
324,1765902568934,-461,8290,-589,0,0,0,0,0
325,1765902570633,-498,8441,123,0,0,0,0,0
326,1765902570932,-393,8576,566,0,0,0,0,0
327,1765902571215,-564,8840,531,0,0,0,0,0
328,1765902571985,-858,8638,809,0,0,0,0,0
329,1765902572698,-1277,9141,872,0,0,0,0,0
330,1765902573366,-654,8236,556,0,0,0,0,0
331,1765902573432,158,8501,1369,0,0,0,0,0
332,1765902573716,238,8708,1157,0,0,0,0,0
333,1765902575166,-1202,8104,683,0,0,0,0,0
334,1765902575433,-24,8418,647,0,0,0,0,0
335,1765902576400,525,9295,-408,0,0,0,0,0
336,1765902577485,301,8459,-842,0,0,0,0,0
337,1765902577719,-396,8175,-457,0,0,0,0,0
338,1765902578082,-789,8646,-821,0,0,0,0,0
339,1765902578883,1434,9151,-1890,0,0,0,0,0
340,1765902578950,842,7453,-1552,0,0,0,0,0
341,1765902579750,3502,8096,-1127,0,0,0,0,0
342,1765902581184,2437,6606,-1372,0,0,0,0,0
343,1765902581534,4471,10230,698,0,0,0,0,0
344,1765902583668,-1126,8643,-106,0,0,0,0,0
345,1765902584467,6579,8216,-1230,0,0,0,0,0
346,1765902585368,-4591,7295,-750,0,0,0,0,0
347,1765902585617,-5738,4906,-1268,0,0,0,0,0
348,1765902585699,-5454,11237,-1234,0,0,0,0,0
349,1765902586117,-5260,9456,-377,0,0,0,0,0
350,1765902586600,-4071,8250,-1096,0,0,0,0,0
351,1765902586768,-6404,6772,-2420,0,0,0,0,0
352,1765902587216,-3232,9043,3406,0,0,0,0,0
353,1765902587283,-707,7373,1048,0,0,0,0,0
354,1765902588851,-4641,8836,-464,0,0,0,0,0
355,1765902589065,-4730,8117,-209,0,0,0,0,0
356,1765902590117,-3889,8184,538,0,0,0,0,0
357,1765902590369,-3676,7944,377,0,0,0,0,0
358,1765902591299,-2046,8381,374,0,0,0,0,0
359,1765902593432,-1915,7443,-302,0,0,0,0,0
360,1765902597050,-6176,9048,69,0,0,0,0,0
361,1765902597383,-8621,9700,-310,0,0,0,0,0
362,1765902597883,-6779,9558,-2306,0,0,0,0,0
363,1765902598367,-3980,8124,570,0,0,0,0,0
364,1765902598683,953,8286,-1102,0,0,0,0,0
365,1765902605534,-2530,9074,-3823,0,0,0,0,0
366,1765902605800,-2021,7366,-1239,0,0,0,0,0
367,1765902608766,1897,8284,-626,0,0,0,0,0
368,1765902609032,-2215,7093,-1119,0,0,0,0,0
369,1765902611067,-2351,6988,731,0,0,0,0,0
370,1765902611868,-4989,8173,103,0,0,0,0,0
371,1765902612749,-4150,8217,541,0,0,0,0,0
372,1765902616649,-4411,8466,-349,0,0,0,0,0
373,1765902617650,5417,7522,-190,0,0,0,0,0
374,1765902618431,-2811,7953,-1375,0,0,0,0,0
375,1765902618765,-4044,7636,-741,0,0,0,0,0
376,1765902618849,-4142,8506,-514,0,0,0,0,0
377,1765902621215,5693,10286,-1443,0,0,0,0,0
378,1765902621715,5000,8228,-1033,0,0,0,0,0
379,1765902622449,5030,8055,-752,0,0,0,0,0
380,1765902623016,5051,7686,-1441,0,0,0,0,0
381,1765902623633,6962,8020,-684,0,0,0,0,0
382,1765902624148,-4786,8201,-688,0,0,0,0,0
383,1765902624948,5696,8683,-1604,0,0,0,0,0
384,1765902625249,4866,8922,-2278,0,0,0,0,0
385,1765902626515,-6981,6890,-724,0,0,0,0,0
386,1765902628250,-3705,8946,-107,0,0,0,0,0
387,1765902629150,-5762,4996,1290,0,0,0,0,0
388,1765902629617,-4640,7883,-735,0,0,0,0,0
389,1765902632567,-2746,8566,56,0,0,0,0,0
390,1765902633149,-2640,8058,-400,0,0,0,0,0
391,1765902633785,-2596,9294,-242,0,0,0,0,0
392,1765902634517,-2163,8705,-178,0,0,0,0,0
393,1765902635267,-1822,7950,-1438,0,0,0,0,0
394,1765902635549,-1107,7882,-1468,0,0,0,0,0
395,1765902635733,-1763,7438,-2143,0,0,0,0,0
396,1765902635765,-2770,7698,-2647,0,0,0,0,0
397,1765902636066,-1446,8401,-2382,0,0,0,0,0
398,1765902636815,-6965,8346,-1059,0,0,0,0,0
399,1765902637148,-5810,8788,-1018,0,0,0,0,0
400,1765902637818,-5255,7304,-973,0,0,0,0,0
401,1765902640282,-755,10350,432,0,0,0,0,0
402,1765902640549,-1868,7900,664,0,0,0,0,0
403,1765902640583,-198,8680,544,0,0,0,0,0
404,1765902640834,-1305,8200,659,0,0,0,0,0
405,1765902641618,937,9206,1046,0,0,0,0,0
406,1765902641965,-535,8140,1283,0,0,0,0,0
407,1765902642065,636,8872,352,0,0,0,0,0
408,1765902642499,-748,8697,1062,0,0,0,0,0
409,1765902642782,-906,8130,568,0,0,0,0,0
410,1765902642833,-323,9281,604,0,0,0,0,0
411,1765902643116,-831,8402,78,0,0,0,0,0
412,1765902643199,198,6746,1153,0,0,0,0,0
413,1765902643599,-619,7957,46,0,0,0,0,0
414,1765902643999,-105,8662,452,0,0,0,0,0
415,1765902646449,-5797,7482,-1576,0,0,0,0,0
416,1765902647350,4464,8100,-1234,0,0,0,0,0
417,1765902647749,4803,7711,-1503,0,0,0,0,0
418,1765902648084,3984,8049,-1318,0,0,0,0,0
419,1765902648282,3306,8166,-1257,0,0,0,0,0
420,1765902648748,-3087,8675,-688,0,0,0,0,0
421,1765902649747,697,9012,632,0,0,0,0,0
422,1765902650198,-3692,8404,-558,0,0,0,0,0
423,1765902651066,-5460,5620,-294,0,0,0,0,0
424,1765902651401,-6961,7761,450,0,0,0,0,0
425,1765902651649,-5971,7132,401,0,0,0,0,0
426,1765902652018,-4530,6312,-564,0,0,0,0,0
427,1765902652632,-4893,8070,-406,0,0,0,0,0
428,1765902652884,-6460,7755,-1127,0,0,0,0,0
429,1765902653184,-5672,7761,108,0,0,0,0,0
430,1765902653500,-4102,8340,-84,0,0,0,0,0
431,1765902654016,-4505,7439,-2229,0,0,0,0,0
432,1765902654083,-6122,9708,-2376,0,0,0,0,0
433,1765902654682,-7576,8313,-1210,0,0,0,0,0
434,1765902654950,-6610,8504,-1392,0,0,0,0,0
435,1765902655015,-8466,8642,-1296,0,0,0,0,0
436,1765902655498,-1384,8729,264,0,0,0,0,0
437,1765902655769,1880,7483,-189,0,0,0,0,0
438,1765902656115,2743,10058,-1093,0,0,0,0,0
439,1765902656316,2905,8999,-1194,0,0,0,0,0
440,1765902657515,-4384,7358,386,0,0,0,0,0
441,1765902657699,-4760,8215,1461,0,0,0,0,0
442,1765902657935,-2836,8075,736,0,0,0,0,0
443,1765902658382,34,7960,748,0,0,0,0,0
444,1765902658450,3746,8342,334,0,0,0,0,0
445,1765902658483,5369,8967,217,0,0,0,0,0
446,1765902658765,4341,8169,-26,0,0,0,0,0
447,1765902660016,-3949,8308,312,0,0,0,0,0
448,1765902660317,-4036,7938,-1078,0,0,0,0,0
449,1765902663432,4655,8170,-1354,0,0,0,0,0
450,1765902664149,4978,8925,-1536,0,0,0,0,0
451,1765902664497,3500,8016,-619,0,0,0,0,0
452,1765902664749,2652,8311,-822,0,0,0,0,0
453,1765902664915,-2593,9876,-447,0,0,0,0,0
454,1765902664999,-3152,7499,-634,0,0,0,0,0
455,1765902665200,-3476,9094,-490,0,0,0,0,0
456,1765902665282,-2908,7806,-283,0,0,0,0,0
457,1765902665767,5115,8312,-798,0,0,0,0,0
458,1765902665966,5046,7608,-1048,0,0,0,0,0
459,1765902666265,6288,8619,-1808,0,0,0,0,0
460,1765902668849,-3554,8499,-514,0,0,0,0,0
461,1765902669915,-2578,7534,267,0,0,0,0,0
462,1765902670899,-3628,6646,589,0,0,0,0,0
463,1765902671365,-3785,8843,599,0,0,0,0,0
464,1765902671482,-2980,8718,272,0,0,0,0,0
465,1765902672164,-3014,8773,604,0,0,0,0,0
466,1765902672315,-2836,8557,498,0,0,0,0,0
467,1765902672634,-3526,8246,323,0,0,0,0,0
468,1765902672948,-2399,8419,211,0,0,0,0,0
469,1765902673381,-1643,8832,428,0,0,0,0,0
470,1765902673665,-2577,8542,-480,0,0,0,0,0
471,1765902673916,-538,8829,768,0,0,0,0,0
472,1765902674115,-500,9344,1201,0,0,0,0,0
473,1765902674317,-933,9519,893,0,0,0,0,0
474,1765902675082,-876,8330,472,0,0,0,0,0
475,1765902675516,-2622,7224,1593,0,0,0,0,0
476,1765902676098,-2025,8473,911,0,0,0,0,0
477,1765902677500,-2816,8508,-770,0,0,0,0,0
478,1765902677749,-1872,7929,-1891,0,0,0,0,0
479,1765902677965,-2430,8586,-2023,0,0,0,0,0
480,1765902678097,-2258,7124,-3238,0,0,0,0,0
481,1765902678781,-5577,9540,-3875,0,0,0,0,0
482,1765902679399,-3920,7340,-1379,0,0,0,0,0
483,1765902682415,-479,9020,73,0,0,0,0,0
484,1765902682903,-2472,4883,523,0,0,0,0,0
485,1765902683433,-1385,6853,-488,0,0,0,0,0
486,1765902683916,-1122,8366,287,0,0,0,0,0
487,1765902686032,-451,7734,-368,0,0,0,0,0
488,1765902686665,33,7966,10,0,0,0,0,0
489,1765902687016,-261,6860,621,0,0,0,0,0
490,1765902687499,1234,6213,294,0,0,0,0,0
491,1765902687681,632,9855,-165,0,0,0,0,0
492,1765902689316,-1896,7689,-276,0,0,0,0,0
493,1765902690051,-896,7432,-1153,0,0,0,0,0
494,1765902690765,108,8926,-629,0,0,0,0,0
495,1765902691799,3832,8515,-1594,0,0,0,0,0
496,1765902692683,-5023,7208,-1337,0,0,0,0,0
497,1765902692964,-4717,8242,-1551,0,0,0,0,0
498,1765902693265,-3775,8096,-456,0,0,0,0,0
499,1765902693876,-651,7708,-87,0,0,0,0,0
500,1765902693876,-600,6976,-734,0,0,0,0,0
501,1765902694283,1422,8809,-817,0,0,0,0,0
502,1765902694614,-1275,9096,638,0,0,0,0,0
503,1765902694833,-2916,7981,-731,0,0,0,0,0
504,1765902695600,-3078,8758,-61,0,0,0,0,0
505,1765902695815,-3632,7132,-975,0,0,0,0,0
506,1765902697615,-1636,8228,-947,0,0,0,0,0
507,1765902699066,-1564,8999,-1160,0,0,0,0,0
508,1765902699165,-1782,9869,-1089,0,0,0,0,0
509,1765902700217,-2069,7819,-820,0,0,0,0,0
510,1765902700432,-2083,8499,-1020,0,0,0,0,0
511,1765902701298,-1023,9111,-1229,0,0,0,0,0
512,1765902702515,-1288,8634,-2240,0,0,0,0,0
513,1765902703782,-573,8571,-1322,0,0,0,0,0
514,1765902704181,-468,8254,-921,0,0,0,0,0
515,1765902704841,-451,8462,-545,0,0,0,0,0
516,1765902706234,-468,8296,-560,0,0,0,0,0
517,1765902706800,-430,8290,-572,0,0,0,0,0
518,1765902707082,-518,8262,-648,0,0,0,0,0
519,1765902707300,-448,8251,-629,0,0,0,0,0
520,1765902707631,-435,8264,-311,0,0,0,0,0
521,1765902708115,-452,8064,-498,0,0,0,0,0
522,1765902708266,-612,8001,26,0,0,0,0,0
523,1765902708549,-620,8358,-1088,0,0,0,0,0
524,1765902708716,-351,8595,-539,0,0,0,0,0
525,1765902709000,-380,8260,-525,0,0,0,0,0
526,1765902709515,-438,8366,-612,0,0,0,0,0
527,1765902709849,-414,8227,-506,0,0,0,0,0
528,1765902710300,-474,8280,-521,0,0,0,0,0
529,1765902710715,-376,8329,-576,0,0,0,0,0
530,1765902711715,-428,8344,-674,0,0,0,0,0
531,1765902711948,-432,8277,-587,0,0,0,0,0
532,1765902713748,-431,8316,-627,0,0,0,0,0
533,1765902717114,-476,8289,-619,0,0,0,0,0
534,1765902718298,-536,8375,-556,0,0,0,0,0
535,1765902752831,-472,8296,-596,0,0,0,0,0
536,1765902752917,-456,8324,-632,0,0,0,0,0
537,1765902753066,-441,8322,-602,0,0,0,0,0
538,1765902753165,-479,8291,-654,0,0,0,0,0
539,1765902753298,-463,8331,-654,0,0,0,0,0
540,1765902753414,-450,8285,-630,0,0,0,0,0
541,1765902753531,-465,8298,-639,0,0,0,0,0
542,1765902753664,-518,8383,-632,0,0,0,0,0
543,1765902753766,-472,8278,-530,0,0,0,0,0
544,1765902754996,-486,8292,-541,0,0,0,0,0
545,1765902755930,-458,8297,-578,0,0,0,0,0
546,1765902756048,-452,8290,-606,0,0,0,0,0
547,1765902757465,-459,8330,-588,0,0,0,0,0
548,1765902758315,-463,8315,-598,0,0,0,0,0
549,1765902758849,-445,8316,-586,0,0,0,0,0
550,1765902759981,-474,8332,-590,0,0,0,0,0
551,1765902760800,-477,8329,-605,0,0,0,0,0
552,1765902761093,-464,8322,-606,0,0,0,0,0
553,1765902761113,-469,8298,-583,0,0,0,0,0
554,1765902761966,-474,8318,-601,0,0,0,0,0
555,1765902762349,-454,8317,-614,0,0,0,0,0
556,1765902762381,-466,8290,-581,0,0,0,0,0
557,1765902762664,-472,8298,-588,0,0,0,0,0
558,1765902763081,-466,8314,-552,0,0,0,0,0
559,1765902763782,-464,8330,-597,0,0,0,0,0
560,1765902763817,-462,8296,-537,0,0,0,0,0
561,1765902765880,-467,8301,-584,0,0,0,0,0
562,1765902765998,-448,8285,-572,0,0,0,0,0
563,1765902766315,-441,8272,-646,0,0,0,0,0
564,1765903179526,-475,8294,-596,0,0,0,0,0
565,1765903179609,-452,8304,-595,0,0,0,0,0
566,1765903179776,-462,8322,-571,0,0,0,0,0
567,1765903179875,-486,8310,-583,0,0,0,0,0
568,1765903179993,-462,8294,-594,0,0,0,0,0
569,1765903180109,-461,8334,-587,0,0,0,0,0
570,1765903180228,-470,8322,-592,0,0,0,0,0
571,1765903180359,-469,8291,-598,0,0,0,0,0
572,1765903180460,-470,8302,-590,0,0,0,0,0
573,1765903182412,-430,8320,-576,0,0,0,0,0
574,1765903183042,-450,8292,-581,0,0,0,0,0
575,1765903183094,-484,8302,-580,0,0,0,0,0
576,1765903183642,-477,8310,-579,0,0,0,0,0
577,1765903184126,-466,8312,-576,0,0,0,0,0
578,1765903184158,-461,8322,-577,0,0,0,0,0
579,1765903184995,-463,8314,-569,0,0,0,0,0
580,1765903185343,-453,8307,-584,0,0,0,0,0
581,1765903186162,-472,8311,-575,0,0,0,0,0
582,1765903188376,-459,8323,-571,0,0,0,0,0
583,1765903189892,-478,8296,-582,0,0,0,0,0
584,1765903190344,-471,8308,-580,0,0,0,0,0
585,1765903190377,-455,8320,-588,0,0,0,0,0
586,1765903190742,-468,8328,-581,0,0,0,0,0
587,1765903191543,-476,8314,-586,0,0,0,0,0
588,1765903191710,-469,8296,-577,0,0,0,0,0
589,1765903193326,-481,8301,-587,0,0,0,0,0
590,1765903194991,-472,8322,-576,0,0,0,0,0
591,1765903195376,-478,8312,-590,0,0,0,0,0
592,1765903195663,-472,8321,-567,0,0,0,0,0
593,1765903195928,-476,8315,-577,0,0,0,0,0
594,1765903196375,-492,8304,-580,0,0,0,0,0
595,1765903196575,-467,8324,-578,0,0,0,0,0
596,1765903196808,-460,8294,-612,0,0,0,0,0
597,1765903197543,-467,8305,-577,0,0,0,0,0
598,1765903198476,-501,8312,-572,0,0,0,0,0
599,1765903198808,-471,8298,-592,0,0,0,0,0
600,1765903199642,-464,8313,-583,0,0,0,0,0
601,1765903201742,-462,8314,-567,0,0,0,0,0
602,1765903201842,-463,8300,-590,0,0,0,0,0
603,1765903202093,-476,8315,-582,0,0,0,0,0
604,1765903202128,-462,8317,-554,0,0,0,0,0
605,1765903202543,-483,8312,-594,0,0,0,0,0
606,1765903202942,-470,8303,-562,0,0,0,0,0
607,1765903204308,-473,8313,-558,0,0,0,0,0
608,1765903205261,-470,8274,-540,0,0,0,0,0
609,1765903205778,-411,8193,-554,0,0,0,0,0
610,1765903205810,-451,8286,-561,0,0,0,0,0
611,1765903206292,-484,8300,-633,0,0,0,0,0
612,1765903206575,-480,8253,-525,0,0,0,0,0
613,1765903206926,-461,7941,-574,0,0,0,0,0
614,1765903207359,-446,8349,-585,0,0,0,0,0
615,1765903209375,-504,8282,-559,0,0,0,0,0
616,1765903210125,-464,8318,-575,0,0,0,0,0
617,1765903210141,-455,8310,-579,0,0,0,0,0
618,1765903210626,-486,8298,-578,0,0,0,0,0
619,1765903210725,-476,8316,-574,0,0,0,0,0
620,1765903211408,-468,8309,-571,0,0,0,0,0
621,1765903211575,-460,8311,-577,0,0,0,0,0
622,1765903214959,-472,8295,-574,0,0,0,0,0
623,1765903215458,-484,8327,-578,0,0,0,0,0
624,1765903215741,-331,9130,2817,0,0,0,0,0
625,1765903216075,-942,8027,-132,0,0,0,0,0
626,1765903216225,54,7969,926,0,0,0,0,0
627,1765903216594,-986,8162,956,0,0,0,0,0
628,1765903217576,-1686,7836,928,0,0,0,0,0
629,1765903217778,-1561,7765,478,0,0,0,0,0
630,1765903218193,-548,7053,32,0,0,0,0,0
631,1765903218642,-350,8659,635,0,0,0,0,0
632,1765903220491,537,7882,676,0,0,0,0,0
633,1765903220757,494,9240,1396,0,0,0,0,0
634,1765903221060,504,9283,610,0,0,0,0,0
635,1765903221275,151,9219,1189,0,0,0,0,0
636,1765903221560,-1548,7696,593,0,0,0,0,0
637,1765903221893,-1254,7492,205,0,0,0,0,0
638,1765903222057,635,9016,642,0,0,0,0,0
639,1765903222226,-1222,7654,845,0,0,0,0,0
640,1765903222575,-95,7718,1211,0,0,0,0,0
641,1765903222744,-544,8126,937,0,0,0,0,0
642,1765903223228,-128,8784,-1612,0,0,0,0,0
643,1765903223274,-257,8874,-1884,0,0,0,0,0
644,1765903224109,-46,7901,-1100,0,0,0,0,0
645,1765903224277,307,9114,-1082,0,0,0,0,0
646,1765903224758,1123,9779,-637,0,0,0,0,0
647,1765903224825,924,8962,-846,0,0,0,0,0
648,1765903224960,2198,8109,-884,0,0,0,0,0
649,1765903226575,4514,9199,-1765,0,0,0,0,0
650,1765903228308,3146,5930,1,0,0,0,0,0
651,1765903229259,-322,8674,-553,0,0,0,0,0
652,1765903229477,-1122,8202,-89,0,0,0,0,0
653,1765903229742,-1236,8056,-188,0,0,0,0,0
654,1765903230127,4146,7985,-43,0,0,0,0,0
655,1765903230659,4923,8615,-874,0,0,0,0,0
656,1765903231143,-5340,7084,-1475,0,0,0,0,0
657,1765903235175,-4380,9248,332,0,0,0,0,0
658,1765903236292,-2236,7320,1620,0,0,0,0,0
659,1765903236474,-321,10273,899,0,0,0,0,0
660,1765903236724,288,8452,755,0,0,0,0,0
661,1765903237676,-2673,8911,1090,0,0,0,0,0
662,1765903238060,-1116,8846,268,0,0,0,0,0
663,1765903239826,-3114,6558,-6,0,0,0,0,0
664,1765903240610,-1470,8484,-3254,0,0,0,0,0
665,1765903241125,-870,9322,-4056,0,0,0,0,0
666,1765903243144,-6745,7614,-189,0,0,0,0,0
667,1765903243392,-5748,7685,-726,0,0,0,0,0
668,1765903243842,-11257,7667,-557,0,0,0,0,0
669,1765903248992,602,5148,233,0,0,0,0,0
670,1765903249293,-1567,8322,-112,0,0,0,0,0
671,1765903249426,-1734,7998,-2203,0,0,0,0,0
672,1765903250059,-1150,7115,-3825,0,0,0,0,0
673,1765903250426,-234,9132,-1140,0,0,0,0,0
674,1765903250609,-1524,8107,-926,0,0,0,0,0
675,1765903250874,-5470,7869,-1359,0,0,0,0,0
676,1765903250908,-6868,8402,-2319,0,0,0,0,0
677,1765903251191,-6048,7712,-1374,0,0,0,0,0
678,1765903251657,4692,8163,-770,0,0,0,0,0
679,1765903251692,4128,8303,-1246,0,0,0,0,0
680,1765903251957,6643,8870,-1289,0,0,0,0,0
681,1765903255708,-6520,11144,1903,0,0,0,0,0
682,1765903260444,-1391,9616,-137,0,0,0,0,0
683,1765903260725,-6012,7068,-885,0,0,0,0,0
684,1765903261058,-3983,8724,179,0,0,0,0,0
685,1765903261278,-1225,9148,1342,0,0,0,0,0
686,1765903261491,-1905,7548,744,0,0,0,0,0
687,1765903261841,2181,9111,803,0,0,0,0,0
688,1765903262142,2887,9378,851,0,0,0,0,0
689,1765903262374,4122,7323,1124,0,0,0,0,0
690,1765903262725,4087,8080,350,0,0,0,0,0
691,1765903263208,-5062,8084,-109,0,0,0,0,0
692,1765903263791,-2126,7891,180,0,0,0,0,0
693,1765903265159,7416,7934,-2318,0,0,0,0,0
694,1765903265326,7594,11035,-2304,0,0,0,0,0
695,1765903265676,8047,8836,-2103,0,0,0,0,0
696,1765903265992,5872,9218,-2064,0,0,0,0,0
697,1765903268209,-5225,9708,-379,0,0,0,0,0
698,1765903270960,-5661,7657,-1301,0,0,0,0,0
699,1765903271777,-1006,9038,-404,0,0,0,0,0
700,1765903272208,-1392,7657,-693,0,0,0,0,0
701,1765903272711,-1400,7288,263,0,0,0,0,0
702,1765903274492,-2990,8612,777,0,0,0,0,0
703,1765903276191,-921,8644,300,0,0,0,0,0
704,1765903277391,-2451,8672,375,0,0,0,0,0
705,1765903277591,-1964,8119,776,0,0,0,0,0
706,1765903277658,-1348,8232,376,0,0,0,0,0
707,1765903277960,-1324,9031,20,0,0,0,0,0
708,1765903279408,-1390,5860,356,0,0,0,0,0
709,1765903279840,-1642,8110,-299,0,0,0,0,0
710,1765903280658,-1916,7071,-3634,0,0,0,0,0
711,1765903280708,-2717,9569,-4884,0,0,0,0,0
712,1765903281270,-4910,6994,-1533,0,0,0,0,0
713,1765903281608,-4240,10722,714,0,0,0,0,0
714,1765903284474,-2435,8081,1131,0,0,0,0,0
715,1765903286610,-737,8289,452,0,0,0,0,0
716,1765903287040,144,7584,1306,0,0,0,0,0
717,1765903287308,656,7752,1484,0,0,0,0,0
718,1765903287744,228,9794,470,0,0,0,0,0
719,1765903288127,985,9964,496,0,0,0,0,0
720,1765903288358,977,8198,414,0,0,0,0,0
721,1765903290224,-3047,8545,-738,0,0,0,0,0
722,1765903292840,-2900,7756,-658,0,0,0,0,0
723,1765903293091,-4446,8473,-1325,0,0,0,0,0
724,1765903293707,-1991,6177,411,0,0,0,0,0
725,1765903293960,-90,7596,-386,0,0,0,0,0
726,1765903294007,-1654,7626,38,0,0,0,0,0
727,1765903294258,-4087,8081,-400,0,0,0,0,0
728,1765903294493,-4470,11746,-174,0,0,0,0,0
729,1765903294759,-4446,8138,60,0,0,0,0,0
730,1765903295177,-5912,8288,-326,0,0,0,0,0
731,1765903295458,-4697,7202,630,0,0,0,0,0
732,1765903299593,4776,9498,-1200,0,0,0,0,0
733,1765903300507,-2468,6650,-1664,0,0,0,0,0
734,1765903301374,-5541,7224,886,0,0,0,0,0
735,1765903302076,5580,8928,-1291,0,0,0,0,0
736,1765903302710,2068,8127,-1384,0,0,0,0,0
737,1765903302876,-2068,8672,-1551,0,0,0,0,0
738,1765903306509,5872,8892,-1437,0,0,0,0,0
739,1765903307841,2639,8857,-3458,0,0,0,0,0
740,1765903309174,1949,8090,-1066,0,0,0,0,0
741,1765903310690,-1153,8139,-852,0,0,0,0,0
742,1765903312707,-195,8433,-725,0,0,0,0,0
743,1765903315357,-846,8292,-1113,0,0,0,0,0
744,1765903316759,-498,8330,-1121,0,0,0,0,0
745,1765903317294,-514,8257,-1111,0,0,0,0,0
746,1765903318594,-512,8308,-446,0,0,0,0,0
747,1765903318674,-446,8313,-451,0,0,0,0,0
748,1765903319643,-483,8307,-430,0,0,0,0,0
749,1765903320707,-488,8322,-458,0,0,0,0,0
750,1765903320962,-504,8310,-416,0,0,0,0,0
751,1765903321145,-498,8296,-286,0,0,0,0,0
752,1765903321341,-573,8198,-431,0,0,0,0,0
753,1765903322908,-494,8310,-424,0,0,0,0,0
754,1765903323207,-509,8282,-467,0,0,0,0,0
755,1765903323976,-498,8293,-437,0,0,0,0,0
756,1765903324256,-480,8334,-402,0,0,0,0,0
757,1765903324941,-487,8302,-396,0,0,0,0,0
758,1765903325197,-494,8292,-391,0,0,0,0,0
759,1765903326959,-488,8310,-413,0,0,0,0,0
760,1765903327141,-496,8308,-418,0,0,0,0,0
761,1765903327559,-522,8336,-453,0,0,0,0,0
762,1765903328225,-501,8312,-436,0,0,0,0,0
763,1765903329308,-486,8293,-395,0,0,0,0,0
764,1765903329493,-448,8262,-396,0,0,0,0,0
765,1765903330174,-455,8336,-412,0,0,0,0,0
766,1765903332156,-487,8331,-437,0,0,0,0,0
767,1765903337791,-472,8345,-434,0,0,0,0,0
768,1765903337840,-472,8320,-424,0,0,0,0,0
769,1765903338039,-488,8300,-431,0,0,0,0,0
770,1765903338091,-486,8320,-424,0,0,0,0,0
771,1765903338290,-476,8321,-421,0,0,0,0,0
772,1765903338325,-496,8303,-412,0,0,0,0,0
773,1765903338508,-471,8333,-420,0,0,0,0,0
774,1765903338574,-483,8320,-439,0,0,0,0,0
775,1765903340439,-484,8315,-417,0,0,0,0,0
776,1765903340506,-456,8310,-434,0,0,0,0,0
777,1765903340677,-502,8347,-423,0,0,0,0,0
778,1765903340756,-486,8321,-434,0,0,0,0,0
779,1765903340908,-500,8286,-432,0,0,0,0,0
780,1765903341008,-471,8324,-380,0,0,0,0,0
781,1765903341140,-482,8323,-428,0,0,0,0,0
782,1765903341257,-501,8304,-424,0,0,0,0,0
783,1765903341357,-489,8288,-486,0,0,0,0,0
784,1765903341890,-481,8303,-389,0,0,0,0,0
785,1765903342374,-470,8299,-414,0,0,0,0,0
786,1765903345355,-483,8324,-428,0,0,0,0,0
787,1765903345355,-481,8322,-423,0,0,0,0,0
788,1765903346393,-484,8308,-416,0,0,0,0,0
789,1765903346609,-484,8315,-437,0,0,0,0,0
790,1765903347224,-475,8312,-430,0,0,0,0,0
791,1765903349389,-467,8321,-440,0,0,0,0,0
792,1765903349906,-480,8304,-425,0,0,0,0,0
793,1765903350806,-496,8312,-423,0,0,0,0,0
794,1765903351340,-487,8276,-464,0,0,0,0,0
795,1765903351573,-497,8354,-470,0,0,0,0,0
796,1765903351673,-460,8298,-455,0,0,0,0,0
797,1765903352475,-487,8316,-426,0,0,0,0,0
798,1765903354255,-480,8318,-430,0,0,0,0,0
799,1765903357474,-476,8311,-451,0,0,0,0,0
800,1765903358793,-484,8330,-442,0,0,0,0,0
801,1765903360908,-542,8288,-436,0,0,0,0,0
802,1765903361277,-477,8301,-435,0,0,0,0,0
803,1765903361523,-473,8308,-417,0,0,0,0,0
804,1765903364108,-1182,8231,113,0,0,0,0,0
805,1765903365291,-2224,8419,846,0,0,0,0,0
806,1765903365890,-1570,8323,423,0,0,0,0,0
807,1765903366639,-936,8746,878,0,0,0,0,0
808,1765903367793,-2460,9519,938,0,0,0,0,0
809,1765903370807,-869,7331,1129,0,0,0,0,0
810,1765903371074,-1170,9183,232,0,0,0,0,0
811,1765903371158,-306,9606,867,0,0,0,0,0
812,1765903371658,-1975,7458,285,0,0,0,0,0
813,1765903372007,-3472,7909,352,0,0,0,0,0
814,1765903372273,-1369,9150,976,0,0,0,0,0
815,1765903372442,-1426,9394,-120,0,0,0,0,0
816,1765903372540,-2710,8377,313,0,0,0,0,0
817,1765903373574,-1711,8997,-824,0,0,0,0,0
818,1765903374456,-2148,7073,-990,0,0,0,0,0
819,1765903374726,-1903,7957,-1346,0,0,0,0,0
820,1765903374906,-1963,7139,-1060,0,0,0,0,0
821,1765903376123,-4128,9589,-2384,0,0,0,0,0
822,1765903376273,-3978,7958,-587,0,0,0,0,0
823,1765903377242,-1468,8802,-1425,0,0,0,0,0
824,1765903380640,-892,7003,-505,0,0,0,0,0
825,1765903387090,-485,8309,-376,0,0,0,0,0
826,1765903388623,-478,8316,-416,0,0,0,0,0
827,1765903391598,-461,8320,-416,0,0,0,0,0
828,1765903422808,-489,8360,-489,0,0,0,0,0
829,1765903422906,-379,8348,-526,0,0,0,0,0
830,1765903423023,-492,8277,-463,0,0,0,0,0
831,1765903423156,-522,8299,-466,0,0,0,0,0
832,1765903423256,-411,8362,-418,0,0,0,0,0
833,1765903423408,-457,8314,-396,0,0,0,0,0
834,1765903423489,-475,8332,-372,0,0,0,0,0
835,1765903423640,-438,8340,-364,0,0,0,0,0
836,1765903423722,-463,8305,-385,0,0,0,0,0
837,1765903425656,-464,8341,-406,0,0,0,0,0
838,1765903428722,-470,8317,-405,0,0,0,0,0
839,1765903430806,-448,8329,-423,0,0,0,0,0
840,1765903431005,-466,8328,-398,0,0,0,0,0
841,1765903431307,-480,8347,-413,0,0,0,0,0
842,1765903432007,-450,8324,-406,0,0,0,0,0
843,1765903436222,-456,8314,-438,0,0,0,0,0
844,1765903436355,-464,8327,-406,0,0,0,0,0
845,1765903437156,-424,8306,-413,0,0,0,0,0
846,1765903438857,-475,8308,-392,0,0,0,0,0
847,1765903438957,-474,8323,-410,0,0,0,0,0
848,1765903440125,-483,8318,-407,0,0,0,0,0
849,1765903440875,-480,8312,-418,0,0,0,0,0
850,1765903441073,-471,8313,-406,0,0,0,0,0
851,1765903441272,-450,8330,-413,0,0,0,0,0
852,1765903441906,-466,8322,-418,0,0,0,0,0
853,1765903441956,-462,8320,-418,0,0,0,0,0
854,1765903442205,-463,8326,-422,0,0,0,0,0
855,1765903442755,-465,8324,-422,0,0,0,0,0
856,1765903443056,-465,8327,-405,0,0,0,0,0
857,1765903443572,-476,8329,-422,0,0,0,0,0
858,1765903444792,-463,8328,-432,0,0,0,0,0
859,1765903444872,-466,8323,-415,0,0,0,0,0
860,1765903445241,-474,8433,-400,0,0,0,0,0
861,1765903445458,-477,8322,-408,0,0,0,0,0
862,1765903445608,-464,8297,-397,0,0,0,0,0
863,1765903445789,-455,8329,-422,0,0,0,0,0
864,1765903448456,-456,8322,-404,0,0,0,0,0
865,1765903448542,-465,8325,-398,0,0,0,0,0
866,1765903449790,-452,8318,-414,0,0,0,0,0
867,1765903450606,-455,8311,-405,0,0,0,0,0
868,1765903451438,-484,8325,-405,0,0,0,0,0
869,1765903451558,-461,8330,-414,0,0,0,0,0
870,1765903452022,-463,8324,-423,0,0,0,0,0
871,1765903452056,-461,8332,-409,0,0,0,0,0
872,1765903452291,-472,8323,-416,0,0,0,0,0
873,1765903452622,-472,8326,-418,0,0,0,0,0
874,1765903452891,-460,8332,-406,0,0,0,0,0
875,1765903452939,-466,8320,-417,0,0,0,0,0
876,1765903453889,-465,8324,-418,0,0,0,0,0
877,1765903455492,-459,8326,-420,0,0,0,0,0
878,1765903455526,-475,8325,-417,0,0,0,0,0
879,1765903455822,-456,8323,-409,0,0,0,0,0
880,1765903456023,-458,8316,-407,0,0,0,0,0
881,1765903456275,-466,8324,-413,0,0,0,0,0
882,1765903456640,-466,8320,-414,0,0,0,0,0
883,1765903457822,-450,8342,-432,0,0,0,0,0
884,1765903458658,-460,8308,-424,0,0,0,0,0
885,1765903459172,-458,8311,-412,0,0,0,0,0
886,1765903460089,-461,8327,-435,0,0,0,0,0
887,1765903460339,-470,8316,-422,0,0,0,0,0
888,1765903460757,-468,8332,-403,0,0,0,0,0
889,1765903461023,-447,8322,-410,0,0,0,0,0
890,1765903461338,-459,8336,-400,0,0,0,0,0
891,1765903461755,-461,8332,-420,0,0,0,0,0
892,1765903462522,-464,8328,-422,0,0,0,0,0
893,1765903462926,-457,8324,-402,0,0,0,0,0
894,1765903463272,-460,8327,-418,0,0,0,0,0
895,1765903463641,-471,8334,-431,0,0,0,0,0
896,1765903464042,-484,8320,-412,0,0,0,0,0
897,1765903464255,-460,8318,-429,0,0,0,0,0
898,1765903466591,-466,8326,-414,0,0,0,0,0
899,1765903467672,-470,8323,-434,0,0,0,0,0
900,1765903467740,-472,8322,-429,0,0,0,0,0
901,1765903468156,-464,8318,-397,0,0,0,0,0
902,1765903468405,-466,8332,-482,0,0,0,0,0
903,1765903468605,-470,8316,-406,0,0,0,0,0
904,1765903468939,-72,8841,1514,0,0,0,0,0
905,1765903469208,-492,8703,1102,0,0,0,0,0
906,1765903469389,-618,7815,658,0,0,0,0,0
907,1765903469572,-193,8596,749,0,0,0,0,0
908,1765903470206,-999,8488,1237,0,0,0,0,0
909,1765903470356,-341,8289,776,0,0,0,0,0
910,1765903470555,-363,8008,660,0,0,0,0,0
911,1765903470705,-191,7970,810,0,0,0,0,0
912,1765903470939,-857,8484,582,0,0,0,0,0
913,1765903471107,-792,8436,214,0,0,0,0,0
914,1765903471422,84,8582,669,0,0,0,0,0
915,1765903471706,-192,9029,686,0,0,0,0,0
916,1765903474691,336,7302,-73,0,0,0,0,0
917,1765903475540,-751,9464,126,0,0,0,0,0
918,1765903476073,-34,8304,42,0,0,0,0,0
919,1765903476323,-426,9873,-146,0,0,0,0,0
920,1765903477045,-1162,7457,-781,0,0,0,0,0
921,1765903477755,-271,8669,-641,0,0,0,0,0
922,1765903478005,-962,7328,-502,0,0,0,0,0
923,1765903478072,-850,7802,-550,0,0,0,0,0
924,1765903478340,-1004,8004,-713,0,0,0,0,0
925,1765903478540,-2663,8455,-746,0,0,0,0,0
926,1765903478789,-2332,7232,-222,0,0,0,0,0
927,1765903478856,-1669,8577,-498,0,0,0,0,0
928,1765903479322,-1304,8413,28,0,0,0,0,0
929,1765903479659,712,8192,168,0,0,0,0,0
930,1765903480541,2970,8424,-764,0,0,0,0,0
931,1765903480806,2417,6485,-912,0,0,0,0,0
932,1765903481005,2061,8758,-920,0,0,0,0,0
933,1765903481673,-2630,9415,217,0,0,0,0,0
934,1765903482073,-3812,8396,-444,0,0,0,0,0
935,1765903482325,-4215,8078,-294,0,0,0,0,0
936,1765903482343,-2503,7628,175,0,0,0,0,0
937,1765903482524,-191,8038,159,0,0,0,0,0
938,1765903482756,-854,7463,6,0,0,0,0,0
939,1765903483324,-1023,7810,135,0,0,0,0,0
940,1765903483572,-434,8558,-125,0,0,0,0,0
941,1765903483855,-2604,8066,-639,0,0,0,0,0
942,1765903484122,-3387,7034,825,0,0,0,0,0
943,1765903484375,-3768,7182,-378,0,0,0,0,0
944,1765903484473,-3841,8655,-430,0,0,0,0,0
945,1765903484822,-3154,9557,-126,0,0,0,0,0
946,1765903485239,-2434,7172,124,0,0,0,0,0
947,1765903485339,-2720,8796,-303,0,0,0,0,0
948,1765903488155,-5198,6040,-1072,0,0,0,0,0
949,1765903488523,-3915,6777,-563,0,0,0,0,0
950,1765903490522,948,8618,-243,0,0,0,0,0
951,1765903494175,-2104,7974,260,0,0,0,0,0
952,1765903495388,4211,7508,-1053,0,0,0,0,0
953,1765903496190,6378,8332,-1633,0,0,0,0,0
954,1765903496724,5573,5672,-1429,0,0,0,0,0
955,1765903496822,5528,10215,-1452,0,0,0,0,0
956,1765903497540,5469,8551,-1330,0,0,0,0,0
957,1765903497688,5845,8337,402,0,0,0,0,0
958,1765903497888,5901,9110,-1043,0,0,0,0,0
959,1765903498705,-3312,8488,-1476,0,0,0,0,0
960,1765903499012,-2034,7780,-323,0,0,0,0,0
961,1765903499821,5363,8474,-1523,0,0,0,0,0
962,1765903500573,1308,7742,-2130,0,0,0,0,0
963,1765903501322,-6071,7070,-1212,0,0,0,0,0
964,1765903501742,-5256,8774,-1089,0,0,0,0,0
965,1765903504123,-1176,7893,-19,0,0,0,0,0
966,1765903504271,-1161,7300,-142,0,0,0,0,0
967,1765903504590,-2472,7437,-710,0,0,0,0,0
968,1765903505072,-2265,6207,-129,0,0,0,0,0
969,1765903505421,-2445,8752,146,0,0,0,0,0
970,1765903505572,-2808,8580,-285,0,0,0,0,0
971,1765903505741,-3050,8084,-300,0,0,0,0,0
972,1765903506255,-2563,8668,-100,0,0,0,0,0
973,1765903506372,-2233,7380,-158,0,0,0,0,0
974,1765903506523,-1526,8474,211,0,0,0,0,0
975,1765903506788,-1926,8253,-110,0,0,0,0,0
976,1765903507154,-886,8353,69,0,0,0,0,0
977,1765903507689,-615,8158,257,0,0,0,0,0
978,1765903508340,515,8744,-14,0,0,0,0,0
979,1765903508540,-265,9153,49,0,0,0,0,0
980,1765903510240,-1774,8908,-73,0,0,0,0,0
981,1765903510354,-922,7921,-59,0,0,0,0,0
982,1765903510538,-1964,7804,365,0,0,0,0,0
983,1765903510707,-940,9531,-3,0,0,0,0,0
984,1765903511088,-2169,6771,-234,0,0,0,0,0
985,1765903511340,-1598,7141,134,0,0,0,0,0
986,1765903511671,-1944,8202,-136,0,0,0,0,0
987,1765903511839,-1457,7769,-358,0,0,0,0,0
988,1765903512072,-1503,8126,-78,0,0,0,0,0
989,1765903512221,-682,9306,-84,0,0,0,0,0
990,1765903512856,-339,8083,-182,0,0,0,0,0
991,1765903513255,-310,7506,-208,0,0,0,0,0
992,1765903513571,-974,8746,-218,0,0,0,0,0
993,1765903513956,-707,7314,-273,0,0,0,0,0
994,1765903514805,-1995,9184,-800,0,0,0,0,0
995,1765903515471,-4390,7178,-826,0,0,0,0,0
996,1765903517523,-3994,6818,-670,0,0,0,0,0
997,1765903517658,-4061,9907,-1275,0,0,0,0,0
998,1765903518005,-4518,7198,-442,0,0,0,0,0
999,1765903520071,-1805,8295,110,0,0,0,0,0
1000,1765903520221,-1754,8214,102,0,0,0,0,0
1001,1765903521439,-1114,8482,-330,0,0,0,0,0
1002,1765903523790,-1006,8444,-396,0,0,0,0,0
1003,1765903524141,-578,8163,-1201,0,0,0,0,0
1004,1765903524772,-122,8222,-136,0,0,0,0,0
1005,1765903525421,-344,9318,-388,0,0,0,0,0
1006,1765903525606,-1484,7532,-402,0,0,0,0,0
1007,1765903526238,-3146,9596,-1681,0,0,0,0,0
1008,1765903526423,-2550,8191,-481,0,0,0,0,0
1009,1765903526888,-2690,7134,-658,0,0,0,0,0
1010,1765903527038,-2585,7565,-1241,0,0,0,0,0
1011,1765903527323,405,8694,-1435,0,0,0,0,0
1012,1765903528071,4750,9146,-1264,0,0,0,0,0
1013,1765903528971,-4672,8663,-544,0,0,0,0,0
1014,1765903529258,-6658,9266,-960,0,0,0,0,0
1015,1765903530539,-2403,7524,-880,0,0,0,0,0
1016,1765903530821,-2019,8656,-604,0,0,0,0,0
1017,1765903534189,-4012,7649,-1055,0,0,0,0,0
1018,1765903535839,-4076,6647,-1244,0,0,0,0,0
1019,1765903535956,-4132,8348,-939,0,0,0,0,0
1020,1765903536724,-1592,7728,-1084,0,0,0,0,0
1021,1765903536757,-1237,8811,-762,0,0,0,0,0
1022,1765903537106,-1634,7062,-872,0,0,0,0,0
1023,1765903537590,-1058,8230,-1159,0,0,0,0,0
1024,1765903537806,-881,7626,-758,0,0,0,0,0
1025,1765903538487,-272,8922,-1182,0,0,0,0,0
1026,1765903538922,253,8953,68,0,0,0,0,0
1027,1765903539321,-126,9213,630,0,0,0,0,0
1028,1765903540704,596,7673,548,0,0,0,0,0
1029,1765903541622,915,10139,223,0,0,0,0,0
1030,1765903541871,139,8812,471,0,0,0,0,0
1031,1765903541958,-2765,7873,-310,0,0,0,0,0
1032,1765903542223,-3198,8160,-32,0,0,0,0,0
1033,1765903542571,-1288,8250,361,0,0,0,0,0
1034,1765903542920,-543,7421,252,0,0,0,0,0
1035,1765903543840,3082,8140,-976,0,0,0,0,0
1036,1765903544759,5398,7316,-1708,0,0,0,0,0
1037,1765903545688,3129,9102,-1608,0,0,0,0,0
1038,1765903546004,2944,7881,-1668,0,0,0,0,0
1039,1765903552022,-2897,8720,-1199,0,0,0,0,0
1040,1765903552305,-2623,8341,-860,0,0,0,0,0
1041,1765903552538,-2362,8211,-798,0,0,0,0,0
1042,1765903553891,-1353,9197,1305,0,0,0,0,0
1043,1765903555154,-3888,7964,-16,0,0,0,0,0
1044,1765903555390,-2435,9192,110,0,0,0,0,0
1045,1765903555621,-1894,8257,285,0,0,0,0,0
1046,1765903555654,-4694,8798,-474,0,0,0,0,0
1047,1765903555971,-3869,7657,-158,0,0,0,0,0
1048,1765903556220,-2922,8679,362,0,0,0,0,0
1049,1765903556721,-2229,9094,758,0,0,0,0,0
1050,1765903556789,-3102,8164,650,0,0,0,0,0
1051,1765903557173,-1236,8340,1014,0,0,0,0,0
1052,1765903557440,-1535,8218,830,0,0,0,0,0
1053,1765903558105,-2670,7048,142,0,0,0,0,0
1054,1765903559504,-1550,8692,1311,0,0,0,0,0
1055,1765903559555,-1769,8687,345,0,0,0,0,0
1056,1765903559854,-2298,8540,1188,0,0,0,0,0
1057,1765903560055,-1903,8653,655,0,0,0,0,0
1058,1765903560988,-1449,7312,-567,0,0,0,0,0
1059,1765903561203,-1795,8008,-752,0,0,0,0,0
1060,1765903562087,-1822,9015,-772,0,0,0,0,0
1061,1765903563972,-5424,7352,-1098,0,0,0,0,0
1062,1765903565520,-6986,8652,-1432,0,0,0,0,0
1063,1765903566287,-3932,7824,-628,0,0,0,0,0
1064,1765903566571,-3997,8981,-910,0,0,0,0,0
1065,1765903566839,-1398,8386,11,0,0,0,0,0
1066,1765903566875,-2088,7565,-446,0,0,0,0,0
1067,1765903567887,-551,8703,-2561,0,0,0,0,0
1068,1765903568386,-1253,8752,-1628,0,0,0,0,0
1069,1765903570570,-939,8706,-1672,0,0,0,0,0
1070,1765903572704,-329,8216,-434,0,0,0,0,0
1071,1765903575305,-266,8321,-358,0,0,0,0,0
1072,1765903577171,-251,8340,-369,0,0,0,0,0
1073,1765903579304,-275,8260,-339,0,0,0,0,0
1074,1765903580105,-260,8335,-342,0,0,0,0,0
1075,1765903581306,-244,8319,-359,0,0,0,0,0
1076,1765903582253,-244,8321,-353,0,0,0,0,0
1077,1765903583455,-248,8340,-386,0,0,0,0,0
1078,1765903583636,-251,8330,-381,0,0,0,0,0
1079,1765903583737,-247,8338,-359,0,0,0,0,0
1080,1765904350578,-188,8409,-385,0,0,0,0,0
1081,1765904350727,-273,8246,-358,0,0,0,0,0
1082,1765904350811,-265,8381,-362,0,0,0,0,0
1083,1765904350978,-175,8398,-350,0,0,0,0,0
1084,1765904351028,-184,8288,-355,0,0,0,0,0
1085,1765904351228,-328,8311,-348,0,0,0,0,0
1086,1765904351262,-260,8388,-356,0,0,0,0,0
1087,1765904351460,-178,8342,-367,0,0,0,0,0
1088,1765904351511,-254,8341,-364,0,0,0,0,0
1089,1765904352361,-240,8352,-349,0,0,0,0,0
1090,1765904353460,-242,8345,-350,0,0,0,0,0
1091,1765904353828,-248,8358,-337,0,0,0,0,0
1092,1765904353996,-236,8357,-353,0,0,0,0,0
1093,1765904355644,-225,8344,-354,0,0,0,0,0
1094,1765904357478,-231,8348,-340,0,0,0,0,0
1095,1765904358727,-235,8335,-346,0,0,0,0,0
1096,1765904358861,-256,8356,-355,0,0,0,0,0
1097,1765904359111,-234,8369,-345,0,0,0,0,0
1098,1765904359711,-247,8353,-340,0,0,0,0,0
1099,1765904360161,-246,8351,-342,0,0,0,0,0
1100,1765904360425,-234,8344,-353,0,0,0,0,0
1101,1765904362711,-245,8340,-340,0,0,0,0,0
1102,1765904365994,-244,8345,-353,0,0,0,0,0
1103,1765904366244,-238,8344,-352,0,0,0,0,0
1104,1765904366844,-241,8342,-363,0,0,0,0,0
1105,1765904367761,-237,8360,-336,0,0,0,0,0
1106,1765904367878,-238,8348,-348,0,0,0,0,0
1107,1765904369544,-248,8344,-356,0,0,0,0,0
1108,1765904370427,-232,8346,-325,0,0,0,0,0
1109,1765904370810,-225,8350,-362,0,0,0,0,0
1110,1765904370960,-235,8359,-343,0,0,0,0,0
1111,1765904371310,-244,8310,-366,0,0,0,0,0
1112,1765904372927,-274,8344,-348,0,0,0,0,0
1113,1765904374143,-223,8319,-326,0,0,0,0,0
1114,1765904375476,-280,8353,92,0,0,0,0,0
1115,1765904375476,-39,8474,526,0,0,0,0,0
1116,1765904375493,-142,8476,42,0,0,0,0,0
1117,1765904375510,-126,8419,106,0,0,0,0,0
1118,1765904375777,-138,8382,-77,0,0,0,0,0
1119,1765904377194,-242,8583,25,0,0,0,0,0
1120,1765904378078,-228,8563,156,0,0,0,0,0
1121,1765904379393,160,7626,-96,0,0,0,0,0
1122,1765904379610,-233,8178,204,0,0,0,0,0
1123,1765904379960,-83,7958,234,0,0,0,0,0
1124,1765904380177,-230,9068,335,0,0,0,0,0
1125,1765904380644,-252,8198,-302,0,0,0,0,0
1126,1765904383177,-532,7602,-258,0,0,0,0,0
1127,1765904383393,16,8197,-262,0,0,0,0,0
1128,1765904386510,-356,8641,-111,0,0,0,0,0
1129,1765904386694,-254,8130,-217,0,0,0,0,0
1130,1765904386827,-592,7586,-86,0,0,0,0,0
1131,1765904387111,-776,7562,-182,0,0,0,0,0
1132,1765904388260,-444,8491,233,0,0,0,0,0
1133,1765904389678,-780,8065,-906,0,0,0,0,0
1134,1765904390876,-952,8510,-427,0,0,0,0,0
1135,1765904391127,-1484,9719,-815,0,0,0,0,0
1136,1765904391444,-710,8332,-142,0,0,0,0,0
1137,1765904393260,541,8409,-264,0,0,0,0,0
1138,1765904394310,1075,8618,-943,0,0,0,0,0
1139,1765904394578,1118,8418,-793,0,0,0,0,0
1140,1765904397041,-1611,7578,-562,0,0,0,0,0
1141,1765904397293,-1830,8314,-733,0,0,0,0,0
1142,1765904398227,150,8704,-88,0,0,0,0,0
1143,1765904399926,461,7936,-917,0,0,0,0,0
1144,1765904400194,-70,8185,-613,0,0,0,0,0
1145,1765904400710,-941,8274,-455,0,0,0,0,0
1146,1765904400976,411,8100,-629,0,0,0,0,0
1147,1765904401293,-322,8280,-591,0,0,0,0,0
1148,1765904401377,-523,8259,-778,0,0,0,0,0
1149,1765904405026,-262,8082,-655,0,0,0,0,0
1150,1765904405360,-357,8658,-899,0,0,0,0,0
1151,1765904405810,-388,8285,-954,0,0,0,0,0
1152,1765904406159,-448,8228,-1004,0,0,0,0,0
1153,1765904406543,-464,8327,-953,0,0,0,0,0
1154,1765904406744,-398,8294,-610,0,0,0,0,0
1155,1765904407011,-368,8326,-371,0,0,0,0,0
1156,1765904408040,-335,8387,-296,0,0,0,0,0
1157,1765904408060,-289,8395,-238,0,0,0,0,0
1158,1765904408209,-274,8314,-237,0,0,0,0,0
1159,1765904408476,-314,8351,-245,0,0,0,0,0
1160,1765904411610,-396,8310,-320,0,0,0,0,0
1161,1765904413477,-422,8268,-376,0,0,0,0,0
1162,1765904416410,-451,8262,-164,0,0,0,0,0
1163,1765904416660,-420,8469,-229,0,0,0,0,0
1164,1765904419427,-243,8618,-238,0,0,0,0,0
1165,1765904419627,-270,8348,-305,0,0,0,0,0
1166,1765904424060,-298,8314,-341,0,0,0,0,0
1167,1765904424377,-354,8343,-404,0,0,0,0,0
1168,1765904426242,-312,8317,-238,0,0,0,0,0
1169,1765904426610,-345,8357,-221,0,0,0,0,0
1170,1765904428242,-127,8072,-166,0,0,0,0,0
1171,1765904428724,-299,8457,-350,0,0,0,0,0
1172,1765904429143,-261,8518,-318,0,0,0,0,0
1173,1765904430358,-207,8048,-512,0,0,0,0,0
1174,1765904431909,-279,7935,-700,0,0,0,0,0
1175,1765904432091,-260,8304,-672,0,0,0,0,0
1176,1765904432342,-448,8437,-806,0,0,0,0,0
1177,1765904433726,-253,8241,-764,0,0,0,0,0
1178,1765904434497,-289,8314,-713,0,0,0,0,0
1179,1765904434810,-376,8224,-633,0,0,0,0,0
1180,1765904435792,-204,8292,-602,0,0,0,0,0
1181,1765904438925,-343,8322,-463,0,0,0,0,0
1182,1765904439808,-289,8336,-350,0,0,0,0,0
1183,1765904440393,-296,8271,-372,0,0,0,0,0
1184,1765904440974,-310,8351,-390,0,0,0,0,0
1185,1765904440991,-269,8247,-302,0,0,0,0,0
1186,1765904443676,-138,8442,-200,0,0,0,0,0
1187,1765904443910,-147,8326,-249,0,0,0,0,0
1188,1765904443959,-81,8428,-226,0,0,0,0,0
1189,1765904444230,-145,8398,-125,0,0,0,0,0
1190,1765904444292,47,8336,-79,0,0,0,0,0
1191,1765904445324,33,8416,-526,0,0,0,0,0
1192,1765904445742,-37,8212,-299,0,0,0,0,0
1193,1765904447642,-322,8353,-383,0,0,0,0,0
1194,1765904447910,-161,8228,-403,0,0,0,0,0
1195,1765904453042,-314,8324,-410,0,0,0,0,0
1196,1765904454593,-312,8322,-448,0,0,0,0,0
1197,1765904457125,-330,8311,-428,0,0,0,0,0
1198,1765904457309,-315,8334,-372,0,0,0,0,0
1199,1765904457593,-310,8336,-465,0,0,0,0,0
1200,1765904460525,-242,8377,-474,0,0,0,0,0
1201,1765904460926,-337,8198,-652,0,0,0,0,0
