index,date,GYRO_X,GYRO_Y,GYRO_Z,1,2,3,4,5
0,1765902320951,5,25,5,0,0,0,0,0
1,1765902321468,-5,29,4,0,0,0,0,0
2,1765902321586,-2,74,7,0,0,0,0,0
3,1765902322685,-17,259,-19,0,0,0,0,0
4,1765902323718,-33,197,15,0,0,0,0,0
5,1765902324305,-60,249,23,0,0,0,0,0
6,1765902326702,-74,295,8,0,0,0,0,0
7,1765902328702,39,-140,-18,0,0,0,0,0
8,1765902329219,-42,-279,-71,0,0,0,0,0
9,1765902330736,34,-363,43,0,0,0,0,0
10,1765902330918,-19,-310,46,0,0,0,0,0
11,1765902331218,33,-270,25,0,0,0,0,0
12,1765902331553,-87,-151,-3,0,0,0,0,0
13,1765902332002,-3,-110,1,0,0,0,0,0
14,1765902332302,-21,-67,7,0,0,0,0,0
15,1765902332601,-26,-37,-56,0,0,0,0,0
16,1765902332885,-31,-32,-21,0,0,0,0,0
17,1765902333217,-11,-16,53,0,0,0,0,0
18,1765902333352,-21,-25,-11,0,0,0,0,0
19,1765902333618,12,-20,-21,0,0,0,0,0
20,1765902334201,-23,-19,58,0,0,0,0,0
21,1765902336585,42,-57,26,0,0,0,0,0
22,1765902336735,-18,-46,-21,0,0,0,0,0
23,1765902337818,1,-124,28,0,0,0,0,0
24,1765902337885,-28,-114,-31,0,0,0,0,0
25,1765902338102,104,-52,44,0,0,0,0,0
26,1765902341152,-23,-345,50,0,0,0,0,0
27,1765902342001,-31,-373,18,0,0,0,0,0
28,1765902346367,-16,-37,14,0,0,0,0,0
29,1765902349835,-74,28,-7,0,0,0,0,0
30,1765902351201,-54,-61,30,0,0,0,0,0
31,1765902351585,8,-252,4,0,0,0,0,0
32,1765902351835,49,-418,15,0,0,0,0,0
33,1765902352253,22,-178,47,0,0,0,0,0
34,1765902354451,13,-431,140,0,0,0,0,0
35,1765902360573,53,-411,106,0,0,0,0,0
36,1765902361702,2,272,-5,0,0,0,0,0
37,1765902362504,53,-498,44,0,0,0,0,0
38,1765902362951,17,-453,-18,0,0,0,0,0
39,1765902363918,-12,561,-19,0,0,0,0,0
40,1765902364202,-32,469,-1,0,0,0,0,0
41,1765902364501,8,182,-92,0,0,0,0,0
42,1765902364718,24,-106,-36,0,0,0,0,0
43,1765902365018,12,-212,-23,0,0,0,0,0
44,1765902365517,-37,-156,0,0,0,0,0,0
45,1765902365784,47,-70,-20,0,0,0,0,0
46,1765902366154,-43,167,-4,0,0,0,0,0
47,1765902366817,-27,388,3,0,0,0,0,0
48,1765902367383,16,541,20,0,0,0,0,0
49,1765902368036,-46,655,65,0,0,0,0,0
50,1765902368085,-58,605,-266,0,0,0,0,0
51,1765902368485,-128,574,-3,0,0,0,0,0
52,1765902369851,14,633,14,0,0,0,0,0
53,1765902370919,-21,697,-58,0,0,0,0,0
54,1765902371821,-33,148,-2,0,0,0,0,0
55,1765902372951,-33,-117,-7,0,0,0,0,0
56,1765902375088,-19,-311,13,0,0,0,0,0
57,1765902375769,40,-485,34,0,0,0,0,0
58,1765902376586,82,-369,34,0,0,0,0,0
59,1765902377036,-12,-376,12,0,0,0,0,0
60,1765902378402,-52,-583,135,0,0,0,0,0
61,1765902379119,29,-618,-10,0,0,0,0,0
62,1765902379134,56,-519,-15,0,0,0,0,0
63,1765902379416,28,-363,56,0,0,0,0,0
64,1765902379751,37,-327,8,0,0,0,0,0
65,1765902379868,31,-278,15,0,0,0,0,0
66,1765902380468,15,-113,14,0,0,0,0,0
67,1765902387386,-7,-610,66,0,0,0,0,0
68,1765902387618,119,-669,5,0,0,0,0,0
69,1765902387667,44,-678,95,0,0,0,0,0
70,1765902387918,18,-663,-14,0,0,0,0,0
71,1765902388319,-75,-181,62,0,0,0,0,0
72,1765902388635,29,-419,84,0,0,0,0,0
73,1765902388754,-17,-464,-14,0,0,0,0,0
74,1765902388869,-12,-487,47,0,0,0,0,0
75,1765902388934,21,-521,59,0,0,0,0,0
76,1765902389217,18,-552,23,0,0,0,0,0
77,1765902389352,70,-517,54,0,0,0,0,0
78,1765902389721,105,-504,31,0,0,0,0,0
79,1765902390571,-36,-202,-63,0,0,0,0,0
80,1765902390949,6,-143,6,0,0,0,0,0
81,1765902391918,41,-53,-17,0,0,0,0,0
82,1765902392183,30,-119,-31,0,0,0,0,0
83,1765902392433,6,-107,10,0,0,0,0,0
84,1765902392518,-18,-68,13,0,0,0,0,0
85,1765902393000,7,-123,9,0,0,0,0,0
86,1765902394202,-19,-9,20,0,0,0,0,0
87,1765902394450,21,25,28,0,0,0,0,0
88,1765902394585,26,-244,-45,0,0,0,0,0
89,1765902395185,38,52,32,0,0,0,0,0
90,1765902395519,-54,22,-3,0,0,0,0,0
91,1765902396085,-80,-11,-10,0,0,0,0,0
92,1765902396352,-34,-35,-2,0,0,0,0,0
93,1765902396668,112,-39,20,0,0,0,0,0
94,1765902397552,16,-276,49,0,0,0,0,0
95,1765902399036,-26,600,-49,0,0,0,0,0
96,1765902399602,10,-573,43,0,0,0,0,0
97,1765902399852,37,-567,-29,0,0,0,0,0
98,1765902403635,-25,-439,-16,0,0,0,0,0
99,1765902406852,-35,553,-66,0,0,0,0,0
100,1765902409152,17,286,8,0,0,0,0,0
101,1765902410851,0,-274,19,0,0,0,0,0
102,1765902411036,48,-239,26,0,0,0,0,0
103,1765902411451,48,87,-10,0,0,0,0,0
104,1765902412519,-34,486,15,0,0,0,0,0
105,1765902413468,8,758,88,0,0,0,0,0
106,1765902414152,-24,676,-16,0,0,0,0,0
107,1765902414685,-76,703,-63,0,0,0,0,0
108,1765902414886,-46,688,-52,0,0,0,0,0
109,1765902414952,-49,721,-120,0,0,0,0,0
110,1765902415218,-56,699,-46,0,0,0,0,0
111,1765902415402,-11,434,-76,0,0,0,0,0
112,1765902415669,5,-88,-15,0,0,0,0,0
113,1765902415935,-3,-142,41,0,0,0,0,0
114,1765902416368,-41,-163,-31,0,0,0,0,0
115,1765902416602,-9,350,13,0,0,0,0,0
116,1765902416718,-1,601,-14,0,0,0,0,0
117,1765902416885,-49,854,-81,0,0,0,0,0
118,1765902417085,-67,869,-88,0,0,0,0,0
119,1765902417585,-8,-250,-41,0,0,0,0,0
120,1765902417652,91,-494,-1,0,0,0,0,0
121,1765902417902,28,-691,-1,0,0,0,0,0
122,1765902420135,-56,-450,-14,0,0,0,0,0
123,1765902421785,29,-253,18,0,0,0,0,0
124,1765902421902,-86,-301,-86,0,0,0,0,0
125,1765902422168,71,-311,12,0,0,0,0,0
126,1765902422335,113,-333,-101,0,0,0,0,0
127,1765902422519,67,-351,11,0,0,0,0,0
128,1765902422685,47,-344,3,0,0,0,0,0
129,1765902423252,33,-354,-15,0,0,0,0,0
130,1765902427552,79,-31,28,0,0,0,0,0
131,1765902432135,60,-15,-14,0,0,0,0,0
132,1765902432985,-37,-46,-5,0,0,0,0,0
133,1765902433368,27,-167,28,0,0,0,0,0
134,1765902435418,-26,378,-45,0,0,0,0,0
135,1765902438385,80,-67,6,0,0,0,0,0
136,1765902441235,2,4,38,0,0,0,0,0
137,1765902441935,-82,14,13,0,0,0,0,0
138,1765902442702,-104,31,51,0,0,0,0,0
139,1765902443468,35,12,-51,0,0,0,0,0
140,1765902445069,2,-62,23,0,0,0,0,0
141,1765902446468,-52,451,254,0,0,0,0,0
142,1765902446718,9,462,1,0,0,0,0,0
143,1765902447935,-214,-360,-11,0,0,0,0,0
144,1765902448451,55,-479,-7,0,0,0,0,0
145,1765902449185,24,192,26,0,0,0,0,0
146,1765902449350,-1,231,3,0,0,0,0,0
147,1765902449802,-1,-137,45,0,0,0,0,0
148,1765902450067,-16,-183,-2,0,0,0,0,0
149,1765902450382,-29,-355,-40,0,0,0,0,0
150,1765902451067,6,-308,60,0,0,0,0,0
151,1765902451333,19,-383,16,0,0,0,0,0
152,1765902451751,27,-419,-14,0,0,0,0,0
153,1765902452033,66,-437,47,0,0,0,0,0
154,1765902452100,-19,-430,15,0,0,0,0,0
155,1765902452233,15,-434,46,0,0,0,0,0
156,1765902452650,32,-387,38,0,0,0,0,0
157,1765902452967,112,-533,-30,0,0,0,0,0
158,1765902453349,-144,-688,-26,0,0,0,0,0
159,1765902453734,85,-505,-115,0,0,0,0,0
160,1765902453983,14,-582,68,0,0,0,0,0
161,1765902454319,-28,-645,67,0,0,0,0,0
162,1765902455418,-11,431,-41,0,0,0,0,0
163,1765902456569,56,-307,-44,0,0,0,0,0
164,1765902456851,52,-474,-25,0,0,0,0,0
165,1765902459368,-31,-146,51,0,0,0,0,0
166,1765902459768,32,205,-16,0,0,0,0,0
167,1765902459935,-1,278,17,0,0,0,0,0
168,1765902460252,-23,443,-34,0,0,0,0,0
169,1765902460717,-77,594,-46,0,0,0,0,0
170,1765902460985,105,633,-228,0,0,0,0,0
171,1765902463601,-44,463,-96,0,0,0,0,0
172,1765902463835,5,-177,-43,0,0,0,0,0
173,1765902464069,13,-405,37,0,0,0,0,0
174,1765902465735,-85,302,-72,0,0,0,0,0
175,1765902466068,30,-479,21,0,0,0,0,0
176,1765902466502,58,-670,44,0,0,0,0,0
177,1765902466551,27,-717,49,0,0,0,0,0
178,1765902466802,42,-736,34,0,0,0,0,0
179,1765902467885,-46,-814,-47,0,0,0,0,0
180,1765902468451,27,-369,-24,0,0,0,0,0
181,1765902470902,-11,-229,30,0,0,0,0,0
182,1765902471269,13,-72,-44,0,0,0,0,0
183,1765902471449,9,-56,-15,0,0,0,0,0
184,1765902471684,-58,-59,-48,0,0,0,0,0
185,1765902472567,-14,-75,25,0,0,0,0,0
186,1765902472784,-22,-66,5,0,0,0,0,0
187,1765902472883,3,-100,65,0,0,0,0,0
188,1765902473267,9,-206,-106,0,0,0,0,0
189,1765902473533,-3106,-2517,21,0,0,0,0,0
190,1765902473951,-9,-95,-84,0,0,0,0,0
191,1765902474302,-15,-122,11,0,0,0,0,0
192,1765902474336,66,-112,16,0,0,0,0,0
193,1765902474901,81,-101,-64,0,0,0,0,0
194,1765902475419,8,-46,4,0,0,0,0,0
195,1765902475700,40,-129,8,0,0,0,0,0
196,1765902476117,-45,-257,54,0,0,0,0,0
197,1765902476518,-57,-644,-154,0,0,0,0,0
198,1765902476635,-41,-797,40,0,0,0,0,0
199,1765902476902,96,-1012,16,0,0,0,0,0
200,1765902477368,-31,-966,231,0,0,0,0,0
201,1765902479919,-1,-26,64,0,0,0,0,0
202,1765902480034,-55,-50,17,0,0,0,0,0
203,1765902480852,-32,-143,75,0,0,0,0,0
204,1765902480901,-36,-129,4,0,0,0,0,0
205,1765902481350,32754,-35,229,0,0,0,0,0
206,1765902481901,14,-32,22,0,0,0,0,0
207,1765902482768,-49,-172,57,0,0,0,0,0
208,1765902483051,25,-58,23,0,0,0,0,0
209,1765902485306,-85,-24,-33,0,0,0,0,0
210,1765902487784,11,-141,78,0,0,0,0,0
211,1765902488668,-5,598,-21,0,0,0,0,0
212,1765902488885,-19,489,44,0,0,0,0,0
213,1765902489268,15,-118,-21,0,0,0,0,0
214,1765902493634,72,-269,29,0,0,0,0,0
215,1765902493767,-5,-258,-2,0,0,0,0,0
216,1765902494017,-22,-229,17,0,0,0,0,0
217,1765902495184,-15,-186,-11,0,0,0,0,0
218,1765902496276,-5,-183,-16,0,0,0,0,0
219,1765902496552,22,-226,25,0,0,0,0,0
220,1765902499684,-5,-100,-13,0,0,0,0,0
221,1765902500334,-5,-61,19,0,0,0,0,0
222,1765902500700,17,-39,13,0,0,0,0,0
223,1765902500935,18,-37,14,0,0,0,0,0
224,1765902501118,-1,-47,-6,0,0,0,0,0
225,1765902501385,16,-53,13,0,0,0,0,0
226,1765902502052,-28,-78,-6,0,0,0,0,0
227,1765902502252,-2,-98,3,0,0,0,0,0
228,1765902504101,-6,-1,-3,0,0,0,0,0
229,1765902505951,-7,11,0,0,0,0,0,0
230,1765902507085,-7,10,0,0,0,0,0,0
231,1765902507134,-6,12,2,0,0,0,0,0
232,1765902507386,-7,11,2,0,0,0,0,0
233,1765902507885,-6,11,1,0,0,0,0,0
234,1765902508002,-8,11,1,0,0,0,0,0
235,1765902508350,-6,12,2,0,0,0,0,0
236,1765902508519,-8,12,2,0,0,0,0,0
237,1765902508702,-7,12,1,0,0,0,0,0
238,1765902509151,-7,13,0,0,0,0,0,0
239,1765902510218,-9,13,1,0,0,0,0,0
240,1765902510750,-6,12,0,0,0,0,0,0
241,1765902511168,-6,13,2,0,0,0,0,0
242,1765902511237,-8,11,0,0,0,0,0,0
243,1765902512202,-6,12,0,0,0,0,0,0
244,1765902512501,-7,12,1,0,0,0,0,0
245,1765902512984,-6,12,3,0,0,0,0,0
246,1765902513418,-7,12,1,0,0,0,0,0
247,1765902514251,-7,12,0,0,0,0,0,0
248,1765902515935,-7,14,2,0,0,0,0,0
249,1765902516201,-7,13,0,0,0,0,0,0
250,1765902516536,-6,12,1,0,0,0,0,0
251,1765902516601,-6,12,1,0,0,0,0,0
252,1765902519700,-7,11,1,0,0,0,0,0
253,1765902520802,-7,10,2,0,0,0,0,0
254,1765902521167,-8,13,1,0,0,0,0,0
255,1765902521401,-6,11,2,0,0,0,0,0
256,1765902521967,-8,11,2,0,0,0,0,0
257,1765902524035,-5,12,1,0,0,0,0,0
258,1765902524367,-6,12,1,0,0,0,0,0
259,1765902524467,-7,12,1,0,0,0,0,0
260,1765902524684,-8,11,1,0,0,0,0,0
261,1765902527919,-7,11,2,0,0,0,0,0
262,1765902527952,-3,11,1,0,0,0,0,0
263,1765902528151,-10,14,3,0,0,0,0,0
264,1765902528301,-4,12,0,0,0,0,0,0
265,1765902528617,-8,12,0,0,0,0,0,0
266,1765902528867,-8,13,1,0,0,0,0,0
267,1765902530984,-8,12,0,0,0,0,0,0
268,1765902531233,-7,12,1,0,0,0,0,0
269,1765902531633,-7,12,0,0,0,0,0,0
270,1765902532768,-8,11,-1,0,0,0,0,0
271,1765902534718,-10,13,3,0,0,0,0,0
272,1765902535100,-8,13,4,0,0,0,0,0
273,1765902538918,-10,9,1,0,0,0,0,0
274,1765902540195,-9,12,2,0,0,0,0,0
275,1765902543651,-6,11,1,0,0,0,0,0
276,1765902543835,-6,12,1,0,0,0,0,0
277,1765902544100,-8,13,2,0,0,0,0,0
278,1765902544767,-9,12,0,0,0,0,0,0
279,1765902545133,-7,11,0,0,0,0,0,0
280,1765902545183,-7,11,0,0,0,0,0,0
281,1765902545434,-8,12,1,0,0,0,0,0
282,1765902545515,-6,13,1,0,0,0,0,0
283,1765902547000,5,15,-3,0,0,0,0,0
284,1765902549048,-7,14,2,0,0,0,0,0
285,1765902549317,-5,11,-1,0,0,0,0,0
286,1765902550200,-8,10,1,0,0,0,0,0
287,1765902551302,-6,12,1,0,0,0,0,0
288,1765902551732,-7,11,0,0,0,0,0,0
289,1765902552101,-7,11,1,0,0,0,0,0
290,1765902552400,-6,13,1,0,0,0,0,0
291,1765902555350,-8,12,1,0,0,0,0,0
292,1765902555935,-6,11,0,0,0,0,0,0
293,1765902556185,-8,11,1,0,0,0,0,0
294,1765902556250,-7,12,2,0,0,0,0,0
295,1765902556585,-7,13,1,0,0,0,0,0
296,1765902557018,-9,13,2,0,0,0,0,0
297,1765902557400,-9,12,0,0,0,0,0,0
298,1765902558883,-8,12,1,0,0,0,0,0
299,1765902559783,-7,12,1,0,0,0,0,0
300,1765902560584,-10,13,0,0,0,0,0,0
301,1765902561418,-7,12,2,0,0,0,0,0
302,1765902561584,-8,12,2,0,0,0,0,0
303,1765902561750,-7,12,2,0,0,0,0,0
304,1765902561952,-8,12,1,0,0,0,0,0
305,1765902562352,-7,12,1,0,0,0,0,0
306,1765902562566,-6,11,1,0,0,0,0,0
307,1765902562686,-8,14,0,0,0,0,0,0
308,1765902562802,-7,12,1,0,0,0,0,0
309,1765902563034,-6,12,2,0,0,0,0,0
310,1765902563216,-8,12,1,0,0,0,0,0
311,1765902563817,-8,12,1,0,0,0,0,0
312,1765902564316,-6,12,1,0,0,0,0,0
313,1765902564535,-7,12,0,0,0,0,0,0
314,1765902564935,-7,12,1,0,0,0,0,0
315,1765902565082,-5,10,2,0,0,0,0,0
316,1765902565401,-7,13,1,0,0,0,0,0
317,1765902565732,-8,14,1,0,0,0,0,0
318,1765902565984,-6,12,2,0,0,0,0,0
319,1765902566434,-9,11,1,0,0,0,0,0
320,1765902566817,-6,12,1,0,0,0,0,0
321,1765902567133,-8,13,1,0,0,0,0,0
322,1765902567317,-7,12,1,0,0,0,0,0
323,1765902567816,-4,12,1,0,0,0,0,0
324,1765902568567,-6,12,1,0,0,0,0,0
325,1765902568934,-7,12,1,0,0,0,0,0
326,1765902570733,-9,-52,5,0,0,0,0,0
327,1765902570932,0,-74,12,0,0,0,0,0
328,1765902571215,0,-100,15,0,0,0,0,0
329,1765902571500,13,-138,-7,0,0,0,0,0
330,1765902571817,36,-178,39,0,0,0,0,0
331,1765902573149,-12,-95,21,0,0,0,0,0
332,1765902573366,54,-33,19,0,0,0,0,0
333,1765902573749,28,105,8,0,0,0,0,0
334,1765902575215,-36,-16,-4,0,0,0,0,0
335,1765902576449,28,33,-17,0,0,0,0,0
336,1765902577618,15,37,-4,0,0,0,0,0
337,1765902577782,41,25,32,0,0,0,0,0
338,1765902578098,2,6,57,0,0,0,0,0
339,1765902581099,-76,570,-10,0,0,0,0,0
340,1765902582883,-8,555,15,0,0,0,0,0
341,1765902583467,3,113,-15,0,0,0,0,0
342,1765902585033,-29,14,-97,0,0,0,0,0
343,1765902585284,-10,-267,-11,0,0,0,0,0
344,1765902585384,42,-425,92,0,0,0,0,0
345,1765902585617,99,-645,181,0,0,0,0,0
346,1765902586050,-64,-855,-253,0,0,0,0,0
347,1765902586117,115,-849,-23,0,0,0,0,0
348,1765902586633,-51,-531,-120,0,0,0,0,0
349,1765902586834,33,-692,66,0,0,0,0,0
350,1765902587216,-41,-568,136,0,0,0,0,0
351,1765902589033,-22,-545,36,0,0,0,0,0
352,1765902589233,-8,-552,35,0,0,0,0,0
353,1765902590151,15,-282,16,0,0,0,0,0
354,1765902591668,-69,-66,-19,0,0,0,0,0
355,1765902594616,83,-73,58,0,0,0,0,0
356,1765902596251,-78,-375,-110,0,0,0,0,0
357,1765902597433,-80,1,169,0,0,0,0,0
358,1765902597698,71,-480,-2080,0,0,0,0,0
359,1765902598383,40,-158,-1,0,0,0,0,0
360,1765902598651,31,292,64,0,0,0,0,0
361,1765902599466,-3,-250,-15,0,0,0,0,0
362,1765902600732,-141,16,-12,0,0,0,0,0
363,1765902601134,-3,-28,-29,0,0,0,0,0
364,1765902602485,84,-14,99,0,0,0,0,0
365,1765902604882,-45,34,2,0,0,0,0,0
366,1765902605166,-88,3,5,0,0,0,0,0
367,1765902605416,39,-5,13,0,0,0,0,0
368,1765902605568,-24,-80,-2,0,0,0,0,0
369,1765902605884,40,-155,-39,0,0,0,0,0
370,1765902609085,7,-93,-21,0,0,0,0,0
371,1765902612417,38,-342,34,0,0,0,0,0
372,1765902613916,36,-680,-10,0,0,0,0,0
373,1765902615132,-58,371,-13,0,0,0,0,0
374,1765902617783,-48,477,-5,0,0,0,0,0
375,1765902618266,23,377,-98,0,0,0,0,0
376,1765902618450,-2,-78,-108,0,0,0,0,0
377,1765902618784,43,-301,-14,0,0,0,0,0
378,1765902619051,-8,-305,22,0,0,0,0,0
379,1765902622634,-59,697,-101,0,0,0,0,0
380,1765902622866,-5,673,-38,0,0,0,0,0
381,1765902623034,24,616,2,0,0,0,0,0
382,1765902623419,-2,809,-25,0,0,0,0,0
383,1765902623649,-68,777,-80,0,0,0,0,0
384,1765902624148,44,-474,11,0,0,0,0,0
385,1765902625017,48,622,-26,0,0,0,0,0
386,1765902625281,30,717,-52,0,0,0,0,0
387,1765902626166,-64,-720,103,0,0,0,0,0
388,1765902632699,-80,-84,24,0,0,0,0,0
389,1765902633032,-70,-129,85,0,0,0,0,0
390,1765902633214,13,-115,-33,0,0,0,0,0
391,1765902633666,6,-132,-77,0,0,0,0,0
392,1765902633814,-17,-127,-28,0,0,0,0,0
393,1765902633982,9,-127,59,0,0,0,0,0
394,1765902634517,-31,-109,-3,0,0,0,0,0
395,1765902634834,-54,-66,47,0,0,0,0,0
396,1765902635333,22,-73,29,0,0,0,0,0
397,1765902635582,-22,-49,-12,0,0,0,0,0
398,1765902635750,1,-66,32,0,0,0,0,0
399,1765902635782,14,-92,26,0,0,0,0,0
400,1765902636116,-87,-165,-24,0,0,0,0,0
401,1765902636449,-33,-280,85,0,0,0,0,0
402,1765902636865,42,-687,-6,0,0,0,0,0
403,1765902637083,27,-737,7,0,0,0,0,0
404,1765902637166,74,-701,1,0,0,0,0,0
405,1765902638249,83,-739,-20,0,0,0,0,0
406,1765902638684,-61,-723,55,0,0,0,0,0
407,1765902640300,2,-107,47,0,0,0,0,0
408,1765902640549,-162,-90,70,0,0,0,0,0
409,1765902640898,-8,-50,13,0,0,0,0,0
410,1765902641249,38,-38,-5,0,0,0,0,0
411,1765902641634,-2,-2,-12,0,0,0,0,0
412,1765902641800,21,-1,1,0,0,0,0,0
413,1765902641982,-23,25,30,0,0,0,0,0
414,1765902642250,-63,-4,-19,0,0,0,0,0
415,1765902642534,-34,-3,36,0,0,0,0,0
416,1765902642800,-61,5,39,0,0,0,0,0
417,1765902643616,-49,51,28,0,0,0,0,0
418,1765902645533,28,-4,-4,0,0,0,0,0
419,1765902646149,-48,-34,29,0,0,0,0,0
420,1765902647533,13,527,-39,0,0,0,0,0
421,1765902647749,-31,539,12,0,0,0,0,0
422,1765902648249,-22,432,-34,0,0,0,0,0
423,1765902648298,-39,403,-89,0,0,0,0,0
424,1765902648601,9,-404,45,0,0,0,0,0
425,1765902648748,62,-432,-26,0,0,0,0,0
426,1765902649747,74,94,2,0,0,0,0,0
427,1765902651101,-42,-645,124,0,0,0,0,0
428,1765902651317,97,-603,56,0,0,0,0,0
429,1765902651666,76,-376,139,0,0,0,0,0
430,1765902652232,89,-365,2,0,0,0,0,0
431,1765902652632,52,-461,-48,0,0,0,0,0
432,1765902653552,37,-480,81,0,0,0,0,0
433,1765902654016,52,-356,114,0,0,0,0,0
434,1765902654133,-50,-391,85,0,0,0,0,0
435,1765902654432,122,-756,83,0,0,0,0,0
436,1765902654732,67,-769,-30,0,0,0,0,0
437,1765902654983,-2,-794,14,0,0,0,0,0
438,1765902655166,15,-791,15,0,0,0,0,0
439,1765902655550,17,-174,78,0,0,0,0,0
440,1765902655798,5,154,28,0,0,0,0,0
441,1765902656132,14,368,11,0,0,0,0,0
442,1765902656332,-75,393,-44,0,0,0,0,0
443,1765902656965,-1,-220,-29,0,0,0,0,0
444,1765902657568,34,-457,57,0,0,0,0,0
445,1765902657832,-5,-503,-10,0,0,0,0,0
446,1765902657950,24,-372,-16,0,0,0,0,0
447,1765902658199,63,-267,113,0,0,0,0,0
448,1765902658399,5,45,147,0,0,0,0,0
449,1765902658465,-80,416,-29,0,0,0,0,0
450,1765902658783,65,487,21,0,0,0,0,0
451,1765902660517,30,-254,70,0,0,0,0,0
452,1765902661116,11,486,-50,0,0,0,0,0
453,1765902663451,-34,659,-18,0,0,0,0,0
454,1765902664465,19,611,-11,0,0,0,0,0
455,1765902664497,-54,561,-14,0,0,0,0,0
456,1765902664749,-45,481,-55,0,0,0,0,0
457,1765902664947,11,-250,-33,0,0,0,0,0
458,1765902665218,15,-326,10,0,0,0,0,0
459,1765902665450,14,-319,29,0,0,0,0,0
460,1765902665767,0,460,-41,0,0,0,0,0
461,1765902666316,-47,848,-73,0,0,0,0,0
462,1765902666548,-36,806,-108,0,0,0,0,0
463,1765902667665,16,-658,50,0,0,0,0,0
464,1765902668732,80,-711,75,0,0,0,0,0
465,1765902669881,0,-253,78,0,0,0,0,0
466,1765902669966,-5,-178,88,0,0,0,0,0
467,1765902671365,70,-435,-11,0,0,0,0,0
468,1765902671929,-8,-299,45,0,0,0,0,0
469,1765902672066,18,-264,45,0,0,0,0,0
470,1765902672332,-7,-247,-5,0,0,0,0,0
471,1765902672681,20,-252,-7,0,0,0,0,0
472,1765902672999,-52,-228,46,0,0,0,0,0
473,1765902673432,66,-101,-33,0,0,0,0,0
474,1765902673665,-16,-113,3,0,0,0,0,0
475,1765902674347,16,-57,-4,0,0,0,0,0
476,1765902677766,-12,-140,-43,0,0,0,0,0
477,1765902678097,-24,-120,57,0,0,0,0,0
478,1765902678833,64,-425,84,0,0,0,0,0
479,1765902679083,66,-651,-28,0,0,0,0,0
480,1765902679399,38,-576,132,0,0,0,0,0
481,1765902682465,-19,-173,-18,0,0,0,0,0
482,1765902682903,73,-130,57,0,0,0,0,0
483,1765902682903,-3,-62,161,0,0,0,0,0
484,1765902683433,19,-53,-16,0,0,0,0,0
485,1765902684715,25,-13,23,0,0,0,0,0
486,1765902686049,-58,12,-55,0,0,0,0,0
487,1765902686315,52,24,1,0,0,0,0,0
488,1765902687081,-42,92,21,0,0,0,0,0
489,1765902687515,-29,97,20,0,0,0,0,0
490,1765902688115,-9,53,-21,0,0,0,0,0
491,1765902689334,42,-132,31,0,0,0,0,0
492,1765902690099,2,-133,17,0,0,0,0,0
493,1765902690981,-6,-20,-1,0,0,0,0,0
494,1765902691300,-43,539,-16,0,0,0,0,0
495,1765902692700,-28,-420,-7,0,0,0,0,0
496,1765902692948,18,-481,-20,0,0,0,0,0
497,1765902693016,-46,-463,72,0,0,0,0,0
498,1765902693298,83,-434,34,0,0,0,0,0
499,1765902693934,-1,22,35,0,0,0,0,0
500,1765902694299,-106,62,-42,0,0,0,0,0
501,1765902694614,24,-160,15,0,0,0,0,0
502,1765902694866,4,-233,38,0,0,0,0,0
503,1765902695334,89,-474,-45,0,0,0,0,0
504,1765902695616,-60,-478,38,0,0,0,0,0
505,1765902695832,-27,-434,57,0,0,0,0,0
506,1765902696083,74,-438,23,0,0,0,0,0
507,1765902696498,-36,-346,-29,0,0,0,0,0
508,1765902697501,8,-208,10,0,0,0,0,0
509,1765902700848,-33,-212,-8,0,0,0,0,0
510,1765902702266,-26,-122,37,0,0,0,0,0
511,1765902702515,35,-107,-25,0,0,0,0,0
512,1765902703349,-23,-17,-11,0,0,0,0,0
513,1765902703798,4,-13,-4,0,0,0,0,0
514,1765902704841,-2,14,1,0,0,0,0,0
515,1765902706247,-6,12,2,0,0,0,0,0
516,1765902706783,-7,12,2,0,0,0,0,0
517,1765902707099,-8,13,3,0,0,0,0,0
518,1765902707317,-5,12,-1,0,0,0,0,0
519,1765902707698,-5,-1,1,0,0,0,0,0
520,1765902708131,-7,8,-3,0,0,0,0,0
521,1765902708166,-23,10,3,0,0,0,0,0
522,1765902708598,7,17,4,0,0,0,0,0
523,1765902708732,-7,18,-5,0,0,0,0,0
524,1765902709014,-5,9,-2,0,0,0,0,0
525,1765902709498,-5,10,0,0,0,0,0,0
526,1765902709531,-8,11,4,0,0,0,0,0
527,1765902710016,-5,11,2,0,0,0,0,0
528,1765902710300,-9,12,0,0,0,0,0,0
529,1765902710765,1,12,1,0,0,0,0,0
530,1765902711332,-6,17,2,0,0,0,0,0
531,1765902711615,-6,15,0,0,0,0,0,0
532,1765902711965,-9,13,1,0,0,0,0,0
533,1765902711999,-8,11,-1,0,0,0,0,0
534,1765902712600,-4,14,2,0,0,0,0,0
535,1765902713815,-7,13,1,0,0,0,0,0
536,1765902715048,-9,12,2,0,0,0,0,0
537,1765902715465,-6,10,2,0,0,0,0,0
538,1765902716548,-6,12,-1,0,0,0,0,0
539,1765902716898,-8,12,2,0,0,0,0,0
540,1765902718349,-8,9,1,0,0,0,0,0
541,1765902718448,-4,10,0,0,0,0,0,0
542,1765902752849,-9,14,1,0,0,0,0,0
543,1765902752964,-8,10,2,0,0,0,0,0
544,1765902753082,-8,11,2,0,0,0,0,0
545,1765902753214,-5,15,0,0,0,0,0,0
546,1765902753315,-3,13,1,0,0,0,0,0
547,1765902753463,-9,12,3,0,0,0,0,0
548,1765902753548,-8,15,0,0,0,0,0,0
549,1765902753698,-10,12,-1,0,0,0,0,0
550,1765902753766,-7,10,3,0,0,0,0,0
551,1765902755948,-6,14,0,0,0,0,0,0
552,1765902756030,-7,12,1,0,0,0,0,0
553,1765902756064,-8,11,1,0,0,0,0,0
554,1765902756899,-6,12,1,0,0,0,0,0
555,1765902757482,-9,11,2,0,0,0,0,0
556,1765902758164,-7,12,2,0,0,0,0,0
557,1765902758333,-7,11,0,0,0,0,0,0
558,1765902758731,-7,12,1,0,0,0,0,0
559,1765902758966,-6,13,1,0,0,0,0,0
560,1765902760330,-9,12,2,0,0,0,0,0
561,1765902760816,-7,11,2,0,0,0,0,0
562,1765902761093,-6,13,0,0,0,0,0,0
563,1765902761966,-8,13,0,0,0,0,0,0
564,1765902762697,-6,12,2,0,0,0,0,0
565,1765902763097,-6,13,1,0,0,0,0,0
566,1765902765897,-8,11,1,0,0,0,0,0
567,1765902766031,-8,12,1,0,0,0,0,0
568,1765902766346,-9,12,2,0,0,0,0,0
569,1765902766464,-7,13,2,0,0,0,0,0
570,1765902766698,-9,11,2,0,0,0,0,0
571,1765902768297,-4,14,4,0,0,0,0,0
572,1765903179542,-6,13,2,0,0,0,0,0
573,1765903179662,-6,12,1,0,0,0,0,0
574,1765903179776,-7,13,2,0,0,0,0,0
575,1765903179909,-6,13,2,0,0,0,0,0
576,1765903180011,-5,10,2,0,0,0,0,0
577,1765903180160,-7,12,2,0,0,0,0,0
578,1765903180242,-6,13,0,0,0,0,0,0
579,1765903180408,-6,12,3,0,0,0,0,0
580,1765903180460,-7,13,1,0,0,0,0,0
581,1765903182430,-8,12,0,0,0,0,0,0
582,1765903183076,-7,12,1,0,0,0,0,0
583,1765903183711,-6,13,0,0,0,0,0,0
584,1765903183976,-6,11,1,0,0,0,0,0
585,1765903184175,-5,11,2,0,0,0,0,0
586,1765903185008,-8,12,1,0,0,0,0,0
587,1765903185807,-9,12,0,0,0,0,0,0
588,1765903189943,-7,12,1,0,0,0,0,0
589,1765903190358,-6,12,1,0,0,0,0,0
590,1765903190409,-6,14,1,0,0,0,0,0
591,1765903190791,-8,12,2,0,0,0,0,0
592,1765903191543,-8,13,0,0,0,0,0,0
593,1765903191744,-6,12,2,0,0,0,0,0
594,1765903192426,-7,13,1,0,0,0,0,0
595,1765903192777,-7,12,0,0,0,0,0,0
596,1765903195226,-5,11,1,0,0,0,0,0
597,1765903195393,-8,11,1,0,0,0,0,0
598,1765903195727,-8,12,-1,0,0,0,0,0
599,1765903195928,-7,12,2,0,0,0,0,0
600,1765903196426,-6,11,0,0,0,0,0,0
601,1765903196609,-5,11,1,0,0,0,0,0
602,1765903196709,-7,11,2,0,0,0,0,0
603,1765903197595,-7,12,2,0,0,0,0,0
604,1765903198509,-7,12,0,0,0,0,0,0
605,1765903199309,-6,13,1,0,0,0,0,0
606,1765903200127,-7,10,1,0,0,0,0,0
607,1765903200542,-7,13,1,0,0,0,0,0
608,1765903201776,-8,11,3,0,0,0,0,0
609,1765903201891,-6,11,1,0,0,0,0,0
610,1765903202594,-7,11,1,0,0,0,0,0
611,1765903203208,-7,13,0,0,0,0,0,0
612,1765903203758,-7,12,0,0,0,0,0,0
613,1765903205261,-8,11,0,0,0,0,0,0
614,1765903205392,-6,11,1,0,0,0,0,0
615,1765903205795,-12,11,1,0,0,0,0,0
616,1765903205991,-7,13,1,0,0,0,0,0
617,1765903206409,-8,12,1,0,0,0,0,0
618,1765903206592,-9,11,3,0,0,0,0,0
619,1765903206891,-6,14,0,0,0,0,0,0
620,1765903206961,-9,11,1,0,0,0,0,0
621,1765903207392,-5,11,2,0,0,0,0,0
622,1765903210060,-6,11,0,0,0,0,0,0
623,1765903210159,-5,14,0,0,0,0,0,0
624,1765903210626,-8,11,1,0,0,0,0,0
625,1765903210926,-7,13,1,0,0,0,0,0
626,1765903211441,-7,10,1,0,0,0,0,0
627,1765903211543,-7,12,0,0,0,0,0,0
628,1765903211708,-7,12,2,0,0,0,0,0
629,1765903212576,-6,11,1,0,0,0,0,0
630,1765903214812,-6,13,1,0,0,0,0,0
631,1765903214977,-7,14,0,0,0,0,0,0
632,1765903215269,-6,13,1,0,0,0,0,0
633,1765903215476,-5,12,1,0,0,0,0,0
634,1765903215727,-9,11,1,0,0,0,0,0
635,1765903215776,-86,-2,0,0,0,0,0,0
636,1765903216093,20,20,21,0,0,0,0,0
637,1765903216577,4,-143,0,0,0,0,0,0
638,1765903216610,-20,-156,24,0,0,0,0,0
639,1765903217428,20,-326,63,0,0,0,0,0
640,1765903217825,23,-272,2,0,0,0,0,0
641,1765903220424,40,76,49,0,0,0,0,0
642,1765903220608,-32,81,-4,0,0,0,0,0
643,1765903220775,4,78,-9,0,0,0,0,0
644,1765903221109,31,64,-32,0,0,0,0,0
645,1765903221291,3,68,26,0,0,0,0,0
646,1765903221545,-21,31,-52,0,0,0,0,0
647,1765903221591,-9,-65,46,0,0,0,0,0
648,1765903222075,-44,-10,-65,0,0,0,0,0
649,1765903222259,-120,-14,66,0,0,0,0,0
650,1765903222592,-251,4,-10,0,0,0,0,0
651,1765903222791,12,18,-9,0,0,0,0,0
652,1765903223228,5,39,-55,0,0,0,0,0
653,1765903224143,-44,38,11,0,0,0,0,0
654,1765903224309,62,67,37,0,0,0,0,0
655,1765903224791,6,167,-38,0,0,0,0,0
656,1765903224825,-5,182,17,0,0,0,0,0
657,1765903225009,-21,303,-6,0,0,0,0,0
658,1765903228510,-97,683,-158,0,0,0,0,0
659,1765903229591,-37,-75,-19,0,0,0,0,0
660,1765903230145,29,362,70,0,0,0,0,0
661,1765903230608,-12,669,-73,0,0,0,0,0
662,1765903230775,-59,667,-175,0,0,0,0,0
663,1765903231910,56,-800,15,0,0,0,0,0
664,1765903234442,-3,-406,224,0,0,0,0,0
665,1765903235708,-9,-370,9,0,0,0,0,0
666,1765903236442,-54,-193,43,0,0,0,0,0
667,1765903236841,19,20,-88,0,0,0,0,0
668,1765903237724,3,-132,43,0,0,0,0,0
669,1765903237774,71,-119,4,0,0,0,0,0
670,1765903238060,27,-68,7,0,0,0,0,0
671,1765903238276,72,-108,14,0,0,0,0,0
672,1765903239493,37,-142,91,0,0,0,0,0
673,1765903240575,18,-68,57,0,0,0,0,0
674,1765903240759,40,-61,-40,0,0,0,0,0
675,1765903242042,30,-671,26,0,0,0,0,0
676,1765903243024,38,-539,-8,0,0,0,0,0
677,1765903243443,145,-665,-15,0,0,0,0,0
678,1765903243842,164,-859,12,0,0,0,0,0
679,1765903248294,-76,-15,-5,0,0,0,0,0
680,1765903248943,-146,1,144,0,0,0,0,0
681,1765903249010,-161,-21,-4,0,0,0,0,0
682,1765903249476,52,5,36,0,0,0,0,0
683,1765903250059,1,-7,33,0,0,0,0,0
684,1765903250476,3,24,40,0,0,0,0,0
685,1765903250708,-20,-26,34,0,0,0,0,0
686,1765903250874,38,-219,-29,0,0,0,0,0
687,1765903251226,-236,-623,47,0,0,0,0,0
688,1765903251274,-14,-598,-44,0,0,0,0,0
689,1765903251674,-40,449,0,0,0,0,0,0
690,1765903251957,-49,613,-44,0,0,0,0,0
691,1765903256543,-7,-483,18,0,0,0,0,0
692,1765903258059,-51,-610,195,0,0,0,0,0
693,1765903260741,34,-561,52,0,0,0,0,0
694,1765903261044,45,-538,24,0,0,0,0,0
695,1765903261075,17,-440,47,0,0,0,0,0
696,1765903261409,5,-267,-1,0,0,0,0,0
697,1765903261542,1,-147,84,0,0,0,0,0
698,1765903261858,19,215,29,0,0,0,0,0
699,1765903262175,-27,356,21,0,0,0,0,0
700,1765903262374,-49,472,5,0,0,0,0,0
701,1765903262725,-21,403,-61,0,0,0,0,0
702,1765903263109,-43,-229,-86,0,0,0,0,0
703,1765903263225,6,-350,13,0,0,0,0,0
704,1765903265344,15,791,26,0,0,0,0,0
705,1765903265742,-16396,750,-3104,0,0,0,0,0
706,1765903267308,44,734,137,0,0,0,0,0
707,1765903274826,61,-257,6,0,0,0,0,0
708,1765903277408,-30,-64,-40,0,0,0,0,0
709,1765903277640,-1,-79,84,0,0,0,0,0
710,1765903277810,-26,-97,-165,0,0,0,0,0
711,1765903277960,3,-142,-90,0,0,0,0,0
712,1765903278207,-59,-151,-13,0,0,0,0,0
713,1765903278691,32,-118,25,0,0,0,0,0
714,1765903279924,29,-73,-5,0,0,0,0,0
715,1765903280744,-40,-219,-88,0,0,0,0,0
716,1765903281270,32,-388,-72,0,0,0,0,0
717,1765903281809,144,-683,3,0,0,0,0,0
718,1765903283241,-7,-328,94,0,0,0,0,0
719,1765903283658,32,-301,16,0,0,0,0,0
720,1765903284074,-86,-169,19,0,0,0,0,0
721,1765903285009,56,-192,-7,0,0,0,0,0
722,1765903286574,12,-159,35,0,0,0,0,0
723,1765903286641,52,-87,47,0,0,0,0,0
724,1765903287091,-43,21,-27,0,0,0,0,0
725,1765903287607,20,42,-2,0,0,0,0,0
726,1765903287760,-2,23,-104,0,0,0,0,0
727,1765903288008,33,49,66,0,0,0,0,0
728,1765903288175,63,29,-111,0,0,0,0,0
729,1765903288376,149,33,-43,0,0,0,0,0
730,1765903288990,-101,30,6,0,0,0,0,0
731,1765903291224,-10,171,27,0,0,0,0,0
732,1765903292857,-127,-369,26,0,0,0,0,0
733,1765903293358,-25,-101,99,0,0,0,0,0
734,1765903293724,-48,-142,2,0,0,0,0,0
735,1765903293976,48,-133,58,0,0,0,0,0
736,1765903294258,13,-274,-39,0,0,0,0,0
737,1765903294510,8,-389,-57,0,0,0,0,0
738,1765903294775,13,-432,112,0,0,0,0,0
739,1765903295075,-206,-353,-11,0,0,0,0,0
740,1765903295508,-24,-417,30,0,0,0,0,0
741,1765903297475,172,-541,92,0,0,0,0,0
742,1765903299495,42,-550,19,0,0,0,0,0
743,1765903300557,-88,244,-30,0,0,0,0,0
744,1765903301492,41,-498,51,0,0,0,0,0
745,1765903302890,26,-155,-92,0,0,0,0,0
746,1765903304993,-52,465,-30,0,0,0,0,0
747,1765903306375,-37,704,-63,0,0,0,0,0
748,1765903308141,24,423,-49,0,0,0,0,0
749,1765903311058,-3,-132,14,0,0,0,0,0
750,1765903313325,-11,45,21,0,0,0,0,0
751,1765903315524,-19,-14,17,0,0,0,0,0
752,1765903315674,-12,-14,3,0,0,0,0,0
753,1765903316876,1,-6,10,0,0,0,0,0
754,1765903317674,-7,7,4,0,0,0,0,0
755,1765903317857,-10,9,2,0,0,0,0,0
756,1765903318774,-5,12,2,0,0,0,0,0
757,1765903318957,-8,12,2,0,0,0,0,0
758,1765903319940,-7,12,1,0,0,0,0,0
759,1765903320024,-7,12,1,0,0,0,0,0
760,1765903321274,-3,13,0,0,0,0,0,0
761,1765903321474,-5,12,0,0,0,0,0,0
762,1765903321640,-1,12,1,0,0,0,0,0
763,1765903324094,-6,11,1,0,0,0,0,0
764,1765903324359,-7,13,2,0,0,0,0,0
765,1765903325241,-9,11,1,0,0,0,0,0
766,1765903325324,-8,13,-1,0,0,0,0,0
767,1765903326224,-5,11,0,0,0,0,0,0
768,1765903326407,-7,12,1,0,0,0,0,0
769,1765903327661,-5,13,1,0,0,0,0,0
770,1765903327857,-6,10,0,0,0,0,0,0
771,1765903328309,-8,11,1,0,0,0,0,0
772,1765903328473,-6,12,1,0,0,0,0,0
773,1765903329407,-6,11,2,0,0,0,0,0
774,1765903329607,-5,18,4,0,0,0,0,0
775,1765903330424,-10,13,0,0,0,0,0,0
776,1765903332323,-6,10,1,0,0,0,0,0
777,1765903334789,-7,12,2,0,0,0,0,0
778,1765903337809,-2,9,-1,0,0,0,0,0
779,1765903337872,-5,11,1,0,0,0,0,0
780,1765903338039,-6,12,1,0,0,0,0,0
781,1765903338124,-8,12,2,0,0,0,0,0
782,1765903338290,-7,12,0,0,0,0,0,0
783,1765903338373,-5,13,2,0,0,0,0,0
784,1765903338527,-7,12,1,0,0,0,0,0
785,1765903338641,-7,11,1,0,0,0,0,0
786,1765903338722,-6,12,1,0,0,0,0,0
787,1765903340439,-6,12,2,0,0,0,0,0
788,1765903340557,-6,11,0,0,0,0,0,0
789,1765903340692,-8,12,1,0,0,0,0,0
790,1765903340806,-8,13,0,0,0,0,0,0
791,1765903340908,-7,11,2,0,0,0,0,0
792,1765903341056,-4,13,2,0,0,0,0,0
793,1765903341140,-6,11,2,0,0,0,0,0
794,1765903341290,-7,12,2,0,0,0,0,0
795,1765903341373,-8,13,2,0,0,0,0,0
796,1765903341940,-7,13,1,0,0,0,0,0
797,1765903342707,-7,13,1,0,0,0,0,0
798,1765903342990,-7,12,1,0,0,0,0,0
799,1765903345355,-7,12,2,0,0,0,0,0
800,1765903345355,-7,11,1,0,0,0,0,0
801,1765903345355,-6,11,1,0,0,0,0,0
802,1765903345355,-7,11,1,0,0,0,0,0
803,1765903347006,-6,11,2,0,0,0,0,0
804,1765903347827,-7,12,1,0,0,0,0,0
805,1765903349406,-7,12,1,0,0,0,0,0
806,1765903349641,-8,12,2,0,0,0,0,0
807,1765903349958,-7,12,1,0,0,0,0,0
808,1765903350773,-7,12,2,0,0,0,0,0
809,1765903350823,-5,13,3,0,0,0,0,0
810,1765903351357,-6,12,1,0,0,0,0,0
811,1765903351622,-5,12,3,0,0,0,0,0
812,1765903351689,-8,12,1,0,0,0,0,0
813,1765903352475,-8,12,1,0,0,0,0,0
814,1765903353742,-8,12,2,0,0,0,0,0
815,1765903356358,-7,12,2,0,0,0,0,0
816,1765903357943,-7,12,1,0,0,0,0,0
817,1765903359291,-9,12,2,0,0,0,0,0
818,1765903360908,-6,13,2,0,0,0,0,0
819,1765903361341,-9,12,2,0,0,0,0,0
820,1765903362023,13,6,-2,0,0,0,0,0
821,1765903363240,10,-309,31,0,0,0,0,0
822,1765903365907,-96,-188,34,0,0,0,0,0
823,1765903366173,-115,-218,-4,0,0,0,0,0
824,1765903366673,-17,-169,21,0,0,0,0,0
825,1765903368889,75,-414,-53,0,0,0,0,0
826,1765903369665,53,-325,24,0,0,0,0,0
827,1765903370659,1,-94,-10,0,0,0,0,0
828,1765903370908,61,-104,-15,0,0,0,0,0
829,1765903371109,-38,-89,-35,0,0,0,0,0
830,1765903371707,39,-52,69,0,0,0,0,0
831,1765903372007,-29,-97,49,0,0,0,0,0
832,1765903372290,-46,-110,-21,0,0,0,0,0
833,1765903372491,-11,-112,-147,0,0,0,0,0
834,1765903372673,29,-85,129,0,0,0,0,0
835,1765903373741,23,-85,-53,0,0,0,0,0
836,1765903374573,-71,-70,52,0,0,0,0,0
837,1765903375024,16,-104,53,0,0,0,0,0
838,1765903375124,11,-140,-36,0,0,0,0,0
839,1765903376359,31,-476,-40,0,0,0,0,0
840,1765903377326,-56,-193,-45,0,0,0,0,0
841,1765903378491,61,-342,-3,0,0,0,0,0
842,1765903378656,54,-329,57,0,0,0,0,0
843,1765903379692,93,-239,11,0,0,0,0,0
844,1765903383474,1,53,-22,0,0,0,0,0
845,1765903384894,3,12,2,0,0,0,0,0
846,1765903388791,-7,12,2,0,0,0,0,0
847,1765903390156,-6,12,1,0,0,0,0,0
848,1765903391824,-5,12,2,0,0,0,0,0
849,1765903422808,-6,14,3,0,0,0,0,0
850,1765903422956,-6,8,3,0,0,0,0,0
851,1765903423039,-8,16,-1,0,0,0,0,0
852,1765903423208,-8,12,1,0,0,0,0,0
853,1765903423274,-5,10,1,0,0,0,0,0
854,1765903423440,-9,13,1,0,0,0,0,0
855,1765903423506,-5,14,3,0,0,0,0,0
856,1765903423691,-9,12,2,0,0,0,0,0
857,1765903423722,-6,13,0,0,0,0,0,0
858,1765903424589,-8,13,1,0,0,0,0,0
859,1765903429356,-7,12,1,0,0,0,0,0
860,1765903430139,-7,12,1,0,0,0,0,0
861,1765903430989,-8,11,1,0,0,0,0,0
862,1765903431022,-6,12,-1,0,0,0,0,0
863,1765903431340,-7,11,2,0,0,0,0,0
864,1765903433122,-7,14,0,0,0,0,0,0
865,1765903433875,-7,12,3,0,0,0,0,0
866,1765903434289,-9,13,0,0,0,0,0,0
867,1765903437559,-9,12,0,0,0,0,0,0
868,1765903437872,-8,12,2,0,0,0,0,0
869,1765903438907,-8,12,2,0,0,0,0,0
870,1765903439056,-7,12,2,0,0,0,0,0
871,1765903440056,-7,13,2,0,0,0,0,0
872,1765903440141,-8,13,1,0,0,0,0,0
873,1765903440374,-8,13,2,0,0,0,0,0
874,1765903441073,-7,13,2,0,0,0,0,0
875,1765903441290,-6,12,1,0,0,0,0,0
876,1765903441772,-7,13,1,0,0,0,0,0
877,1765903441942,-7,13,2,0,0,0,0,0
878,1765903442256,-8,12,1,0,0,0,0,0
879,1765903442774,-6,13,1,0,0,0,0,0
880,1765903443072,-7,13,2,0,0,0,0,0
881,1765903444139,-7,12,2,0,0,0,0,0
882,1765903444809,-6,11,2,0,0,0,0,0
883,1765903445659,-7,13,1,0,0,0,0,0
884,1765903445805,-7,12,1,0,0,0,0,0
885,1765903446005,-7,14,2,0,0,0,0,0
886,1765903447238,-8,13,2,0,0,0,0,0
887,1765903448158,-7,12,3,0,0,0,0,0
888,1765903448456,-8,14,1,0,0,0,0,0
889,1765903448691,-5,12,0,0,0,0,0,0
890,1765903449472,-8,13,1,0,0,0,0,0
891,1765903451056,-7,12,1,0,0,0,0,0
892,1765903451489,-7,13,2,0,0,0,0,0
893,1765903451607,-8,12,1,0,0,0,0,0
894,1765903451908,-7,12,1,0,0,0,0,0
895,1765903452075,-7,13,2,0,0,0,0,0
896,1765903452340,-7,12,2,0,0,0,0,0
897,1765903452706,-7,13,1,0,0,0,0,0
898,1765903452960,-7,12,1,0,0,0,0,0
899,1765903453522,-7,12,2,0,0,0,0,0
900,1765903455510,-5,12,1,0,0,0,0,0
901,1765903455873,-8,12,2,0,0,0,0,0
902,1765903456056,-6,12,1,0,0,0,0,0
903,1765903456657,-7,13,1,0,0,0,0,0
904,1765903456991,-8,13,2,0,0,0,0,0
905,1765903458291,-7,12,2,0,0,0,0,0
906,1765903459957,-6,13,2,0,0,0,0,0
907,1765903460372,-8,12,2,0,0,0,0,0
908,1765903460771,-8,11,2,0,0,0,0,0
909,1765903462224,-7,14,1,0,0,0,0,0
910,1765903462973,-8,11,2,0,0,0,0,0
911,1765903463224,-6,13,0,0,0,0,0,0
912,1765903463288,-8,12,0,0,0,0,0,0
913,1765903464056,-6,12,2,0,0,0,0,0
914,1765903464990,-7,15,1,0,0,0,0,0
915,1765903467091,-5,12,2,0,0,0,0,0
916,1765903468156,-7,10,2,0,0,0,0,0
917,1765903468422,-6,15,1,0,0,0,0,0
918,1765903468656,-8,11,1,0,0,0,0,0
919,1765903468906,-7,10,3,0,0,0,0,0
920,1765903468939,-23,-31,4,0,0,0,0,0
921,1765903469208,6,11,-8,0,0,0,0,0
922,1765903469405,-21,21,29,0,0,0,0,0
923,1765903470240,-4,-89,14,0,0,0,0,0
924,1765903470574,5,-90,-17,0,0,0,0,0
925,1765903470756,23,-72,12,0,0,0,0,0
926,1765903471123,2,-15,-3,0,0,0,0,0
927,1765903471474,-1,-4,-12,0,0,0,0,0
928,1765903471741,-45,6,10,0,0,0,0,0
929,1765903475455,-9,-7,-6,0,0,0,0,0
930,1765903475957,67,4,7,0,0,0,0,0
931,1765903476123,-53,22,-23,0,0,0,0,0
932,1765903476723,-12,9,-4,0,0,0,0,0
933,1765903477045,17,6,-23,0,0,0,0,0
934,1765903477092,-21,-7,29,0,0,0,0,0
935,1765903477672,-63,3,24,0,0,0,0,0
936,1765903477772,22,-5,5,0,0,0,0,0
937,1765903478021,14,-38,-21,0,0,0,0,0
938,1765903478389,-9,-54,13,0,0,0,0,0
939,1765903478441,5,-116,53,0,0,0,0,0
940,1765903478805,-16,-244,29,0,0,0,0,0
941,1765903479322,24,-188,-4,0,0,0,0,0
942,1765903479622,27,-36,20,0,0,0,0,0
943,1765903479659,21,16,3,0,0,0,0,0
944,1765903480855,5,474,-46,0,0,0,0,0
945,1765903481005,-74,407,10,0,0,0,0,0
946,1765903481691,-25,-318,-9,0,0,0,0,0
947,1765903482122,-74,-461,27,0,0,0,0,0
948,1765903482539,-5,-19,-21,0,0,0,0,0
949,1765903482805,13,-22,33,0,0,0,0,0
950,1765903483342,42,-41,22,0,0,0,0,0
951,1765903483955,43,-333,26,0,0,0,0,0
952,1765903484138,44,-312,83,0,0,0,0,0
953,1765903484375,80,-353,127,0,0,0,0,0
954,1765903485955,18,-305,33,0,0,0,0,0
955,1765903488047,158,-436,-10,0,0,0,0,0
956,1765903488558,-39,-537,198,0,0,0,0,0
957,1765903488822,21,-499,12,0,0,0,0,0
958,1765903488957,43,-483,83,0,0,0,0,0
959,1765903489257,11,-396,41,0,0,0,0,0
960,1765903490705,-77,154,1,0,0,0,0,0
961,1765903492988,13,420,-54,0,0,0,0,0
962,1765903493341,-23,116,-70,0,0,0,0,0
963,1765903496738,-23,667,-33,0,0,0,0,0
964,1765903497722,-72,735,-75,0,0,0,0,0
965,1765903497922,-17,768,14,0,0,0,0,0
966,1765903499075,-9,-242,0,0,0,0,0,0
967,1765903500724,6,-197,-81,0,0,0,0,0
968,1765903502624,15,-658,21,0,0,0,0,0
969,1765903502905,13,-629,32,0,0,0,0,0
970,1765903503324,47,-276,53,0,0,0,0,0
971,1765903504306,-48,-287,-39,0,0,0,0,0
972,1765903504557,35,-265,17,0,0,0,0,0
973,1765903504609,24,-290,131,0,0,0,0,0
974,1765903505105,-70,-358,1123,0,0,0,0,0
975,1765903505439,46,-331,-39,0,0,0,0,0
976,1765903505722,16,-346,-17,0,0,0,0,0
977,1765903506255,5,-296,-21,0,0,0,0,0
978,1765903506622,-25,-211,21,0,0,0,0,0
979,1765903507172,-16,-122,41,0,0,0,0,0
980,1765903507708,24,-49,-55,0,0,0,0,0
981,1765903508492,-35,6,-40,0,0,0,0,0
982,1765903510406,-14,-89,9,0,0,0,0,0
983,1765903510725,30,-82,-14,0,0,0,0,0
984,1765903510874,0,-80,-1,0,0,0,0,0
985,1765903511088,-7,-71,60,0,0,0,0,0
986,1765903511459,-20,-112,-53,0,0,0,0,0
987,1765903511839,7,-75,8,0,0,0,0,0
988,1765903512221,-1,-73,-23,0,0,0,0,0
989,1765903512889,28,-42,31,0,0,0,0,0
990,1765903513156,9,-19,44,0,0,0,0,0
991,1765903513255,-23,-1,-1,0,0,0,0,0
992,1765903513571,-59,0,2,0,0,0,0,0
993,1765903513973,-30,-20,22,0,0,0,0,0
994,1765903515406,7,-346,91,0,0,0,0,0
995,1765903515571,50,-371,6,0,0,0,0,0
996,1765903516038,125,-517,102,0,0,0,0,0
997,1765903516738,-107,-464,23,0,0,0,0,0
998,1765903517709,4,-407,-70,0,0,0,0,0
999,1765903517972,29,-412,87,0,0,0,0,0
1000,1765903518388,-54,-370,13,0,0,0,0,0
1001,1765903520221,27,-124,-30,0,0,0,0,0
1002,1765903521456,11,-26,14,0,0,0,0,0
1003,1765903521739,30,-28,38,0,0,0,0,0
1004,1765903522123,-17,-73,-24,0,0,0,0,0
1005,1765903524158,9,25,-22,0,0,0,0,0
1006,1765903524641,80,-26,-8,0,0,0,0,0
1007,1765903524805,-251,-45,-2,0,0,0,0,0
1008,1765903525454,-11,-1,-15,0,0,0,0,0
1009,1765903525638,36,-14,23,0,0,0,0,0
1010,1765903526371,-16,-176,2,0,0,0,0,0
1011,1765903526888,-40,-245,21,0,0,0,0,0
1012,1765903527074,27,-116,103,0,0,0,0,0
1013,1765903528123,-95,536,-46,0,0,0,0,0
1014,1765903528938,-16,-351,-221,0,0,0,0,0
1015,1765903529139,-32,-356,12,0,0,0,0,0
1016,1765903529258,33,-610,-40,0,0,0,0,0
1017,1765903530524,-56,143,-45,0,0,0,0,0
1018,1765903530558,-236,-128,7,0,0,0,0,0
1019,1765903530821,9,-201,4,0,0,0,0,0
1020,1765903532624,-33,-390,40,0,0,0,0,0
1021,1765903535956,76,-468,74,0,0,0,0,0
1022,1765903536741,1,-205,-8,0,0,0,0,0
1023,1765903536821,4,-172,2,0,0,0,0,0
1024,1765903537638,14,-92,-1,0,0,0,0,0
1025,1765903537806,-64,-73,19,0,0,0,0,0
1026,1765903538522,33,-1,34,0,0,0,0,0
1027,1765903538771,-9,5,-24,0,0,0,0,0
1028,1765903538922,-26,74,13,0,0,0,0,0
1029,1765903539221,-47,3,12,0,0,0,0,0
1030,1765903541939,30,46,-40,0,0,0,0,0
1031,1765903542223,53,-276,13,0,0,0,0,0
1032,1765903542920,29,-160,29,0,0,0,0,0
1033,1765903544672,7,590,23,0,0,0,0,0
1034,1765903545704,-134,683,-157,0,0,0,0,0
1035,1765903546040,-53,631,-2,0,0,0,0,0
1036,1765903550888,10,-510,32,0,0,0,0,0
1037,1765903552339,43,-532,34,0,0,0,0,0
1038,1765903552588,26,-523,26,0,0,0,0,0
1039,1765903553173,-27,-443,-20,0,0,0,0,0
1040,1765903553897,78,-340,34,0,0,0,0,0
1041,1765903555171,0,-320,133,0,0,0,0,0
1042,1765903555390,38,-399,35,0,0,0,0,0
1043,1765903555637,-117,-451,-126,0,0,0,0,0
1044,1765903555923,69,-442,-42,0,0,0,0,0
1045,1765903556021,30,-457,-7,0,0,0,0,0
1046,1765903556254,50,-446,-53,0,0,0,0,0
1047,1765903556737,44,-274,-13,0,0,0,0,0
1048,1765903556853,-251,-246,31,0,0,0,0,0
1049,1765903557337,20,-138,16,0,0,0,0,0
1050,1765903557488,-70,-108,37,0,0,0,0,0
1051,1765903558105,113,-87,12,0,0,0,0,0
1052,1765903558420,-49,-104,12,0,0,0,0,0
1053,1765903559271,40,-66,-30,0,0,0,0,0
1054,1765903559521,-58,-104,-37,0,0,0,0,0
1055,1765903559873,10,-105,81,0,0,0,0,0
1056,1765903560089,-45,-108,8,0,0,0,0,0
1057,1765903562171,-11,-70,13,0,0,0,0,0
1058,1765903562304,57,-73,0,0,0,0,0,0
1059,1765903564073,-30,-499,62,0,0,0,0,0
1060,1765903565605,102,-319,-13,0,0,0,0,0
1061,1765903567003,32,-116,52,0,0,0,0,0
1062,1765903567171,15,-93,45,0,0,0,0,0
1063,1765903567337,6,-53,-51,0,0,0,0,0
1064,1765903568473,-11,-44,89,0,0,0,0,0
1065,1765903574156,-7,11,1,0,0,0,0,0
1066,1765903574304,-6,13,1,0,0,0,0,0
1067,1765903575487,-7,11,1,0,0,0,0,0
1068,1765903580453,-8,11,3,0,0,0,0,0
1069,1765903581436,-8,12,3,0,0,0,0,0
1070,1765903581620,-6,11,2,0,0,0,0,0
1071,1765903582370,-7,11,1,0,0,0,0,0
1072,1765903582453,-6,10,2,0,0,0,0,0
1073,1765903583837,-7,10,1,0,0,0,0,0
1074,1765904350594,-8,13,-1,0,0,0,0,0
1075,1765904350777,-8,14,0,0,0,0,0,0
1076,1765904350811,-7,14,2,0,0,0,0,0
1077,1765904351010,-8,14,1,0,0,0,0,0
1078,1765904351061,-9,15,1,0,0,0,0,0
1079,1765904351244,-9,14,0,0,0,0,0,0
1080,1765904351294,-8,14,3,0,0,0,0,0
1081,1765904351477,-8,14,1,0,0,0,0,0
1082,1765904353478,-8,14,1,0,0,0,0,0
1083,1765904353878,-7,14,0,0,0,0,0,0
1084,1765904354027,-10,14,1,0,0,0,0,0
1085,1765904354261,-8,13,3,0,0,0,0,0
1086,1765904355661,-8,14,0,0,0,0,0,0
1087,1765904357361,-8,14,2,0,0,0,0,0
1088,1765904357877,-8,14,2,0,0,0,0,0
1089,1765904358745,-9,14,0,0,0,0,0,0
1090,1765904359661,-8,14,1,0,0,0,0,0
1091,1765904359727,-8,14,1,0,0,0,0,0
1092,1765904360177,-7,14,1,0,0,0,0,0
1093,1765904362228,-9,14,1,0,0,0,0,0
1094,1765904362711,-8,14,2,0,0,0,0,0
1095,1765904365711,-8,12,0,0,0,0,0,0
1096,1765904366028,-8,14,1,0,0,0,0,0
1097,1765904366677,-8,13,2,0,0,0,0,0
1098,1765904367327,-8,13,3,0,0,0,0,0
1099,1765904367595,-8,12,1,0,0,0,0,0
1100,1765904367778,-7,13,1,0,0,0,0,0
1101,1765904369411,-8,14,0,0,0,0,0,0
1102,1765904369577,-7,13,1,0,0,0,0,0
1103,1765904370477,-7,12,2,0,0,0,0,0
1104,1765904370710,-8,13,1,0,0,0,0,0
1105,1765904370994,-9,13,3,0,0,0,0,0
1106,1765904371277,-7,13,1,0,0,0,0,0
1107,1765904373711,-6,13,1,0,0,0,0,0
1108,1765904374143,-7,12,1,0,0,0,0,0
1109,1765904374411,-8,14,1,0,0,0,0,0
1110,1765904375457,-8,14,2,0,0,0,0,0
1111,1765904375476,-14,15,-1,0,0,0,0,0
1112,1765904375544,-13,15,0,0,0,0,0,0
1113,1765904376477,-11,8,8,0,0,0,0,0
1114,1765904379528,-73,90,-2,0,0,0,0,0
1115,1765904379660,-34,86,6,0,0,0,0,0
1116,1765904379977,8,88,-5,0,0,0,0,0
1117,1765904381661,-36,96,-2,0,0,0,0,0
1118,1765904383444,-13,10,3,0,0,0,0,0
1119,1765904385261,31,6,2,0,0,0,0,0
1120,1765904386861,9,37,-7,0,0,0,0,0
1121,1765904387177,14,21,31,0,0,0,0,0
1122,1765904389678,4,15,-256,0,0,0,0,0
1123,1765904390994,38,-94,2,0,0,0,0,0
1124,1765904391144,2,-164,5,0,0,0,0,0
1125,1765904391661,-10,-204,-3,0,0,0,0,0
1126,1765904394262,-37,390,-34,0,0,0,0,0
1127,1765904394359,-44,420,-9,0,0,0,0,0
1128,1765904394611,-34,412,-29,0,0,0,0,0
1129,1765904396376,4,-414,28,0,0,0,0,0
1130,1765904397041,28,-445,14,0,0,0,0,0
1131,1765904397058,-8,-419,21,0,0,0,0,0
1132,1765904397345,55,-414,12,0,0,0,0,0
1133,1765904399008,3,166,-13,0,0,0,0,0
1134,1765904399843,-25,190,7,0,0,0,0,0
1135,1765904399943,-8,169,6,0,0,0,0,0
1136,1765904400726,-23,13,31,0,0,0,0,0
1137,1765904400992,-44,-5,-25,0,0,0,0,0
1138,1765904401345,7,2,-9,0,0,0,0,0
1139,1765904401610,-32,10,10,0,0,0,0,0
1140,1765904402860,32,306,-20,0,0,0,0,0
1141,1765904404377,-15,188,-28,0,0,0,0,0
1142,1765904405843,-23,102,0,0,0,0,0,0
1143,1765904406543,-8,30,0,0,0,0,0,0
1144,1765904406692,-10,21,0,0,0,0,0,0
1145,1765904406744,-8,17,2,0,0,0,0,0
1146,1765904407025,-6,18,2,0,0,0,0,0
1147,1765904407375,-7,23,1,0,0,0,0,0
1148,1765904408043,-8,28,-1,0,0,0,0,0
1149,1765904408060,-8,29,-2,0,0,0,0,0
1150,1765904408160,-9,35,0,0,0,0,0,0
1151,1765904408226,-11,39,0,0,0,0,0,0
1152,1765904408476,-8,43,-5,0,0,0,0,0
1153,1765904410093,6,68,-12,0,0,0,0,0
1154,1765904411660,-7,29,1,0,0,0,0,0
1155,1765904411943,-7,23,-1,0,0,0,0,0
1156,1765904412377,-8,18,1,0,0,0,0,0
1157,1765904416693,-4,38,-1,0,0,0,0,0
1158,1765904417793,-6,36,5,0,0,0,0,0
1159,1765904419643,-4,60,4,0,0,0,0,0
1160,1765904419927,-10,69,-4,0,0,0,0,0
1161,1765904422093,-12,62,3,0,0,0,0,0
1162,1765904423943,-9,14,1,0,0,0,0,0
1163,1765904427097,-16,71,0,0,0,0,0,0
1164,1765904427562,-3,81,-6,0,0,0,0,0
1165,1765904428775,6,46,1,0,0,0,0,0
1166,1765904429009,2,43,-6,0,0,0,0,0
1167,1765904431710,-15,35,31,0,0,0,0,0
1168,1765904432109,-8,32,10,0,0,0,0,0
1169,1765904432359,0,24,-7,0,0,0,0,0
1170,1765904434858,-12,27,-1,0,0,0,0,0
1171,1765904435825,-14,29,4,0,0,0,0,0
1172,1765904436827,-25,53,-9,0,0,0,0,0
1173,1765904438525,-10,35,-2,0,0,0,0,0
1174,1765904439825,-11,42,0,0,0,0,0,0
1175,1765904440974,-13,64,3,0,0,0,0,0
1176,1765904441025,-15,65,1,0,0,0,0,0
1177,1765904443676,-6,158,-12,0,0,0,0,0
1178,1765904443926,-24,172,-9,0,0,0,0,0
1179,1765904444277,-16,177,-10,0,0,0,0,0
1180,1765904447626,7,46,3,0,0,0,0,0
1181,1765904447676,7,45,10,0,0,0,0,0
1182,1765904447926,-25,34,12,0,0,0,0,0
1183,1765904448209,2,28,9,0,0,0,0,0
1184,1765904449558,-18,-5,-8,0,0,0,0,0
1185,1765904449859,-6,19,0,0,0,0,0,0
1186,1765904450275,-6,14,1,0,0,0,0,0
1187,1765904452411,-6,12,1,0,0,0,0,0
1188,1765904454458,-9,11,2,0,0,0,0,0
1189,1765904455141,-7,11,1,0,0,0,0,0
1190,1765904455543,-7,11,1,0,0,0,0,0
1191,1765904457309,-7,11,1,0,0,0,0,0
1192,1765904457593,-7,13,3,0,0,0,0,0
1193,1765904460424,-9,11,1,0,0,0,0,0
1194,1765904460576,-7,14,3,0,0,0,0,0
1195,1765904460875,-5,14,3,0,0,0,0,0
1196,1765904461707,-6,12,1,0,0,0,0,0
