index,ACCEL_X,ACCEL_Y,ACCEL_Z,1,2,3,4,5
0,1118,8068,-296,0,0,0,0,0
1,1143,8060,-496,0,0,0,0,0
2,1129,8064,-272,0,0,0,0,0
3,1128,8070,-289,0,0,0,0,0
4,1134,8063,-295,0,0,0,0,0
5,1128,8064,-274,0,0,0,0,0
6,1116,8078,-283,0,0,0,0,0
7,1120,8068,-298,0,0,0,0,0
8,1132,8079,-285,0,0,0,0,0
9,1116,8066,-278,0,0,0,0,0
10,1124,8076,-285,0,0,0,0,0
11,1124,8059,-294,0,0,0,0,0
12,1127,8078,-284,0,0,0,0,0
13,1119,8071,-271,0,0,0,0,0
14,1194,8060,-381,0,0,0,0,0
15,1151,8091,-175,0,0,0,0,0
16,1212,8170,-80,0,0,0,0,0
17,1096,8166,-308,0,0,0,0,0
18,1128,8072,-268,0,0,0,0,0
19,1122,8098,-239,0,0,0,0,0
20,1131,8082,-289,0,0,0,0,0
21,1123,8058,-332,0,0,0,0,0
22,1133,8064,-268,0,0,0,0,0
23,1135,8069,-284,0,0,0,0,0
24,1125,8066,-294,0,0,0,0,0
25,1131,8082,-279,0,0,0,0,0
26,1133,8062,-282,0,0,0,0,0
27,1126,8080,-288,0,0,0,0,0
28,1132,8070,-275,0,0,0,0,0
29,1134,8065,-267,0,0,0,0,0
30,1117,8082,-277,0,0,0,0,0
31,1128,8061,-315,0,0,0,0,0
32,1142,8068,-260,0,0,0,0,0
33,1135,8077,-318,0,0,0,0,0
34,1104,8048,-310,0,0,0,0,0
35,1110,8080,-280,0,0,0,0,0
36,1141,8100,-270,0,0,0,0,0
37,1130,8053,-266,0,0,0,0,0
38,1117,8068,-280,0,0,0,0,0
39,1138,8063,-276,0,0,0,0,0
40,1127,8062,-294,0,0,0,0,0
41,1125,8076,-274,0,0,0,0,0
42,1126,8064,-279,0,0,0,0,0
43,1137,8073,-294,0,0,0,0,0
44,1130,8070,-288,0,0,0,0,0
45,1120,8072,-270,0,0,0,0,0
46,1118,8073,-284,0,0,0,0,0
47,1128,8080,-274,0,0,0,0,0
48,1136,8064,-287,0,0,0,0,0
49,1123,8071,-287,0,0,0,0,0
50,1128,8070,-283,0,0,0,0,0
51,1138,8064,-280,0,0,0,0,0
52,1122,8096,-292,0,0,0,0,0
53,1134,8121,-233,0,0,0,0,0
54,1118,8083,-288,0,0,0,0,0
55,1112,8050,-276,0,0,0,0,0
56,1116,8080,-274,0,0,0,0,0
57,1137,8082,-252,0,0,0,0,0
58,1126,8077,-316,0,0,0,0,0
59,1120,8070,-286,0,0,0,0,0
60,1133,8073,-252,0,0,0,0,0
61,1113,8062,-306,0,0,0,0,0
62,1135,8080,-266,0,0,0,0,0
63,1125,8069,-300,0,0,0,0,0
64,1126,8084,-282,0,0,0,0,0
65,1122,8054,-272,0,0,0,0,0
66,1128,8104,-269,0,0,0,0,0
67,1116,8083,-286,0,0,0,0,0
68,1110,8060,-270,0,0,0,0,0
69,1121,8081,-298,0,0,0,0,0
70,1133,8062,-274,0,0,0,0,0
71,1125,8080,-288,0,0,0,0,0
72,1124,8074,-278,0,0,0,0,0
73,1125,8072,-288,0,0,0,0,0
74,1122,8075,-279,0,0,0,0,0
75,1138,8070,-285,0,0,0,0,0
76,1122,8091,-276,0,0,0,0,0
77,1124,8070,-285,0,0,0,0,0
78,1126,8060,-286,0,0,0,0,0
79,1129,8084,-286,0,0,0,0,0
80,1122,8070,-273,0,0,0,0,0
81,1132,8079,-283,0,0,0,0,0
82,1125,8070,-286,0,0,0,0,0
83,1110,8078,-272,0,0,0,0,0
84,1130,8070,-280,0,0,0,0,0
85,1133,8073,-286,0,0,0,0,0
86,1127,8066,-289,0,0,0,0,0
87,1126,8062,-287,0,0,0,0,0
88,1128,8081,-272,0,0,0,0,0
89,1128,8077,-273,0,0,0,0,0
90,1138,8062,-290,0,0,0,0,0
91,1123,8071,-288,0,0,0,0,0
92,1120,8076,-257,0,0,0,0,0
93,1133,8058,-257,0,0,0,0,0
94,1129,8068,-283,0,0,0,0,0
95,1124,8062,-293,0,0,0,0,0
96,1120,8077,-286,0,0,0,0,0
97,1130,8083,-270,0,0,0,0,0
98,1122,8061,-278,0,0,0,0,0
99,1128,8071,-296,0,0,0,0,0
100,1122,8075,-272,0,0,0,0,0
101,1116,8068,-276,0,0,0,0,0
102,1118,8070,-291,0,0,0,0,0
103,1134,8072,-274,0,0,0,0,0
104,1125,8062,-281,0,0,0,0,0
105,1110,8058,-277,0,0,0,0,0
106,1129,8064,-283,0,0,0,0,0
107,1141,8098,-276,0,0,0,0,0
108,1123,8061,-272,0,0,0,0,0
109,1108,8062,-280,0,0,0,0,0
110,1134,8068,-300,0,0,0,0,0
111,1134,8080,-272,0,0,0,0,0
112,1100,8078,-276,0,0,0,0,0
113,1117,8070,-311,0,0,0,0,0
114,1145,8065,-291,0,0,0,0,0
115,1116,8066,-244,0,0,0,0,0
116,1108,8072,-282,0,0,0,0,0
117,1132,8064,-330,0,0,0,0,0
118,1134,8076,-304,0,0,0,0,0
119,1117,8098,-257,0,0,0,0,0
120,1115,8027,-244,0,0,0,0,0
121,1141,8098,-270,0,0,0,0,0
122,1095,8100,-377,0,0,0,0,0
123,1111,8000,-282,0,0,0,0,0
124,1121,8062,-281,0,0,0,0,0
125,1154,8100,-236,0,0,0,0,0
126,1123,8080,-328,0,0,0,0,0
127,1136,8071,-286,0,0,0,0,0
128,1112,8079,-266,0,0,0,0,0
129,1126,8074,-283,0,0,0,0,0
130,1136,8056,-300,0,0,0,0,0
131,1132,8091,-295,0,0,0,0,0
132,1114,8050,-284,0,0,0,0,0
133,1131,8066,-270,0,0,0,0,0
134,1132,8085,-288,0,0,0,0,0
135,1118,8064,-288,0,0,0,0,0
136,1128,8059,-293,0,0,0,0,0
137,1148,8082,-282,0,0,0,0,0
138,1118,8075,-274,0,0,0,0,0
139,1109,8055,-294,0,0,0,0,0
140,1150,8053,-305,0,0,0,0,0
141,1144,8114,-274,0,0,0,0,0
142,1102,8062,-263,0,0,0,0,0
143,1120,8065,-276,0,0,0,0,0
144,1139,8076,-321,0,0,0,0,0
145,1123,8074,-294,0,0,0,0,0
146,1131,8072,-274,0,0,0,0,0
147,1123,8071,-266,0,0,0,0,0
148,1138,8074,-292,0,0,0,0,0
149,1120,8065,-314,0,0,0,0,0
150,1115,8066,-292,0,0,0,0,0
151,1129,8077,-283,0,0,0,0,0
152,1132,8066,-270,0,0,0,0,0
153,1121,8072,-288,0,0,0,0,0
154,1131,8060,-266,0,0,0,0,0
155,1132,8076,-268,0,0,0,0,0
156,1127,8070,-293,0,0,0,0,0
157,1129,8071,-277,0,0,0,0,0
158,1123,8071,-276,0,0,0,0,0
159,1124,8067,-272,0,0,0,0,0
160,1132,8075,-284,0,0,0,0,0
161,1116,8082,-288,0,0,0,0,0
162,1119,8068,-288,0,0,0,0,0
163,1124,8068,-280,0,0,0,0,0
164,1138,8076,-276,0,0,0,0,0
165,1129,8077,-281,0,0,0,0,0
166,1124,8069,-283,0,0,0,0,0
167,1129,8076,-278,0,0,0,0,0
168,1127,8075,-280,0,0,0,0,0
169,1118,8073,-293,0,0,0,0,0
170,1120,8058,-281,0,0,0,0,0
171,1130,8086,-284,0,0,0,0,0
172,1122,8063,-276,0,0,0,0,0
173,1124,8066,-281,0,0,0,0,0
174,1127,8079,-292,0,0,0,0,0
175,1121,8078,-291,0,0,0,0,0
176,1118,8061,-295,0,0,0,0,0
177,1130,8074,-280,0,0,0,0,0
178,1129,8060,-279,0,0,0,0,0
179,1130,8066,-280,0,0,0,0,0
180,1111,8082,-292,0,0,0,0,0
181,1141,8072,-280,0,0,0,0,0
182,1134,8052,-286,0,0,0,0,0
183,1120,8070,-277,0,0,0,0,0
184,1118,8086,-284,0,0,0,0,0
185,1132,8067,-293,0,0,0,0,0
186,1130,8071,-284,0,0,0,0,0
187,1124,8074,-274,0,0,0,0,0
188,1124,8070,-281,0,0,0,0,0
189,1138,8068,-276,0,0,0,0,0
190,1120,8071,-290,0,0,0,0,0
191,1124,8069,-286,0,0,0,0,0
192,1128,8068,-285,0,0,0,0,0
193,1121,8087,-284,0,0,0,0,0
194,1130,8064,-277,0,0,0,0,0
195,1126,8069,-281,0,0,0,0,0
196,1137,8077,-282,0,0,0,0,0
197,1121,8068,-287,0,0,0,0,0
198,1123,8061,-287,0,0,0,0,0
199,1128,8080,-280,0,0,0,0,0
200,1132,8074,-280,0,0,0,0,0
201,1122,8064,-290,0,0,0,0,0
202,1134,8076,-280,0,0,0,0,0
203,1120,8077,-283,0,0,0,0,0
204,1123,8062,-282,0,0,0,0,0
205,1132,8066,-286,0,0,0,0,0
206,1124,8078,-280,0,0,0,0,0
207,1132,8065,-277,0,0,0,0,0
208,1126,8064,-291,0,0,0,0,0
209,1130,8080,-288,0,0,0,0,0
210,1120,8068,-288,0,0,0,0,0
211,1136,8068,-286,0,0,0,0,0
212,1123,8075,-284,0,0,0,0,0
213,1120,8076,-277,0,0,0,0,0
214,1132,8074,-274,0,0,0,0,0
215,1140,8067,-281,0,0,0,0,0
216,1122,8078,-286,0,0,0,0,0
217,1112,8064,-295,0,0,0,0,0
218,1132,8074,-278,0,0,0,0,0
219,1126,8074,-279,0,0,0,0,0
220,1126,8068,-290,0,0,0,0,0
221,1125,8072,-288,0,0,0,0,0
222,1129,8072,-289,0,0,0,0,0
223,1117,8086,-284,0,0,0,0,0
224,1118,8052,-269,0,0,0,0,0
225,1140,8082,-250,0,0,0,0,0
226,1120,8066,-312,0,0,0,0,0
227,1123,8072,-336,0,0,0,0,0
228,1117,8077,-274,0,0,0,0,0
229,1118,8088,-240,0,0,0,0,0
230,1140,8063,-259,0,0,0,0,0
231,1135,8080,-303,0,0,0,0,0
232,1130,8061,-314,0,0,0,0,0
233,1115,8050,-280,0,0,0,0,0
234,1138,8081,-252,0,0,0,0,0
235,1134,8064,-268,0,0,0,0,0
236,1118,8073,-324,0,0,0,0,0
237,1118,8078,-298,0,0,0,0,0
238,1119,8055,-278,0,0,0,0,0
239,1126,8076,-260,0,0,0,0,0
240,1131,8076,-269,0,0,0,0,0
241,1122,8068,-291,0,0,0,0,0
242,1118,8063,-321,0,0,0,0,0
243,1124,8072,-284,0,0,0,0,0
244,1124,8088,-261,0,0,0,0,0
245,1120,8072,-276,0,0,0,0,0
246,1128,8062,-303,0,0,0,0,0
247,1150,8082,-291,0,0,0,0,0
248,1092,8072,-294,0,0,0,0,0
249,1104,8052,-272,0,0,0,0,0
250,1143,8072,-258,0,0,0,0,0
251,1151,8076,-280,0,0,0,0,0
252,1109,8061,-292,0,0,0,0,0
253,1096,8072,-306,0,0,0,0,0
254,1142,8078,-272,0,0,0,0,0
255,1132,8060,-259,0,0,0,0,0
256,1119,8072,-286,0,0,0,0,0
257,1112,8063,-310,0,0,0,0,0
258,1124,8067,-268,0,0,0,0,0
259,1127,8062,-278,0,0,0,0,0
260,1128,8083,-286,0,0,0,0,0
261,1120,8066,-284,0,0,0,0,0
262,1128,8076,-298,0,0,0,0,0
263,1127,8076,-280,0,0,0,0,0
264,1133,8070,-271,0,0,0,0,0
265,1120,8059,-291,0,0,0,0,0
266,1130,8086,-288,0,0,0,0,0
267,1131,8050,-302,0,0,0,0,0
268,1123,8076,-295,0,0,0,0,0
269,1127,8080,-261,0,0,0,0,0
270,1119,8050,-295,0,0,0,0,0
271,1108,8089,-283,0,0,0,0,0
272,1138,8067,-303,0,0,0,0,0
273,1157,8083,-258,0,0,0,0,0
274,1130,8088,-276,0,0,0,0,0
275,1103,8052,-282,0,0,0,0,0
276,1128,8065,-304,0,0,0,0,0
277,1142,8097,-263,0,0,0,0,0
278,1115,8066,-294,0,0,0,0,0
279,1091,8039,-292,0,0,0,0,0
280,1154,8094,-282,0,0,0,0,0
281,1142,8072,-273,0,0,0,0,0
282,1099,8062,-296,0,0,0,0,0
283,1138,8078,-303,0,0,0,0,0
284,1130,8052,-281,0,0,0,0,0
285,1082,8082,-266,0,0,0,0,0
286,1108,8082,-265,0,0,0,0,0
287,1158,8084,-275,0,0,0,0,0
288,1122,8051,-285,0,0,0,0,0
289,1091,8078,-281,0,0,0,0,0
290,1118,8075,-291,0,0,0,0,0
291,1162,8077,-264,0,0,0,0,0
292,1128,8069,-291,0,0,0,0,0
293,1105,8060,-310,0,0,0,0,0
294,1150,8092,-294,0,0,0,0,0
295,1134,8096,-236,0,0,0,0,0
296,1097,8040,-306,0,0,0,0,0
297,1124,8069,-290,0,0,0,0,0
298,1154,8075,-301,0,0,0,0,0
299,1121,8074,-275,0,0,0,0,0
300,1108,8076,-278,0,0,0,0,0
301,1140,8102,-219,0,0,0,0,0
302,1141,8050,-312,0,0,0,0,0
303,1104,8042,-354,0,0,0,0,0
304,1107,8093,-267,0,0,0,0,0
305,1134,8085,-268,0,0,0,0,0
306,1103,8070,-301,0,0,0,0,0
307,1110,8088,-293,0,0,0,0,0
308,1120,8042,-275,0,0,0,0,0
309,1162,8081,-270,0,0,0,0,0
310,1127,8080,-312,0,0,0,0,0
311,1175,8071,-240,0,0,0,0,0
312,1154,8046,-239,0,0,0,0,0
313,1034,8092,-438,0,0,0,0,0
314,1195,8039,-170,0,0,0,0,0
315,1192,8076,-156,0,0,0,0,0
316,1069,8174,-300,0,0,0,0,0
317,1037,7949,-340,0,0,0,0,0
318,1224,8044,-287,0,0,0,0,0
319,1155,8102,-276,0,0,0,0,0
320,1058,8093,-282,0,0,0,0,0
321,1131,8055,-261,0,0,0,0,0
322,1174,8036,-309,0,0,0,0,0
323,1073,8087,-287,0,0,0,0,0
324,1118,8084,-265,0,0,0,0,0
325,1095,8058,-299,0,0,0,0,0
326,1091,8070,-274,0,0,0,0,0
327,1168,8072,-290,0,0,0,0,0
328,1091,8078,-295,0,0,0,0,0
329,1137,8060,-288,0,0,0,0,0
330,1100,8070,-290,0,0,0,0,0
331,1111,8055,-291,0,0,0,0,0
332,1130,8085,-254,0,0,0,0,0
333,1108,8068,-356,0,0,0,0,0
334,1136,8066,-319,0,0,0,0,0
335,1126,8058,-272,0,0,0,0,0
336,1116,8090,-234,0,0,0,0,0
337,1129,8070,-246,0,0,0,0,0
338,1148,8060,-333,0,0,0,0,0
339,1118,8089,-305,0,0,0,0,0
340,1122,8062,-259,0,0,0,0,0
341,1149,8073,-271,0,0,0,0,0
342,1107,8067,-303,0,0,0,0,0
343,1111,8082,-287,0,0,0,0,0
344,1124,8056,-284,0,0,0,0,0
345,1127,8078,-300,0,0,0,0,0
346,1127,8065,-286,0,0,0,0,0
347,1128,8080,-276,0,0,0,0,0
348,1125,8062,-297,0,0,0,0,0
349,1134,8050,-245,0,0,0,0,0
350,1118,8078,-277,0,0,0,0,0
351,1118,8066,-310,0,0,0,0,0
352,1122,8072,-311,0,0,0,0,0
353,1091,8080,-386,0,0,0,0,0
354,1185,7996,-236,0,0,0,0,0
355,1073,8142,-343,0,0,0,0,0
356,1142,8017,-293,0,0,0,0,0
357,1121,8103,-361,0,0,0,0,0
358,1168,8110,-203,0,0,0,0,0
359,1084,8051,-314,0,0,0,0,0
360,1134,8080,-296,0,0,0,0,0
361,1143,8070,-276,0,0,0,0,0
362,1128,8074,-286,0,0,0,0,0
363,1102,8065,-292,0,0,0,0,0
364,1150,8068,-279,0,0,0,0,0
365,1132,8062,-290,0,0,0,0,0
366,1119,8073,-282,0,0,0,0,0
367,1118,8067,-261,0,0,0,0,0
368,1118,8072,-218,0,0,0,0,0
369,1140,8062,-230,0,0,0,0,0
370,1184,8055,-262,0,0,0,0,0
371,1151,8068,-272,0,0,0,0,0
372,1172,8084,-235,0,0,0,0,0
373,1112,8044,-369,0,0,0,0,0
374,1125,8073,-321,425,0,0,0,0
375,1135,8067,-324,0,0,0,0,0
376,1118,8074,-303,36,0,0,0,0
377,1142,8064,-238,0,0,0,0,0
378,1132,8079,-202,0,0,0,0,0
379,1144,8071,-180,0,0,0,0,0
380,1126,8045,-235,637,0,0,0,0
381,1132,8078,-242,0,0,0,0,0
382,1158,8044,-155,0,0,0,0,0
383,1154,8103,-214,0,0,0,0,0
384,1205,8028,-102,653,0,0,0,0
385,1099,8078,-209,0,0,0,0,0
386,1190,8107,-138,0,0,0,0,0
387,1123,8042,-158,0,0,0,0,0
388,1122,8037,-106,0,0,0,0,0
389,1171,8108,-232,0,0,0,0,0
390,1166,8020,-63,0,0,0,0,0
391,1102,8104,-249,0,0,0,0,0
392,1225,8050,-98,0,0,0,0,0
393,1121,8070,-192,0,0,0,0,0
394,1177,8051,242,0,0,0,0,0
395,1152,8089,-144,0,0,0,0,0
396,1160,8034,-29,698,0,0,0,0
397,1175,8050,-65,0,0,0,0,0
398,1174,8066,31,0,0,0,0,0
399,1138,8009,-47,0,0,0,0,0
400,1136,8072,-25,0,0,0,0,0
401,1198,8044,-24,0,0,0,0,0
402,1168,8070,77,0,0,0,0,0
403,1134,8055,-10,0,0,0,0,0
404,1158,8094,5,0,0,0,0,0
405,1196,8046,-11,0,0,0,0,0
406,1171,8064,72,0,0,0,0,0
407,1094,8074,37,0,0,0,0,0
408,1162,8056,72,0,0,0,0,0
409,1169,8068,94,0,0,0,0,0
410,1060,7916,88,0,0,0,0,0
411,1163,8127,122,0,0,0,0,0
412,1118,8264,408,0,0,0,0,0
413,1018,7960,94,0,0,0,0,0
414,1017,8056,26,0,0,0,0,0
415,1187,8146,370,482,0,0,0,0
416,933,8002,52,0,0,0,0,0
417,1245,7924,-64,488,0,0,0,0
418,1228,8029,31,0,0,0,0,0
419,997,8227,4,132,0,0,0,0
420,1050,8043,174,0,0,0,0,0
421,930,7862,88,930,0,0,0,0
422,1242,7872,-17,0,0,0,0,0
423,694,8060,-157,942,0,0,0,0
424,1272,8289,180,0,0,0,0,0
425,1198,8172,48,0,0,0,0,0
426,1061,8108,124,0,0,0,0,0
427,880,7810,-123,0,0,0,0,0
428,832,8132,0,0,0,0,0,0
429,1144,7963,232,0,0,0,0,0
430,1210,8019,320,0,0,0,0,0
431,852,8330,-126,0,0,0,0,0
432,1125,8040,302,0,0,0,0,0
433,1164,7814,-115,0,0,0,0,0
434,811,7952,46,0,0,0,0,0
435,748,8144,-118,0,0,0,0,0
436,1050,8131,-118,0,0,0,0,0
437,1042,7986,166,0,0,0,0,0
438,1034,7943,235,0,0,0,0,0
439,734,7913,46,0,0,0,0,0
440,986,8224,197,0,0,0,0,0
441,1094,8126,34,0,0,0,0,0
442,788,8300,186,0,0,0,0,0
443,1173,8162,554,0,0,0,0,0
444,946,8130,410,0,0,0,0,0
445,914,7890,85,0,0,0,0,0
446,1007,7548,-442,0,0,0,0,0
447,758,8113,519,0,0,0,0,0
448,953,7883,206,0,0,0,0,0
449,1156,8532,764,0,0,0,0,0
450,767,8051,974,0,0,0,0,0
451,994,8006,-85,0,0,0,0,0
452,962,8412,680,0,0,0,0,0
453,747,8638,162,0,0,0,0,0
454,984,7780,-26,0,0,0,0,0
455,1078,7573,136,0,0,0,0,0
456,820,8099,35,0,0,0,0,0
457,851,8149,-230,0,0,0,0,0
458,831,7894,156,0,0,0,0,0
459,1122,7893,40,0,0,0,0,0
460,1161,8070,66,474,0,0,0,0
461,776,8082,299,0,0,0,0,0
462,984,8057,306,499,0,0,0,0
463,776,8116,-192,515,0,0,0,0
464,869,7633,-240,0,0,0,0,0
465,550,8122,427,531,0,0,0,0
466,738,8306,-352,0,0,0,0,0
467,964,7986,130,547,0,0,0,0
468,877,8426,44,0,0,0,0,0
469,867,7672,762,561,0,0,0,0
470,352,8058,-412,0,0,0,0,0
471,415,8752,632,574,0,0,0,0
472,1006,7644,-609,0,0,0,0,0
473,989,8390,119,592,0,0,0,0
474,926,7461,-308,0,0,0,0,0
475,886,8285,-1460,1028,0,0,0,0
476,998,8574,-942,0,0,0,0,0
477,855,7860,-401,0,0,0,0,0
478,1032,8088,-651,0,0,0,0,0
479,966,7826,-857,0,0,0,0,0
480,708,8236,-1117,0,0,0,0,0
481,1326,8737,-310,0,0,0,0,0
482,684,7941,-1002,0,0,0,0,0
483,1129,7830,-1181,6,0,0,0,0
484,676,8151,-214,0,0,0,0,0
485,794,7897,-1660,6,0,0,0,0
486,1142,8209,-1059,0,0,0,0,0
487,1358,7736,-746,150,0,0,0,0
488,726,8111,-1192,0,0,0,0,0
489,650,8022,-875,123,0,0,0,0
490,1099,8184,-615,0,0,0,0,0
491,1235,8223,-1406,8,0,0,0,0
492,988,8196,-787,0,0,0,0,0
493,756,8223,-627,76,0,0,0,0
494,1098,7926,-1232,0,0,0,0,0
495,1230,7866,-1231,8,0,0,0,0
496,622,8104,-905,0,0,0,0,0
497,782,8374,-710,51,0,0,0,0
498,1372,7788,-938,0,0,0,0,0
499,862,8176,-449,28,0,0,0,0
500,767,8293,-729,0,0,0,0,0
501,1120,8119,-1131,0,0,0,0,0
502,844,7970,-1420,0,0,0,0,0
503,768,8138,-2971,0,0,0,0,0
504,1167,7938,-1693,0,0,0,0,0
505,1244,8256,-1568,0,0,0,0,0
506,640,8582,-1622,0,0,0,0,0
507,1236,7853,-418,0,0,0,0,0
508,1497,8434,2822,0,0,0,0,0
509,721,6672,-151,0,0,0,0,0
510,1516,9437,546,0,0,0,0,0
511,412,7426,-382,0,0,0,0,0
512,1154,7922,351,0,0,0,0,0
513,1341,7829,-74,0,0,0,0,0
514,871,8352,323,0,0,0,0,0
515,765,8236,-44,0,0,0,0,0
516,1051,8102,-100,0,0,0,0,0
517,1297,7887,212,0,0,0,0,0
518,1102,8277,46,0,0,0,0,0
519,883,8166,18,0,0,0,0,0
520,1080,7954,346,0,0,0,0,0
521,1103,8406,660,0,0,0,0,0
522,666,8180,15,0,0,0,0,0
523,1370,8147,208,0,0,0,0,0
524,986,7998,397,0,0,0,0,0
525,930,8211,370,0,0,0,0,0
526,1230,7993,110,0,0,0,0,0
527,1016,8058,300,0,0,0,0,0
528,1084,8350,104,0,0,0,0,0
529,1118,7882,288,0,0,0,0,0
530,1045,8249,130,0,0,0,0,0
531,1026,8020,505,0,0,0,0,0
532,1026,8009,270,0,0,0,0,0
533,1379,7870,4,347,0,0,0,0
534,1435,8147,229,0,0,0,0,0
535,979,8090,460,366,0,0,0,0
536,1110,8168,450,0,0,0,0,0
537,904,7757,582,0,0,0,0,0
538,1043,8002,578,1148,0,0,0,0
539,1312,8233,815,0,0,0,0,0
540,1507,7867,489,0,0,0,0,0
541,1394,7916,491,0,0,0,0,0
542,1425,8510,568,0,0,0,0,0
543,1589,7554,511,1129,0,0,0,0
544,993,8244,32,0,0,0,0,0
545,792,7479,46,0,0,0,0,0
546,1753,8549,-22,0,0,0,0,0
547,1022,8738,-649,0,0,0,0,0
548,1034,7476,-1204,0,0,0,0,0
549,1530,7947,-595,0,0,0,0,0
550,1288,8276,-385,0,0,0,0,0
551,1306,7755,-141,0,0,0,0,0
552,1087,8082,370,0,0,0,0,0
553,1626,7282,-244,0,0,0,0,0
554,1051,8404,-659,0,0,0,0,0
555,1050,7364,-754,0,0,0,0,0
556,1475,7973,-886,0,0,0,0,0
557,1032,7298,-119,0,0,0,0,0
558,1057,8636,-223,0,0,0,0,0
559,907,7888,-206,0,0,0,0,0
560,1255,7586,326,0,0,0,0,0
561,2231,8418,599,0,0,0,0,0
562,1692,7731,546,0,0,0,0,0
563,1958,8014,526,0,0,0,0,0
564,1755,8102,576,0,0,0,0,0
565,1699,7780,197,0,0,0,0,0
566,1876,7964,260,0,0,0,0,0
567,1856,8022,721,0,0,0,0,0
568,1705,7870,210,0,0,0,0,0
569,1756,8058,516,0,0,0,0,0
570,1592,7801,236,0,0,0,0,0
571,1846,8356,375,0,0,0,0,0
572,1815,8084,541,0,0,0,0,0
573,1713,7914,964,1203,0,0,0,0
574,1616,8122,165,0,0,0,0,0
575,1962,8232,364,0,0,0,0,0
576,1250,7952,401,0,0,0,0,0
577,1468,8172,331,0,0,0,0,0
578,1236,7781,944,0,0,0,0,0
579,1552,8258,-39,0,0,0,0,0
580,1372,8094,782,0,0,0,0,0
581,1044,8046,230,0,0,0,0,0
582,1302,7970,-198,0,0,0,0,0
583,775,7860,451,0,0,0,0,0
584,930,8049,451,0,0,0,0,0
585,1148,7994,288,0,0,0,0,0
586,1024,8117,420,0,0,0,0,0
587,408,8459,184,0,0,0,0,0
588,1191,7777,644,0,0,0,0,0
589,1265,8448,-51,1185,0,0,0,0
590,943,7516,-495,0,0,0,0,0
591,1094,7944,494,0,0,0,0,0
592,1435,7825,107,0,0,0,0,0
593,1346,8102,216,0,0,0,0,0
594,946,8062,1121,0,0,0,0,0
595,772,8128,549,0,0,0,0,0
596,1452,7967,-141,0,0,0,0,0
597,994,7996,265,0,0,0,0,0
598,784,8203,843,0,0,0,0,0
599,1170,8089,416,0,0,0,0,0
600,1215,8222,1226,0,0,0,0,0
601,1328,8017,-170,0,0,0,0,0
602,837,8011,260,0,0,0,0,0
603,882,8074,974,0,0,0,0,0
604,1312,8136,-77,0,0,0,0,0
605,1088,8225,-179,0,0,0,0,0
606,1094,7650,503,0,0,0,0,0
607,1588,8117,242,0,0,0,0,0
608,1195,7755,684,0,0,0,0,0
609,1506,8310,462,0,0,0,0,0
610,1359,7618,131,0,0,0,0,0
611,1226,7936,337,0,0,0,0,0
612,1034,7957,-117,0,0,0,0,0
613,897,8692,-772,0,0,0,0,0
614,900,7850,-373,0,0,0,0,0
615,1206,8113,-464,0,0,0,0,0
616,1052,8261,-30,0,0,0,0,0
617,916,7755,332,0,0,0,0,0
618,1077,7987,312,0,0,0,0,0
619,1417,8429,88,0,0,0,0,0
620,1044,7794,860,0,0,0,0,0
621,1043,7822,-181,0,0,0,0,0
622,914,8111,402,0,0,0,0,0
623,1202,7952,894,0,0,0,0,0
624,507,8148,792,0,0,0,0,0
625,1033,7542,257,0,0,0,0,0
626,986,8515,771,0,0,0,0,0
627,1195,7728,944,536,0,0,0,0
628,620,8187,144,0,0,0,0,0
629,700,7990,948,1187,0,0,0,0
630,1300,8330,364,0,0,0,0,0
631,618,8287,984,1191,0,0,0,0
632,901,7595,932,0,0,0,0,0
633,815,8369,653,1191,0,0,0,0
634,809,8138,612,0,0,0,0,0
635,1148,8000,488,0,0,0,0,0
636,867,8126,636,0,0,0,0,0
637,672,7839,734,1174,0,0,0,0
638,1016,8190,789,0,0,0,0,0
639,1021,8740,1367,0,0,0,0,0
640,753,7794,352,0,0,0,0,0
641,1030,7974,552,0,0,0,0,0
642,1139,8261,250,0,0,0,0,0
643,1026,7866,-104,0,0,0,0,0
644,982,8138,35,0,0,0,0,0
645,487,8478,248,0,0,0,0,0
646,1240,7902,292,0,0,0,0,0
647,596,8050,341,0,0,0,0,0
648,428,7476,382,0,0,0,0,0
649,581,7902,-406,0,0,0,0,0
650,1364,8540,896,0,0,0,0,0
651,799,8453,123,0,0,0,0,0
652,1009,7033,-268,0,0,0,0,0
653,854,8248,603,0,0,0,0,0
654,837,8160,1198,0,0,0,0,0
655,1300,7821,-357,0,0,0,0,0
656,1128,8356,369,0,0,0,0,0
657,840,7644,47,0,0,0,0,0
658,786,8234,999,0,0,0,0,0
659,1496,8202,131,787,0,0,0,0
660,798,8048,714,0,0,0,0,0
661,453,8174,20,542,0,0,0,0
662,1678,8724,1245,0,0,0,0,0
663,772,7914,395,789,0,0,0,0
664,449,7376,312,0,0,0,0,0
665,1044,7611,692,549,0,0,0,0
666,1317,8263,1203,0,0,0,0,0
667,1363,8526,-172,552,0,0,0,0
668,1115,8289,946,0,0,0,0,0
669,1003,7492,133,0,0,0,0,0
670,1017,8166,764,0,0,0,0,0
671,1142,7864,374,0,0,0,0,0
672,1193,8166,791,0,0,0,0,0
673,885,8258,-78,0,0,0,0,0
674,786,7886,648,0,0,0,0,0
675,1252,7675,775,0,0,0,0,0
676,1002,8763,458,0,0,0,0,0
677,1141,8575,864,0,0,0,0,0
678,1093,7877,701,0,0,0,0,0
679,823,7659,-2,0,0,0,0,0
680,1340,8166,498,0,0,0,0,0
681,633,7391,469,0,0,0,0,0
682,1156,9166,987,0,0,0,0,0
683,1184,8732,1069,1189,0,0,0,0
684,692,7765,20,0,0,0,0,0
685,1049,7960,1037,1189,0,0,0,0
686,1075,8095,357,0,0,0,0,0
687,1169,7963,910,0,0,0,0,0
688,911,8582,421,0,0,0,0,0
689,840,7907,1163,0,0,0,0,0
690,1075,8544,-357,0,0,0,0,0
691,830,7937,873,0,0,0,0,0
692,1248,8318,-14,0,0,0,0,0
693,846,8037,406,0,0,0,0,0
694,920,8506,657,0,0,0,0,0
695,1033,8059,134,0,0,0,0,0
696,780,7759,-132,0,0,0,0,0
697,701,8278,297,0,0,0,0,0
698,1048,8305,-32,0,0,0,0,0
699,942,8450,322,0,0,0,0,0
700,857,8248,1020,0,0,0,0,0
701,1001,7786,456,0,0,0,0,0
702,774,8025,694,0,0,0,0,0
703,930,8116,835,0,0,0,0,0
704,822,7998,-104,0,0,0,0,0
705,673,7965,-134,0,0,0,0,0
706,798,7936,-114,0,0,0,0,0
707,799,8307,490,790,0,0,0,0
708,574,7703,-34,0,0,0,0,0
709,995,8492,348,623,0,0,0,0
710,617,8354,125,0,0,0,0,0
711,769,7772,-321,625,0,0,0,0
712,482,7563,0,0,0,0,0,0
713,446,8340,1256,627,0,0,0,0
714,930,8478,995,0,0,0,0,0
715,1093,8184,490,627,0,0,0,0
716,1103,7478,220,0,0,0,0,0
717,511,8289,784,628,0,0,0,0
718,929,8286,794,0,0,0,0,0
719,950,8030,393,628,0,0,0,0
720,558,7906,666,0,0,0,0,0
721,884,8264,648,627,0,0,0,0
722,690,8094,546,0,0,0,0,0
723,834,8300,704,0,0,0,0,0
724,800,8095,-224,0,0,0,0,0
725,550,8568,680,0,0,0,0,0
726,616,7909,746,0,0,0,0,0
727,637,7850,718,0,0,0,0,0
728,548,8492,356,0,0,0,0,0
729,672,8122,710,1188,0,0,0,0
730,779,7876,444,0,0,0,0,0
731,759,8288,661,1188,0,0,0,0
732,1082,7794,451,0,0,0,0,0
733,752,8137,543,0,0,0,0,0
734,484,7784,964,0,0,0,0,0
735,1064,8426,712,0,0,0,0,0
736,846,7987,1283,0,0,0,0,0
737,1053,8041,525,0,0,0,0,0
738,952,7720,744,0,0,0,0,0
739,971,8363,350,0,0,0,0,0
740,932,7901,1052,0,0,0,0,0
741,770,7630,1203,0,0,0,0,0
742,503,7980,896,0,0,0,0,0
743,624,7808,1245,0,0,0,0,0
744,857,7989,374,0,0,0,0,0
745,1004,8134,972,0,0,0,0,0
746,409,8233,1324,0,0,0,0,0
747,290,7502,328,0,0,0,0,0
748,654,8195,1017,0,0,0,0,0
749,665,8470,472,0,0,0,0,0
750,-88,7994,963,0,0,0,0,0
751,-217,7901,423,0,0,0,0,0
752,-76,8850,762,792,0,0,0,0
753,-174,8572,1028,0,0,0,0,0
754,-298,8031,591,757,0,0,0,0
755,-189,8479,730,0,0,0,0,0
756,-395,8053,1291,789,0,0,0,0
757,-78,8346,1098,0,0,0,0,0
758,-135,8025,1474,791,0,0,0,0
759,32,7710,233,0,0,0,0,0
760,-58,8477,542,0,0,0,0,0
761,238,7909,1364,0,0,0,0,0
762,-216,8484,383,1240,0,0,0,0
763,-47,8602,1030,0,0,0,0,0
764,212,7924,750,0,0,0,0,0
765,-272,8455,652,0,0,0,0,0
766,73,8100,1689,1241,0,0,0,0
767,-612,7746,-144,0,0,0,0,0
768,77,8549,601,857,0,0,0,0
769,-524,8434,640,0,0,0,0,0
770,290,7972,778,880,0,0,0,0
771,14,8876,1045,0,0,0,0,0
772,54,7895,-760,0,0,0,0,0
773,722,8120,200,0,0,0,0,0
774,587,7929,-648,0,0,0,0,0
775,629,7620,-480,0,0,0,0,0
776,-750,7760,610,0,0,0,0,0
777,-416,8756,1226,0,0,0,0,0
778,192,8564,648,1241,0,0,0,0
779,-151,7470,371,0,0,0,0,0
780,251,8064,1248,0,0,0,0,0
781,-331,9436,978,0,0,0,0,0
782,214,7638,-64,0,0,0,0,0
783,-99,8252,347,0,0,0,0,0
784,402,8598,186,0,0,0,0,0
785,488,7816,-676,0,0,0,0,0
786,-388,7612,-282,0,0,0,0,0
787,225,8576,-372,0,0,0,0,0
788,545,6444,-697,0,0,0,0,0
789,-168,7908,-1087,0,0,0,0,0
790,221,8869,-693,0,0,0,0,0
791,662,8084,-378,0,0,0,0,0
792,401,7930,61,0,0,0,0,0
793,516,8668,690,0,0,0,0,0
794,300,8299,398,0,0,0,0,0
795,436,7318,970,0,0,0,0,0
796,2,7948,-27,0,0,0,0,0
797,354,7536,-385,0,0,0,0,0
798,316,8240,652,0,0,0,0,0
799,-730,8094,552,0,0,0,0,0
800,915,8175,772,0,0,0,0,0
801,191,9241,-2,0,0,0,0,0
802,-1070,7570,167,0,0,0,0,0
803,-879,7946,20,0,0,0,0,0
804,-527,8723,366,0,0,0,0,0
805,-498,9672,42,0,0,0,0,0
806,-1075,7617,-555,932,0,0,0,0
807,-696,8318,438,0,0,0,0,0
808,-469,8306,-1129,0,0,0,0,0
809,304,8174,-156,0,0,0,0,0
810,604,9303,-454,0,0,0,0,0
811,-44,7692,-1158,0,0,0,0,0
812,-57,8271,-539,0,0,0,0,0
813,217,7714,-907,0,0,0,0,0
814,-203,7665,-362,0,0,0,0,0
815,774,7447,-1329,0,0,0,0,0
816,242,8216,-109,0,0,0,0,0
817,7,7879,-345,0,0,0,0,0
818,131,7920,-994,0,0,0,0,0
819,388,7966,-441,0,0,0,0,0
820,559,8233,-513,0,0,0,0,0
821,272,8389,968,0,0,0,0,0
822,993,7734,-21,0,0,0,0,0
823,404,8836,-328,0,0,0,0,0
824,-111,8171,-22,0,0,0,0,0
825,244,7376,-138,0,0,0,0,0
826,-173,8988,27,0,0,0,0,0
827,893,8855,246,0,0,0,0,0
828,656,7831,672,0,0,0,0,0
829,-166,7894,-487,0,0,0,0,0
830,542,8291,-388,0,0,0,0,0
831,564,8511,156,0,0,0,0,0
832,-210,8304,758,771,0,0,0,0
833,-139,8710,857,0,0,0,0,0
834,267,8528,-268,770,0,0,0,0
835,-15,7843,-644,0,0,0,0,0
836,160,7343,-1014,771,0,0,0,0
837,137,7978,218,0,0,0,0,0
838,108,8625,-134,1122,0,0,0,0
839,520,7908,938,0,0,0,0,0
840,-319,8163,-484,1118,0,0,0,0
841,269,7516,150,0,0,0,0,0
842,-723,8985,262,1090,0,0,0,0
843,-123,7627,-328,0,0,0,0,0
844,1642,10614,-428,0,0,0,0,0
845,-374,7319,-438,0,0,0,0,0
846,-46,8349,-589,0,0,0,0,0
847,-285,7080,-1564,0,0,0,0,0
848,40,8355,-1955,0,0,0,0,0
849,61,8335,-1450,0,0,0,0,0
850,-23,7140,-1314,0,0,0,0,0
851,46,8442,-1640,0,0,0,0,0
852,-548,8030,-470,964,0,0,0,0
853,86,8315,-246,0,0,0,0,0
854,-107,7857,-242,0,0,0,0,0
855,10,8127,282,0,0,0,0,0
856,-177,8376,-775,0,0,0,0,0
857,541,8130,-108,0,0,0,0,0
858,314,7926,-1044,0,0,0,0,0
859,139,8582,-624,0,0,0,0,0
860,430,7572,-516,0,0,0,0,0
861,574,8285,-861,0,0,0,0,0
862,657,7775,-730,119,0,0,0,0
863,99,8249,-883,0,0,0,0,0
864,328,7621,-338,732,0,0,0,0
865,682,7656,-887,0,0,0,0,0
866,772,8184,-525,276,0,0,0,0
867,756,8206,-45,0,0,0,0,0
868,635,8210,-510,732,0,0,0,0
869,282,8019,32,0,0,0,0,0
870,698,7476,221,464,0,0,0,0
871,555,8798,-781,0,0,0,0,0
872,822,8332,1014,731,0,0,0,0
873,517,8007,-423,0,0,0,0,0
874,370,7675,155,0,0,0,0,0
875,474,8332,415,0,0,0,0,0
876,525,8371,-417,0,0,0,0,0
877,496,8403,0,0,0,0,0,0
878,421,7414,75,0,0,0,0,0
879,363,7879,720,0,0,0,0,0
880,713,7993,141,0,0,0,0,0
881,759,7898,932,0,0,0,0,0
882,1120,8692,666,0,0,0,0,0
883,1434,7862,-699,0,0,0,0,0
884,1018,7912,276,0,0,0,0,0
885,1108,8186,-447,0,0,0,0,0
886,1264,8127,-512,0,0,0,0,0
887,1221,8180,-850,0,0,0,0,0
888,1020,8060,479,0,0,0,0,0
889,1387,8030,236,0,0,0,0,0
890,1542,7996,501,0,0,0,0,0
891,2024,7800,316,0,0,0,0,0
892,1141,7752,-679,0,0,0,0,0
893,1051,7531,-59,0,0,0,0,0
894,1233,8466,229,0,0,0,0,0
895,1674,7659,-930,402,0,0,0,0
896,1204,7969,-210,0,0,0,0,0
897,1224,8099,-772,921,0,0,0,0
898,1585,7943,302,0,0,0,0,0
899,1660,8032,-906,931,0,0,0,0
900,1106,7535,-829,1075,0,0,0,0
901,907,7250,-139,0,0,0,0,0
902,1206,8639,-119,0,0,0,0,0
903,976,7954,-856,0,0,0,0,0
904,971,8169,847,0,0,0,0,0
905,790,8712,969,0,0,0,0,0
906,1122,7816,-471,1057,0,0,0,0
907,1072,8018,-320,0,0,0,0,0
908,1042,8320,-303,0,0,0,0,0
909,467,8706,343,0,0,0,0,0
910,702,7692,584,0,0,0,0,0
911,598,8181,286,0,0,0,0,0
912,1030,8067,76,0,0,0,0,0
913,871,7935,609,0,0,0,0,0
914,878,8282,-194,0,0,0,0,0
915,751,8028,574,0,0,0,0,0
916,670,8774,-988,0,0,0,0,0
917,619,7719,-352,0,0,0,0,0
918,628,8285,445,211,0,0,0,0
919,1344,8032,248,960,0,0,0,0
920,983,7740,-238,0,0,0,0,0
921,1095,8391,-532,1023,0,0,0,0
922,734,8097,-263,0,0,0,0,0
923,1032,7800,124,0,0,0,0,0
924,445,8251,-71,0,0,0,0,0
925,1014,8051,-382,0,0,0,0,0
926,873,8555,-272,840,0,0,0,0
927,670,7417,-87,0,0,0,0,0
928,728,7434,-732,1040,0,0,0,0
929,1217,8540,-688,0,0,0,0,0
930,362,8577,-155,0,0,0,0,0
931,1037,7942,32,0,0,0,0,0
932,910,7691,-641,0,0,0,0,0
933,954,7852,48,0,0,0,0,0
934,674,7612,88,0,0,0,0,0
935,665,8590,-452,0,0,0,0,0
936,846,7584,575,0,0,0,0,0
937,1500,8110,-174,0,0,0,0,0
938,1059,7805,111,0,0,0,0,0
939,1480,7401,11,0,0,0,0,0
940,1602,7753,320,0,0,0,0,0
941,1316,7722,-1815,0,0,0,0,0
942,1129,7801,452,0,0,0,0,0
943,1604,8954,1195,0,0,0,0,0
944,1318,7950,-405,0,0,0,0,0
945,1028,7684,411,0,0,0,0,0
946,1520,9069,-748,0,0,0,0,0
947,1833,7352,-238,0,0,0,0,0
948,1394,8584,-226,0,0,0,0,0
949,829,7336,1068,0,0,0,0,0
950,910,7849,-1628,0,0,0,0,0
951,1726,8095,-678,0,0,0,0,0
952,1712,8084,181,0,0,0,0,0
953,1756,8584,-682,0,0,0,0,0
954,1295,7877,-710,0,0,0,0,0
955,899,8079,-185,0,0,0,0,0
956,1382,8584,-343,0,0,0,0,0
957,1430,7672,-222,0,0,0,0,0
958,2007,7582,14,0,0,0,0,0
959,1732,8769,-21,0,0,0,0,0
960,1517,8211,423,0,0,0,0,0
961,1717,8190,284,0,0,0,0,0
962,1689,7836,-994,0,0,0,0,0
963,2143,7544,-1292,0,0,0,0,0
964,2196,7704,-1110,0,0,0,0,0
965,2034,7550,-127,0,0,0,0,0
966,1904,8303,-724,0,0,0,0,0
967,2225,8247,-667,0,0,0,0,0
968,1923,7705,-967,0,0,0,0,0
969,1370,7728,-1182,0,0,0,0,0
970,2027,8229,-1124,0,0,0,0,0
971,1839,8196,-1127,738,0,0,0,0
972,2113,8075,-1260,0,0,0,0,0
973,1479,7545,-650,732,0,0,0,0
974,2646,8148,-1341,0,0,0,0,0
975,1793,8029,-364,1033,0,0,0,0
976,1793,8100,-906,0,0,0,0,0
977,1907,7717,20,718,0,0,0,0
978,1610,7527,-506,0,0,0,0,0
979,1896,8296,-457,1062,0,0,0,0
980,2061,8014,-547,0,0,0,0,0
981,1300,7496,-350,1073,0,0,0,0
982,1459,7804,-684,0,0,0,0,0
983,2196,7562,-351,0,0,0,0,0
984,1726,8161,-332,0,0,0,0,0
985,1466,8364,-181,0,0,0,0,0
986,1945,8204,-69,0,0,0,0,0
987,1901,7737,-433,0,0,0,0,0
988,2165,8155,-621,0,0,0,0,0
989,1812,7725,9,0,0,0,0,0
990,1639,7486,-1300,0,0,0,0,0
991,1602,7654,-682,0,0,0,0,0
992,2062,8838,18,0,0,0,0,0
993,1973,8120,-302,0,0,0,0,0
994,1882,7956,266,0,0,0,0,0
995,2150,7851,436,0,0,0,0,0
996,2411,8152,-130,0,0,0,0,0
997,2077,7964,-229,0,0,0,0,0
998,1952,7560,-80,0,0,0,0,0
999,1992,7924,-34,0,0,0,0,0
1000,2232,7486,-281,0,0,0,0,0
1001,1747,8500,-272,0,0,0,0,0
1002,2228,7716,196,0,0,0,0,0
1003,1930,7395,-310,0,0,0,0,0
1004,2079,8128,298,0,0,0,0,0
1005,2221,7732,-1161,0,0,0,0,0
1006,2084,8205,-37,0,0,0,0,0
1007,1327,8042,436,0,0,0,0,0
1008,2214,8226,-552,0,0,0,0,0
1009,2190,7866,-728,0,0,0,0,0
1010,1833,7802,63,0,0,0,0,0
1011,2240,8856,-503,0,0,0,0,0
1012,2512,8730,166,0,0,0,0,0
1013,2180,7895,61,0,0,0,0,0
1014,1711,7473,-78,0,0,0,0,0
1015,1975,7686,550,0,0,0,0,0
1016,2215,8640,-224,0,0,0,0,0
1017,2308,8235,402,0,0,0,0,0
1018,2331,8312,509,0,0,0,0,0
1019,2392,7473,-86,0,0,0,0,0
1020,1974,7622,-474,0,0,0,0,0
1021,2100,8408,380,0,0,0,0,0
1022,1948,7925,515,0,0,0,0,0
1023,2089,7725,634,0,0,0,0,0
1024,2507,7953,248,0,0,0,0,0
1025,2442,8078,538,0,0,0,0,0
1026,2047,7810,505,0,0,0,0,0
1027,2648,7536,265,0,0,0,0,0
1028,2305,7999,76,0,0,0,0,0
1029,2361,8042,669,0,0,0,0,0
1030,2099,7767,385,0,0,0,0,0
1031,1954,7684,1555,0,0,0,0,0
1032,2248,7540,808,0,0,0,0,0
1033,2767,8592,351,0,0,0,0,0
1034,2980,8556,152,0,0,0,0,0
1035,2453,7436,930,0,0,0,0,0
1036,2222,7392,175,0,0,0,0,0
1037,2472,7752,626,0,0,0,0,0
1038,2186,8030,716,0,0,0,0,0
1039,2035,8024,406,0,0,0,0,0
1040,1980,7940,-41,0,0,0,0,0
1041,2840,7809,-685,1159,0,0,0,0
1042,2524,7400,42,0,0,0,0,0
1043,2659,7766,344,0,0,0,0,0
1044,2687,7550,442,0,0,0,0,0
1045,2388,8346,584,0,0,0,0,0
1046,2987,8131,-143,0,0,0,0,0
1047,2226,7630,664,1149,0,0,0,0
1048,2050,7252,-529,0,0,0,0,0
1049,2451,8024,308,0,0,0,0,0
1050,2757,8222,680,0,0,0,0,0
1051,2134,7853,659,0,0,0,0,0
1052,2492,7707,216,0,0,0,0,0
1053,2324,7469,430,0,0,0,0,0
1054,2544,8230,-392,0,0,0,0,0
1055,2519,7983,0,1149,0,0,0,0
1056,2024,7795,934,0,0,0,0,0
1057,2492,7441,-211,1143,0,0,0,0
1058,2410,7940,214,0,0,0,0,0
1059,2256,8380,835,865,0,0,0,0
1060,2058,7909,560,0,0,0,0,0
1061,2058,7960,70,0,0,0,0,0
1062,2056,7366,81,0,0,0,0,0
1063,1764,7486,628,865,0,0,0,0
1064,2300,8376,440,0,0,0,0,0
1065,1400,8476,162,865,0,0,0,0
1066,2041,7310,-807,0,0,0,0,0
1067,2458,8629,1420,1159,0,0,0,0
1068,1863,7886,-199,0,0,0,0,0
1069,2272,7549,-46,862,0,0,0,0
1070,2181,7532,-251,0,0,0,0,0
1071,1914,7838,400,0,0,0,0,0
1072,1671,7871,-484,0,0,0,0,0
1073,2081,8033,374,0,0,0,0,0
1074,1644,7946,-214,0,0,0,0,0
1075,2121,7915,152,0,0,0,0,0
1076,2086,7772,-110,0,0,0,0,0
1077,1965,7868,-166,0,0,0,0,0
1078,1810,7394,-201,0,0,0,0,0
1079,1725,8474,470,0,0,0,0,0
1080,2047,8104,346,0,0,0,0,0
1081,1790,8014,630,0,0,0,0,0
1082,2155,7722,270,0,0,0,0,0
1083,2208,7970,356,0,0,0,0,0
1084,1526,7828,-265,0,0,0,0,0
1085,1789,7962,1044,0,0,0,0,0
1086,1711,8695,574,0,0,0,0,0
1087,1705,8280,339,0,0,0,0,0
1088,1614,7657,572,0,0,0,0,0
1089,1775,8146,646,0,0,0,0,0
1090,1782,7779,-10,0,0,0,0,0
1091,1618,8521,474,0,0,0,0,0
1092,1834,7759,180,0,0,0,0,0
1093,2034,7905,230,0,0,0,0,0
1094,1774,7486,-214,0,0,0,0,0
1095,1728,8089,273,0,0,0,0,0
1096,1758,7954,290,0,0,0,0,0
1097,1988,7962,0,0,0,0,0,0
1098,2072,8114,136,0,0,0,0,0
1099,1778,7893,-358,0,0,0,0,0
1100,1726,8294,961,0,0,0,0,0
1101,2302,8435,1329,0,0,0,0,0
1102,2111,8540,512,0,0,0,0,0
1103,1810,8256,840,0,0,0,0,0
1104,2023,7467,488,0,0,0,0,0
1105,1614,7655,-134,0,0,0,0,0
1106,1922,7972,-398,0,0,0,0,0
1107,839,7614,-308,0,0,0,0,0
1108,298,7496,262,0,0,0,0,0
1109,353,7979,111,0,0,0,0,0
1110,134,8435,-654,1073,0,0,0,0
1111,122,9214,-150,0,0,0,0,0
1112,54,7616,-238,1033,0,0,0,0
1113,-693,7827,-780,0,0,0,0,0
1114,-276,7984,-475,0,0,0,0,0
1115,-293,8187,-120,0,0,0,0,0
1116,32,8488,663,0,0,0,0,0
1117,756,7971,130,0,0,0,0,0
1118,434,8070,300,1087,0,0,0,0
1119,515,8098,108,0,0,0,0,0
1120,594,8348,393,1107,0,0,0,0
1121,712,7844,63,0,0,0,0,0
1122,827,8212,-275,784,0,0,0,0
1123,193,8531,355,0,0,0,0,0
1124,510,7852,68,777,0,0,0,0
1125,-442,8124,-119,0,0,0,0,0
1126,-513,7960,89,770,0,0,0,0
1127,-57,7921,14,0,0,0,0,0
1128,299,7731,570,0,0,0,0,0
1129,241,8082,178,0,0,0,0,0
1130,165,8214,660,0,0,0,0,0
1131,-56,7490,420,0,0,0,0,0
1132,-347,8832,266,0,0,0,0,0
1133,-286,7911,78,0,0,0,0,0
1134,-66,8170,412,0,0,0,0,0
1135,-44,8402,-102,0,0,0,0,0
1136,-538,8478,-496,0,0,0,0,0
1137,-976,8212,75,0,0,0,0,0
1138,-1773,8164,-238,0,0,0,0,0
1139,-734,7578,-616,0,0,0,0,0
1140,-618,8495,-224,0,0,0,0,0
1141,-421,8062,1160,0,0,0,0,0
1142,-662,8572,-27,0,0,0,0,0
1143,-771,8588,294,0,0,0,0,0
1144,239,7977,104,0,0,0,0,0
1145,-180,7485,119,0,0,0,0,0
1146,-348,7922,-304,0,0,0,0,0
1147,-120,8258,1113,1223,0,0,0,0
1148,27,8424,-193,0,0,0,0,0
1149,300,8444,857,0,0,0,0,0
1150,-116,8168,676,0,0,0,0,0
1151,-624,7344,-578,0,0,0,0,0
1152,-172,8164,613,0,0,0,0,0
1153,-167,7887,-172,0,0,0,0,0
1154,-436,7822,-585,0,0,0,0,0
1155,187,8416,165,0,0,0,0,0
1156,20,7864,48,0,0,0,0,0
1157,-158,8275,343,0,0,0,0,0
1158,-232,8209,468,0,0,0,0,0
1159,84,7466,212,0,0,0,0,0
1160,61,8534,579,0,0,0,0,0
1161,-24,8420,371,0,0,0,0,0
1162,-189,8277,76,699,0,0,0,0
1163,244,7897,503,0,0,0,0,0
1164,216,8366,371,1209,0,0,0,0
1165,-359,8557,16,0,0,0,0,0
1166,99,7812,46,1206,0,0,0,0
1167,302,7535,104,0,0,0,0,0
1168,286,8847,140,0,0,0,0,0
1169,754,8041,654,0,0,0,0,0
1170,138,7449,-320,0,0,0,0,0
1171,-298,7708,253,0,0,0,0,0
1172,310,8319,706,0,0,0,0,0
1173,108,8067,650,0,0,0,0,0
1174,528,7737,324,0,0,0,0,0
1175,197,8702,-50,0,0,0,0,0
1176,292,7917,1422,0,0,0,0,0
1177,604,7725,464,660,0,0,0,0
1178,1008,8183,631,0,0,0,0,0
1179,1142,8013,538,659,0,0,0,0
1180,1570,8132,757,788,0,0,0,0
1181,1340,7092,322,0,0,0,0,0
1182,2690,8849,851,1052,0,0,0,0
1183,1887,8255,219,0,0,0,0,0
1184,1737,8203,581,1061,0,0,0,0
1185,1946,8083,378,0,0,0,0,0
1186,1665,7593,368,1245,0,0,0,0
1187,2142,7720,488,0,0,0,0,0
1188,2482,8249,391,0,0,0,0,0
1189,2130,7921,159,0,0,0,0,0
1190,2689,6972,-241,0,0,0,0,0
1191,1298,7966,346,0,0,0,0,0
1192,2471,8266,190,0,0,0,0,0
1193,1873,7797,408,0,0,0,0,0
1194,2416,8482,569,1229,0,0,0,0
1195,2201,7237,-49,0,0,0,0,0
1196,2064,7595,691,1225,0,0,0,0
1197,1220,8465,263,0,0,0,0,0
1198,1355,7347,351,0,0,0,0,0
1199,881,8090,59,0,0,0,0,0
1200,458,8232,448,0,0,0,0,0
1201,916,8080,-777,0,0,0,0,0
1202,406,7846,-573,0,0,0,0,0
1203,-862,7944,-1529,0,0,0,0,0
1204,-313,8073,144,0,0,0,0,0
1205,-542,9253,-1028,0,0,0,0,0
1206,172,6447,256,0,0,0,0,0
1207,-467,7445,204,0,0,0,0,0
1208,421,9368,-64,0,0,0,0,0
1209,73,6671,318,0,0,0,0,0
1210,479,10452,280,0,0,0,0,0
1211,312,7154,599,0,0,0,0,0
1212,-454,7568,446,0,0,0,0,0
1213,-509,8077,720,0,0,0,0,0
1214,816,7313,1021,789,0,0,0,0
1215,1268,8962,1021,0,0,0,0,0
1216,578,7797,1061,1229,0,0,0,0
1217,2856,8597,853,0,0,0,0,0
1218,3818,7258,452,0,0,0,0,0
1219,2680,7329,-819,0,0,0,0,0
1220,2327,8647,1629,0,0,0,0,0
1221,2872,7664,-310,0,0,0,0,0
1222,3031,8934,-264,0,0,0,0,0
1223,2228,7288,-44,0,0,0,0,0
1224,1498,8581,278,0,0,0,0,0
1225,2164,8785,-389,0,0,0,0,0
1226,1858,7528,548,0,0,0,0,0
1227,2944,7380,-234,0,0,0,0,0
1228,3622,8855,-384,0,0,0,0,0
1229,2090,8163,-600,0,0,0,0,0
1230,2080,6307,124,0,0,0,0,0
1231,3012,7418,150,0,0,0,0,0
1232,2488,7864,-393,0,0,0,0,0
1233,3518,8457,-714,0,0,0,0,0
1234,3027,8674,-1119,0,0,0,0,0
1235,3442,8154,-1304,345,0,0,0,0
1236,2542,8080,-1087,0,0,0,0,0
1237,3763,6828,-1730,0,0,0,0,0
1238,3529,7918,-958,0,0,0,0,0
1239,3204,7876,-261,1087,0,0,0,0
1240,2918,8077,-672,0,0,0,0,0
1241,3106,8716,-475,1108,0,0,0,0
1242,2645,7144,32,0,0,0,0,0
1243,3166,7022,-1107,0,0,0,0,0
1244,4100,8052,-176,0,0,0,0,0
1245,3299,8488,-88,0,0,0,0,0
1246,3216,7928,-147,0,0,0,0,0
1247,3932,8293,-904,1180,0,0,0,0
1248,3390,7962,-1745,0,0,0,0,0
1249,3579,7720,-1929,0,0,0,0,0
1250,3083,7650,-1853,0,0,0,0,0
1251,3232,7726,-921,0,0,0,0,0
1252,2773,6967,-841,0,0,0,0,0
1253,3548,7528,-1620,0,0,0,0,0
1254,2942,8136,-1765,0,0,0,0,0
1255,2965,7159,-1514,0,0,0,0,0
1256,2402,7167,-1241,0,0,0,0,0
1257,3066,8713,-1995,0,0,0,0,0
1258,2257,7886,-1332,0,0,0,0,0
1259,2404,7651,-1767,0,0,0,0,0
1260,2179,7856,-1169,0,0,0,0,0
1261,2387,7562,-1796,581,0,0,0,0
1262,2407,7440,-1370,0,0,0,0,0
1263,2294,8346,-1526,744,0,0,0,0
1264,2368,8672,-1388,0,0,0,0,0
1265,2357,8104,-1094,213,0,0,0,0
1266,2415,7864,-2045,0,0,0,0,0
1267,1780,6876,-743,174,0,0,0,0
1268,2039,8616,-1458,0,0,0,0,0
1269,2134,7596,-1809,143,0,0,0,0
1270,1885,8458,-1396,0,0,0,0,0
1271,1402,7474,-1922,108,0,0,0,0
1272,1755,7402,-1537,0,0,0,0,0
1273,1872,8069,-584,11,0,0,0,0
1274,1438,8510,-772,0,0,0,0,0
1275,1578,8046,-1277,106,0,0,0,0
1276,1461,8144,-1379,0,0,0,0,0
1277,1745,7612,-615,0,0,0,0,0
1278,1261,7932,-1204,0,0,0,0,0
1279,1078,7934,-1526,0,0,0,0,0
1280,1242,8302,-1179,0,0,0,0,0
1281,1276,8094,-782,787,0,0,0,0
1282,949,7957,-1125,0,0,0,0,0
1283,848,7821,-1679,0,0,0,0,0
1284,850,8814,-1250,0,0,0,0,0
1285,1240,7651,-1139,0,0,0,0,0
1286,886,8121,-1410,0,0,0,0,0
1287,1008,7893,-1226,0,0,0,0,0
1288,1112,8143,-784,0,0,0,0,0
1289,927,8574,-1264,0,0,0,0,0
1290,1268,8012,-1152,0,0,0,0,0
1291,1048,8078,-1419,0,0,0,0,0
1292,1268,8058,-1351,0,0,0,0,0
1293,1904,8216,1993,0,0,0,0,0
1294,822,5638,-4324,0,0,0,0,0
1295,3141,9010,1116,0,0,0,0,0
1296,1528,8484,1788,0,0,0,0,0
1297,-850,8842,-83,0,0,0,0,0
1298,742,6664,-49,792,0,0,0,0
1299,2543,8246,628,0,0,0,0,0
1300,359,7953,158,1158,0,0,0,0
1301,648,8011,-81,0,0,0,0,0
1302,2355,7951,114,1145,0,0,0,0
1303,1203,8044,465,0,0,0,0,0
1304,362,7850,-186,1126,0,0,0,0
1305,1287,8514,292,0,0,0,0,0
1306,1771,7874,311,0,0,0,0,0
1307,1014,8002,161,0,0,0,0,0
1308,916,7870,22,1013,0,0,0,0
1309,1562,8239,-50,0,0,0,0,0
1310,1279,7602,298,0,0,0,0,0
1311,1034,8364,80,0,0,0,0,0
1312,1205,8007,-99,0,0,0,0,0
1313,1165,7590,150,0,0,0,0,0
1314,1220,8095,494,0,0,0,0,0
1315,932,8560,-126,793,0,0,0,0
1316,1317,7698,501,0,0,0,0,0
1317,1134,8110,261,790,0,0,0,0
1318,840,7931,244,0,0,0,0,0
1319,1248,8014,476,221,0,0,0,0
1320,1088,8184,238,0,0,0,0,0
1321,813,8465,576,1157,0,0,0,0
1322,1029,8029,212,0,0,0,0,0
1323,1184,8057,154,0,0,0,0,0
1324,1096,7965,130,0,0,0,0,0
1325,814,7996,208,0,0,0,0,0
1326,1049,7877,196,0,0,0,0,0
1327,1019,7932,-19,0,0,0,0,0
1328,808,8333,497,0,0,0,0,0
1329,934,8046,174,1167,0,0,0,0
1330,760,7940,168,0,0,0,0,0
1331,983,8036,608,0,0,0,0,0
1332,606,8011,264,0,0,0,0,0
1333,711,8139,236,1179,0,0,0,0
1334,460,7757,-109,0,0,0,0,0
1335,978,7830,-260,0,0,0,0,0
1336,742,7888,471,0,0,0,0,0
1337,585,7760,-80,0,0,0,0,0
1338,714,8160,291,0,0,0,0,0
1339,1138,8243,-158,0,0,0,0,0
1340,750,7998,-144,0,0,0,0,0
1341,808,7678,74,0,0,0,0,0
1342,560,8630,535,0,0,0,0,0
1343,646,8215,44,0,0,0,0,0
1344,829,7896,362,0,0,0,0,0
1345,-46,7849,-315,0,0,0,0,0
1346,538,7454,-86,0,0,0,0,0
1347,513,8122,-794,0,0,0,0,0
1348,513,8343,-211,792,0,0,0,0
1349,468,7756,5,0,0,0,0,0
1350,254,8004,232,428,0,0,0,0
1351,326,8440,164,0,0,0,0,0
1352,392,8240,743,1207,0,0,0,0
1353,170,8558,18,0,0,0,0,0
1354,342,8270,676,0,0,0,0,0
1355,218,8404,487,0,0,0,0,0
1356,89,7843,-173,0,0,0,0,0
1357,29,8036,87,0,0,0,0,0
1358,215,8286,-34,0,0,0,0,0
1359,206,8290,272,0,0,0,0,0
1360,-55,8074,-659,1223,0,0,0,0
1361,276,7952,-500,0,0,0,0,0
1362,7,8682,790,0,0,0,0,0
1363,-455,8222,366,0,0,0,0,0
1364,-125,8218,628,0,0,0,0,0
1365,-202,7780,489,0,0,0,0,0
1366,-297,8079,380,1234,0,0,0,0
1367,45,8509,-180,0,0,0,0,0
1368,26,8055,-444,0,0,0,0,0
1369,-260,7856,176,0,0,0,0,0
1370,-195,7969,505,0,0,0,0,0
1371,425,8776,615,0,0,0,0,0
1372,-136,8048,-32,0,0,0,0,0
1373,-170,8188,-702,0,0,0,0,0
1374,-726,8210,-201,0,0,0,0,0
1375,-54,8023,-498,0,0,0,0,0
1376,-96,8100,-350,0,0,0,0,0
1377,-826,8068,-690,794,0,0,0,0
1378,-680,8695,-172,0,0,0,0,0
1379,39,8782,733,792,0,0,0,0
1380,-742,7947,-67,0,0,0,0,0
1381,-270,8174,-37,614,0,0,0,0
1382,-230,8396,-760,0,0,0,0,0
1383,54,7876,330,1230,0,0,0,0
1384,-88,8035,240,0,0,0,0,0
1385,-440,7298,-149,0,0,0,0,0
1386,-791,8148,-187,0,0,0,0,0
1387,327,8072,-64,0,0,0,0,0
1388,-29,9106,-232,0,0,0,0,0
1389,-410,8000,-444,0,0,0,0,0
1390,159,8267,826,0,0,0,0,0
1391,46,8567,485,0,0,0,0,0
1392,123,8686,303,0,0,0,0,0
1393,-298,7420,-386,0,0,0,0,0
1394,1020,8729,167,0,0,0,0,0
1395,596,7673,-2,0,0,0,0,0
1396,1726,8209,-122,0,0,0,0,0
1397,770,8212,-711,0,0,0,0,0
1398,1013,7695,-762,0,0,0,0,0
1399,1762,8081,374,0,0,0,0,0
1400,2036,7836,749,0,0,0,0,0
1401,3030,8263,24,0,0,0,0,0
1402,2686,7046,-1093,1128,0,0,0,0
1403,2672,8270,-124,1128,0,0,0,0
1404,2357,8387,266,0,0,0,0,0
1405,2547,8002,-414,0,0,0,0,0
1406,1693,7514,-797,0,0,0,0,0
1407,1010,8026,288,0,0,0,0,0
1408,839,8026,218,0,0,0,0,0
1409,1074,8120,250,0,0,0,0,0
1410,1016,8100,261,0,0,0,0,0
1411,1037,8144,280,0,0,0,0,0
1412,938,8162,224,0,0,0,0,0
1413,1051,8092,189,0,0,0,0,0
1414,991,8015,154,0,0,0,0,0
1415,945,8060,192,0,0,0,0,0
1416,927,8186,92,0,0,0,0,0
1417,994,8053,-9,0,0,0,0,0
1418,794,8045,-606,0,0,0,0,0
1419,852,8118,-644,0,0,0,0,0
1420,966,8060,-210,0,0,0,0,0
1421,1138,8121,922,0,0,0,0,0
1422,977,8250,618,0,0,0,0,0
1423,1055,8034,347,0,0,0,0,0
1424,1046,8130,338,0,0,0,0,0
1425,948,8158,699,1010,0,0,0,0
1426,1002,8070,582,0,0,0,0,0
1427,1078,8084,333,0,0,0,0,0
1428,1032,8090,530,0,0,0,0,0
1429,1002,8074,540,1040,0,0,0,0
1430,998,8075,479,0,0,0,0,0
1431,1023,8030,409,86,0,0,0,0
1432,1038,8141,498,0,0,0,0,0
1433,1015,8076,528,80,0,0,0,0
1434,1004,8068,444,0,0,0,0,0
1435,1034,8114,466,76,0,0,0,0
1436,1026,8073,491,0,0,0,0,0
1437,1001,8078,501,791,0,0,0,0
1438,998,8072,433,0,0,0,0,0
1439,1044,8114,475,791,0,0,0,0
1440,1027,8062,519,0,0,0,0,0
1441,1002,8085,490,790,0,0,0,0
1442,1051,8080,497,0,0,0,0,0
1443,1002,8082,461,70,0,0,0,0
1444,1150,8217,432,0,0,0,0,0
1445,983,7962,489,0,0,0,0,0
1446,1024,8008,304,0,0,0,0,0
1447,1058,8004,512,1092,0,0,0,0
1448,1044,8138,574,0,0,0,0,0
1449,978,8100,443,1092,0,0,0,0
1450,979,8010,498,0,0,0,0,0
1451,1060,8101,432,0,0,0,0,0
1452,1086,8107,497,0,0,0,0,0
1453,996,8038,505,1072,0,0,0,0
1454,1015,8095,478,0,0,0,0,0
1455,1034,8113,458,0,0,0,0,0
1456,1018,8074,528,0,0,0,0,0
1457,951,8058,486,0,0,0,0,0
1458,1010,8130,489,0,0,0,0,0
1459,1100,8083,511,0,0,0,0,0
1460,992,8071,497,0,0,0,0,0
1461,1031,8099,443,0,0,0,0,0
1462,943,8005,-64,0,0,0,0,0
1463,1083,8034,297,0,0,0,0,0
1464,584,7956,442,0,0,0,0,0
1465,1302,8424,1280,0,0,0,0,0
1466,984,7945,306,0,0,0,0,0
1467,1082,8052,368,0,0,0,0,0
1468,1164,8225,720,0,0,0,0,0
1469,901,8059,486,0,0,0,0,0
1470,1020,7986,488,0,0,0,0,0
1471,1098,8128,485,0,0,0,0,0
1472,1045,8097,523,0,0,0,0,0
1473,970,8025,536,0,0,0,0,0
1474,1058,8094,404,0,0,0,0,0
1475,1055,8109,510,0,0,0,0,0
1476,976,8042,499,0,0,0,0,0
1477,1006,8084,411,0,0,0,0,0
1478,1048,8105,472,0,0,0,0,0
1479,984,8063,467,0,0,0,0,0
1480,1012,8094,463,0,0,0,0,0
1481,1032,8069,461,0,0,0,0,0
1482,1026,8099,491,790,0,0,0,0
1483,1009,8091,487,0,0,0,0,0
1484,1018,8086,466,5,0,0,0,0
1485,1032,8096,476,0,0,0,0,0
1486,1026,8072,488,0,0,0,0,0
1487,1018,8079,460,0,0,0,0,0
1488,1025,8072,494,0,0,0,0,0
1489,991,8066,488,0,0,0,0,0
1490,1010,8100,494,0,0,0,0,0
1491,1151,7922,1236,0,0,0,0,0
1492,844,8301,-60,0,0,0,0,0
1493,1152,7958,-136,0,0,0,0,0
1494,640,7998,-46,0,0,0,0,0
1495,1247,8085,648,791,0,0,0,0
1496,972,8159,476,0,0,0,0,0
1497,1064,8004,644,161,0,0,0,0
1498,1041,8133,101,0,0,0,0,0
1499,1064,8038,592,143,0,0,0,0
1500,987,7985,524,0,0,0,0,0
1501,1083,7878,1332,929,0,0,0,0
1502,1353,8474,1239,0,0,0,0,0
1503,760,8095,155,0,0,0,0,0
1504,1046,8032,497,0,0,0,0,0
1505,880,8109,328,1046,0,0,0,0
1506,1048,8156,477,0,0,0,0,0
1507,911,8094,410,0,0,0,0,0
1508,1132,8048,649,0,0,0,0,0
1509,926,8120,319,0,0,0,0,0
1510,1000,8021,495,0,0,0,0,0
1511,1063,8124,464,0,0,0,0,0
1512,1026,8114,638,80,0,0,0,0
1513,955,8010,457,0,0,0,0,0
1514,999,8085,592,76,0,0,0,0
1515,1022,8065,400,0,0,0,0,0
1516,985,8036,490,1023,0,0,0,0
1517,1024,8062,561,0,0,0,0,0
1518,1031,8068,543,0,0,0,0,0
1519,1062,8091,645,0,0,0,0,0
1520,994,8088,531,0,0,0,0,0
1521,1142,8039,839,0,0,0,0,0
1522,959,8128,544,0,0,0,0,0
1523,1114,8080,633,0,0,0,0,0
1524,936,8076,584,1045,0,0,0,0
1525,1028,8123,694,0,0,0,0,0
1526,976,8052,728,0,0,0,0,0
1527,1071,8102,640,0,0,0,0,0
1528,1061,8032,715,0,0,0,0,0
1529,1062,8039,774,0,0,0,0,0
1530,1064,8129,756,0,0,0,0,0
1531,1017,8014,738,0,0,0,0,0
1532,1020,8042,830,0,0,0,0,0
1533,1052,8060,853,0,0,0,0,0
1534,1144,8073,767,0,0,0,0,0
1535,1078,8110,806,0,0,0,0,0
1536,953,8044,854,0,0,0,0,0
1537,1123,8052,892,0,0,0,0,0
1538,1115,8068,884,100,0,0,0,0
1539,981,7954,732,0,0,0,0,0
1540,1205,8052,824,0,0,0,0,0
1541,1134,7994,825,0,0,0,0,0
1542,1169,7918,926,0,0,0,0,0
1543,1091,8200,1088,0,0,0,0,0
1544,1146,8117,895,1128,0,0,0,0
1545,1241,7892,928,0,0,0,0,0
1546,1115,8220,926,0,0,0,0,0
1547,1261,8130,922,0,0,0,0,0
1548,1034,7950,755,1141,0,0,0,0
1549,1216,8051,928,0,0,0,0,0
1550,1105,8011,718,1150,0,0,0,0
1551,1178,7926,814,0,0,0,0,0
1552,1220,7953,976,0,0,0,0,0
1553,1023,8098,1015,0,0,0,0,0
1554,1184,8174,887,0,0,0,0,0
1555,1430,7759,386,0,0,0,0,0
1556,1262,8528,1077,0,0,0,0,0
1557,1036,8136,1309,225,0,0,0,0
1558,938,7792,769,0,0,0,0,0
1559,1406,8084,1064,792,0,0,0,0
1560,1337,8104,913,252,0,0,0,0
1561,1051,8048,797,0,0,0,0,0
1562,1043,7608,1018,0,0,0,0,0
1563,1284,8036,912,0,0,0,0,0
1564,1458,8416,803,0,0,0,0,0
1565,1353,8026,1162,0,0,0,0,0
1566,1132,8022,456,0,0,0,0,0
1567,1188,8240,1161,0,0,0,0,0
1568,1282,8302,1142,0,0,0,0,0
1569,1080,7719,335,0,0,0,0,0
1570,1105,8179,1716,1197,0,0,0,0
1571,992,8302,1542,0,0,0,0,0
1572,1431,8405,1329,1189,0,0,0,0
1573,1263,8062,848,0,0,0,0,0
1574,942,7968,620,0,0,0,0,0
1575,1627,8089,562,0,0,0,0,0
1576,1080,8180,1048,0,0,0,0,0
1577,1314,7678,370,0,0,0,0,0
1578,1316,8057,294,0,0,0,0,0
1579,1140,7815,642,0,0,0,0,0
1580,1310,7933,1113,0,0,0,0,0
1581,1225,7961,807,453,0,0,0,0
1582,1414,7952,202,0,0,0,0,0
1583,1351,8101,1278,469,0,0,0,0
1584,933,8242,748,0,0,0,0,0
1585,1697,7686,350,485,0,0,0,0
1586,1057,9100,676,0,0,0,0,0
1587,1486,8202,1496,500,0,0,0,0
1588,1514,7769,1055,0,0,0,0,0
1589,1171,8239,340,1248,0,0,0,0
1590,1244,7927,1088,0,0,0,0,0
1591,1562,8281,176,0,0,0,0,0
1592,1283,7960,763,0,0,0,0,0
1593,1266,8200,108,0,0,0,0,0
1594,1729,7969,1375,0,0,0,0,0
1595,2003,8106,294,0,0,0,0,0
1596,1261,8226,304,0,0,0,0,0
1597,1680,8265,586,1200,0,0,0,0
1598,1266,7402,1480,0,0,0,0,0
1599,1921,7996,565,0,0,0,0,0
1600,1608,7927,68,0,0,0,0,0
1601,940,7648,642,0,0,0,0,0
1602,1585,8410,846,0,0,0,0,0
1603,1830,7506,1109,0,0,0,0,0
1604,1605,8352,460,0,0,0,0,0
1605,1234,8335,335,0,0,0,0,0
1606,1344,7329,606,0,0,0,0,0
1607,820,8047,-219,0,0,0,0,0
1608,1094,7741,1150,0,0,0,0,0
1609,776,8716,1118,0,0,0,0,0
1610,769,9360,1155,0,0,0,0,0
1611,805,7863,-768,0,0,0,0,0
1612,484,7691,-682,0,0,0,0,0
1613,307,8178,-160,0,0,0,0,0
1614,238,8202,-212,0,0,0,0,0
1615,773,7941,1222,0,0,0,0,0
1616,286,8082,736,0,0,0,0,0
1617,938,8403,339,0,0,0,0,0
1618,158,8426,478,0,0,0,0,0
1619,495,7960,765,0,0,0,0,0
1620,1269,8426,705,0,0,0,0,0
1621,886,7877,196,0,0,0,0,0
1622,330,8792,1400,0,0,0,0,0
1623,77,7815,1017,766,0,0,0,0
1624,645,8796,160,0,0,0,0,0
1625,407,7870,538,776,0,0,0,0
1626,-448,7906,257,0,0,0,0,0
1627,-375,8346,42,785,0,0,0,0
1628,-428,7581,766,0,0,0,0,0
1629,-469,9214,844,0,0,0,0,0
1630,0,7659,177,0,0,0,0,0
1631,-103,8116,1076,1227,0,0,0,0
1632,237,8486,1300,0,0,0,0,0
1633,232,8126,847,0,0,0,0,0
1634,42,8438,1334,0,0,0,0,0
1635,402,8616,664,0,0,0,0,0
1636,330,7528,-468,0,0,0,0,0
1637,-378,7538,580,1239,0,0,0,0
1638,-948,8147,142,0,0,0,0,0
1639,17,8749,704,0,0,0,0,0
1640,-1070,8699,1546,0,0,0,0,0
1641,-730,8486,76,0,0,0,0,0
1642,-824,8381,654,0,0,0,0,0
1643,-488,8400,879,0,0,0,0,0
1644,-240,7524,242,0,0,0,0,0
1645,-778,8460,44,0,0,0,0,0
1646,-727,7845,-162,0,0,0,0,0
1647,-526,8061,-259,0,0,0,0,0
1648,-940,7972,190,0,0,0,0,0
1649,-707,8194,72,0,0,0,0,0
1650,-222,7899,-410,0,0,0,0,0
1651,-810,8208,140,898,0,0,0,0
1652,-810,8098,406,0,0,0,0,0
1653,-764,7910,80,904,0,0,0,0
1654,-664,8157,399,0,0,0,0,0
1655,-833,9064,120,1230,0,0,0,0
1656,-117,8446,1166,0,0,0,0,0
1657,-892,8958,452,0,0,0,0,0
1658,-359,8298,570,916,0,0,0,0
1659,-371,8883,751,0,0,0,0,0
1660,-468,8591,815,0,0,0,0,0
1661,-420,7820,948,0,0,0,0,0
1662,-694,8332,733,0,0,0,0,0
1663,-578,8252,-995,0,0,0,0,0
1664,-990,8359,620,0,0,0,0,0
1665,-858,7343,-22,0,0,0,0,0
1666,-229,8868,348,0,0,0,0,0
1667,-148,7716,604,0,0,0,0,0
1668,-683,8588,-83,793,0,0,0,0
1669,371,8986,811,0,0,0,0,0
1670,568,8552,505,946,0,0,0,0
1671,-265,7485,562,0,0,0,0,0
1672,448,8906,278,1228,0,0,0,0
1673,608,7612,70,0,0,0,0,0
1674,-32,8356,1038,1227,0,0,0,0
1675,175,7735,-336,0,0,0,0,0
1676,1083,8044,661,1233,0,0,0,0
1677,1609,7941,152,0,0,0,0,0
1678,1427,8282,1404,0,0,0,0,0
1679,1413,7632,1246,0,0,0,0,0
1680,1224,8380,613,0,0,0,0,0
1681,2418,7984,1041,0,0,0,0,0
1682,1414,8210,967,0,0,0,0,0
1683,1782,8029,1144,0,0,0,0,0
1684,2172,7560,843,0,0,0,0,0
1685,2162,8054,154,1212,0,0,0,0
1686,2450,7198,827,0,0,0,0,0
1687,1588,8194,-245,0,0,0,0,0
1688,2116,7657,722,0,0,0,0,0
1689,2328,8018,-332,0,0,0,0,0
1690,2011,7742,654,0,0,0,0,0
1691,2057,7631,-52,0,0,0,0,0
1692,1595,8698,199,0,0,0,0,0
1693,1712,7840,298,0,0,0,0,0
1694,1344,7926,124,0,0,0,0,0
1695,1503,7917,106,0,0,0,0,0
1696,2195,8681,-229,0,0,0,0,0
1697,1903,7525,186,0,0,0,0,0
1698,1491,7700,77,1099,0,0,0,0
1699,1784,8402,38,0,0,0,0,0
1700,1998,8094,-576,1240,0,0,0,0
1701,821,7802,16,0,0,0,0,0
1702,1117,7942,840,1233,0,0,0,0
1703,1063,8132,-382,0,0,0,0,0
1704,855,8215,142,1234,0,0,0,0
1705,699,8548,814,0,0,0,0,0
1706,414,7484,341,0,0,0,0,0
1707,496,8472,15,0,0,0,0,0
1708,218,8811,-623,0,0,0,0,0
1709,-578,8436,100,0,0,0,0,0
1710,-1002,8130,-554,1213,0,0,0,0
1711,-523,8035,209,0,0,0,0,0
1712,-851,8356,311,1218,0,0,0,0
1713,-280,8290,-184,0,0,0,0,0
1714,-78,8494,684,0,0,0,0,0
1715,51,7734,455,0,0,0,0,0
1716,-383,7768,471,0,0,0,0,0
1717,-682,8187,65,0,0,0,0,0
1718,278,8628,1081,0,0,0,0,0
1719,-66,7785,312,0,0,0,0,0
1720,204,7820,932,0,0,0,0,0
1721,-387,8355,-636,0,0,0,0,0
1722,42,8484,-27,0,0,0,0,0
1723,76,8405,93,0,0,0,0,0
1724,430,8358,688,0,0,0,0,0
1725,-609,8522,-114,0,0,0,0,0
1726,257,8038,1194,0,0,0,0,0
1727,673,8240,544,951,0,0,0,0
1728,87,7216,569,0,0,0,0,0
1729,-377,9172,106,1209,0,0,0,0
1730,228,8502,341,0,0,0,0,0
1731,20,8669,888,0,0,0,0,0
1732,592,8208,334,0,0,0,0,0
1733,-16,7680,-475,0,0,0,0,0
1734,-378,8514,-102,0,0,0,0,0
1735,732,8177,368,0,0,0,0,0
1736,142,7260,214,0,0,0,0,0
1737,-236,8888,653,1213,0,0,0,0
1738,-246,8922,7,0,0,0,0,0
1739,154,7955,236,0,0,0,0,0
1740,221,8648,624,0,0,0,0,0
1741,-17,8135,1234,0,0,0,0,0
1742,-277,7793,947,0,0,0,0,0
1743,544,9264,2300,0,0,0,0,0
1744,427,8159,99,0,0,0,0,0
1745,-428,8006,1036,0,0,0,0,0
1746,798,9038,-200,898,0,0,0,0
1747,287,7260,1022,0,0,0,0,0
1748,-38,8385,1144,898,0,0,0,0
1749,593,8453,1084,0,0,0,0,0
1750,384,8696,100,1224,0,0,0,0
1751,136,8122,301,0,0,0,0,0
1752,267,8167,-240,1224,0,0,0,0
1753,132,8284,406,0,0,0,0,0
1754,-128,7278,677,1225,0,0,0,0
1755,708,8405,512,0,0,0,0,0
1756,447,8230,176,0,0,0,0,0
1757,-563,7787,-374,0,0,0,0,0
1758,-270,7036,8,0,0,0,0,0
1759,-66,8116,-894,0,0,0,0,0
1760,229,10550,1198,0,0,0,0,0
1761,-508,7898,272,0,0,0,0,0
1762,315,8941,-707,0,0,0,0,0
1763,-1116,7672,-138,0,0,0,0,0
1764,-548,7145,-250,0,0,0,0,0
1765,-26,8669,1262,0,0,0,0,0
1766,-565,7464,649,0,0,0,0,0
1767,-680,9287,-1,0,0,0,0,0
1768,-466,8773,-186,1015,0,0,0,0
1769,579,8321,727,0,0,0,0,0
1770,265,7568,567,1237,0,0,0,0
1771,1012,7450,1638,0,0,0,0,0
1772,1504,8682,1070,0,0,0,0,0
1773,2278,7709,-611,0,0,0,0,0
1774,2006,8153,445,0,0,0,0,0
1775,1628,7833,-316,0,0,0,0,0
1776,3918,7906,1038,0,0,0,0,0
1777,2178,7713,371,0,0,0,0,0
1778,2292,7565,-53,1123,0,0,0,0
1779,1898,7866,706,0,0,0,0,0
1780,1848,7852,-176,0,0,0,0,0
1781,1567,8491,-300,0,0,0,0,0
1782,1473,7629,-367,0,0,0,0,0
1783,1522,7244,-996,0,0,0,0,0
1784,1872,8177,237,0,0,0,0,0
1785,2238,8140,-132,0,0,0,0,0
1786,2002,7895,1060,0,0,0,0,0
1787,1608,7417,28,0,0,0,0,0
1788,996,8983,88,0,0,0,0,0
1789,663,8434,280,0,0,0,0,0
1790,264,8259,-315,0,0,0,0,0
1791,435,8592,610,0,0,0,0,0
1792,541,8028,-237,0,0,0,0,0
1793,-205,8137,-1,0,0,0,0,0
1794,117,8491,171,0,0,0,0,0
1795,82,8039,108,0,0,0,0,0
1796,138,8414,201,0,0,0,0,0
1797,-14,7607,-429,0,0,0,0,0
1798,-160,9000,-320,788,0,0,0,0
1799,741,8109,636,0,0,0,0,0
1800,-490,8705,-448,537,0,0,0,0
1801,892,7993,-576,0,0,0,0,0
1802,-680,7724,-370,1307,0,0,0,0
1803,-787,8074,-1912,0,0,0,0,0
1804,-833,7764,-1052,1304,0,0,0,0
1805,-386,8130,-332,0,0,0,0,0
1806,-235,8410,-1020,125,0,0,0,0
1807,445,8353,-1198,0,0,0,0,0
1808,118,8146,-409,142,0,0,0,0
1809,-60,7615,-1642,0,0,0,0,0
1810,49,8276,-312,1269,0,0,0,0
1811,501,7595,-98,0,0,0,0,0
1812,612,9237,368,1260,0,0,0,0
1813,1253,8160,459,0,0,0,0,0
1814,-105,7848,-89,0,0,0,0,0
1815,46,8494,-813,0,0,0,0,0
1816,275,8169,278,0,0,0,0,0
1817,452,8520,508,0,0,0,0,0
1818,770,8753,506,0,0,0,0,0
1819,506,8664,-2,0,0,0,0,0
1820,918,8511,1365,0,0,0,0,0
1821,-78,7971,459,0,0,0,0,0
1822,512,8186,1033,1209,0,0,0,0
1823,23,8092,696,0,0,0,0,0
1824,572,8284,494,0,0,0,0,0
1825,-80,7658,-656,0,0,0,0,0
1826,-201,7264,414,1233,0,0,0,0
1827,552,9441,-526,0,0,0,0,0
1828,-505,6644,-854,1236,0,0,0,0
1829,-679,8143,316,0,0,0,0,0
1830,-265,7887,-653,1209,0,0,0,0
1831,58,8684,-153,0,0,0,0,0
1832,417,8394,-274,0,0,0,0,0
1833,-1215,7733,385,0,0,0,0,0
1834,-885,9272,-598,0,0,0,0,0
1835,-1344,7061,-1052,0,0,0,0,0
1836,-1274,7818,-110,0,0,0,0,0
1837,-1477,9238,-393,0,0,0,0,0
1838,-344,9049,-68,0,0,0,0,0
1839,-872,8577,-1102,0,0,0,0,0
1840,-1101,8070,-510,0,0,0,0,0
1841,-1062,8645,-437,0,0,0,0,0
1842,-1501,8547,-783,0,0,0,0,0
1843,-1311,7992,-260,0,0,0,0,0
1844,-1332,8519,-441,0,0,0,0,0
1845,-652,8304,-580,0,0,0,0,0
1846,-292,8690,142,0,0,0,0,0
1847,-326,8406,-208,0,0,0,0,0
1848,-1204,8877,-716,0,0,0,0,0
1849,179,8331,-167,0,0,0,0,0
1850,-297,8412,263,0,0,0,0,0
1851,-383,8442,251,0,0,0,0,0
1852,646,7822,-28,0,0,0,0,0
1853,420,8342,643,0,0,0,0,0
1854,1116,7582,-435,0,0,0,0,0
1855,1325,7695,-1052,293,0,0,0,0
1856,2885,8481,-914,0,0,0,0,0
1857,1704,8038,-1034,0,0,0,0,0
1858,2494,7727,-607,0,0,0,0,0
1859,3000,8266,-367,0,0,0,0,0
1860,2722,8222,-884,0,0,0,0,0
1861,3519,7558,370,0,0,0,0,0
1862,2299,7985,-1356,0,0,0,0,0
1863,2646,7484,-1025,0,0,0,0,0
1864,1838,8803,-424,0,0,0,0,0
1865,2778,7114,-1410,0,0,0,0,0
1866,2381,8453,-1623,0,0,0,0,0
1867,2019,6738,-1569,0,0,0,0,0
1868,3247,8440,-789,0,0,0,0,0
1869,3029,7965,-812,0,0,0,0,0
1870,2212,8198,-1810,0,0,0,0,0
1871,2304,6865,-937,0,0,0,0,0
1872,2696,8260,-1680,0,0,0,0,0
1873,1986,8684,-814,0,0,0,0,0
1874,2260,8396,-1176,0,0,0,0,0
1875,2027,8154,-1972,0,0,0,0,0
1876,2347,7491,-902,0,0,0,0,0
1877,2342,7517,-2088,0,0,0,0,0
1878,2108,8334,-1459,0,0,0,0,0
1879,1835,7387,-1461,0,0,0,0,0
1880,2254,7745,-1826,0,0,0,0,0
1881,1694,7897,-1558,0,0,0,0,0
1882,2249,7476,-1922,0,0,0,0,0
1883,2399,9286,-1874,0,0,0,0,0
1884,1803,6797,-1279,0,0,0,0,0
1885,1745,7584,-1274,0,0,0,0,0
1886,1929,8034,-1385,3,0,0,0,0
1887,1810,8048,-1438,0,0,0,0,0
1888,1678,7842,-1131,159,0,0,0,0
1889,1731,8073,-2040,0,0,0,0,0
1890,1742,7959,-1371,130,0,0,0,0
1891,1696,8281,-1392,0,0,0,0,0
1892,1704,8181,-1718,788,0,0,0,0
1893,1618,7892,-1714,0,0,0,0,0
1894,2113,8090,-1069,90,0,0,0,0
1895,1887,8483,-944,0,0,0,0,0
1896,1450,8286,-453,787,0,0,0,0
1897,1614,7625,-1089,0,0,0,0,0
1898,1730,7897,-351,1128,0,0,0,0
1899,1627,8159,-1286,0,0,0,0,0
1900,1776,8484,-468,1554,0,0,0,0
1901,1811,8048,-1242,0,0,0,0,0
1902,1627,8230,-688,789,0,0,0,0
1903,1008,8126,-1134,0,0,0,0,0
1904,1130,8129,-968,792,0,0,0,0
1905,1777,8013,-1282,0,0,0,0,0
1906,1978,7987,-894,0,0,0,0,0
1907,1188,8494,-368,0,0,0,0,0
1908,1145,8052,-1579,0,0,0,0,0
1909,1476,7702,-656,0,0,0,0,0
1910,1292,8265,-1094,0,0,0,0,0
1911,1071,7930,-1995,0,0,0,0,0
1912,540,8476,-2272,0,0,0,0,0
1913,-293,6928,-2157,0,0,0,0,0
1914,4167,10028,-160,0,0,0,0,0
1915,-676,7857,-893,0,0,0,0,0
1916,114,7686,-2444,0,0,0,0,0
1917,2567,8454,-816,0,0,0,0,0
1918,1712,7887,331,0,0,0,0,0
1919,751,8166,2488,0,0,0,0,0
1920,941,7570,-1566,0,0,0,0,0
1921,1289,7166,155,0,0,0,0,0
1922,1145,7808,-784,0,0,0,0,0
1923,2618,8348,1114,0,0,0,0,0
1924,2180,8222,782,1140,0,0,0,0
1925,1154,8439,437,0,0,0,0,0
1926,1241,7914,746,0,0,0,0,0
1927,1877,7783,276,0,0,0,0,0
1928,1584,7981,-96,0,0,0,0,0
1929,1672,7884,-48,0,0,0,0,0
1930,1774,8076,-10,0,0,0,0,0
1931,1721,7878,-48,0,0,0,0,0
1932,1742,8114,428,0,0,0,0,0
1933,1802,7724,429,0,0,0,0,0
1934,2178,7846,-88,1162,0,0,0,0
1935,1964,8383,279,0,0,0,0,0
1936,1861,7659,-194,1165,0,0,0,0
1937,1588,7809,523,0,0,0,0,0
1938,1803,8125,140,371,0,0,0,0
1939,2138,7896,244,0,0,0,0,0
1940,1802,8104,1030,793,0,0,0,0
1941,1654,7929,299,0,0,0,0,0
1942,2004,8391,913,0,0,0,0,0
1943,1988,7708,18,0,0,0,0,0
1944,1962,7904,451,0,0,0,0,0
1945,2014,7740,206,0,0,0,0,0
1946,1907,8253,93,0,0,0,0,0
1947,2217,7991,525,0,0,0,0,0
1948,2076,7843,851,0,0,0,0,0
1949,2313,7832,-44,0,0,0,0,0
1950,2159,8128,263,0,0,0,0,0
1951,2332,7861,124,0,0,0,0,0
1952,1963,7644,-74,0,0,0,0,0
1953,1910,7919,857,0,0,0,0,0
1954,2346,7584,46,0,0,0,0,0
1955,2292,8209,194,0,0,0,0,0
1956,2044,7426,181,0,0,0,0,0
1957,2380,7650,712,0,0,0,0,0
1958,1709,7820,-43,0,0,0,0,0
1959,1872,8768,-141,0,0,0,0,0
1960,2708,8866,824,0,0,0,0,0
1961,2328,7580,510,0,0,0,0,0
1962,1850,7824,1200,0,0,0,0,0
1963,2326,7816,-110,0,0,0,0,0
1964,2550,8034,93,0,0,0,0,0
1965,2215,8114,-2,1196,0,0,0,0
1966,1814,7856,-775,0,0,0,0,0
1967,1824,8088,955,1172,0,0,0,0
1968,2306,8406,-62,0,0,0,0,0
1969,1990,8016,272,0,0,0,0,0
1970,2426,8104,-126,0,0,0,0,0
1971,2792,7990,-34,0,0,0,0,0
1972,2102,7784,338,0,0,0,0,0
1973,2296,7897,140,0,0,0,0,0
1974,2388,8064,-567,0,0,0,0,0
1975,2164,7582,-32,0,0,0,0,0
1976,2262,7691,-8,0,0,0,0,0
1977,2052,7876,199,0,0,0,0,0
1978,2178,8196,588,0,0,0,0,0
1979,2260,8164,249,0,0,0,0,0
1980,2136,7966,520,1175,0,0,0,0
1981,2464,8286,238,0,0,0,0,0
1982,2066,7906,-195,0,0,0,0,0
1983,2154,8076,778,0,0,0,0,0
1984,2016,8094,504,712,0,0,0,0
1985,2451,7808,-7,754,0,0,0,0
1986,1946,8060,387,0,0,0,0,0
1987,1850,7508,73,0,0,0,0,0
1988,1984,7854,122,753,0,0,0,0
1989,1918,8734,18,725,0,0,0,0
1990,1802,8248,497,0,0,0,0,0
1991,1752,7519,-142,0,0,0,0,0
1992,1935,7829,-489,0,0,0,0,0
1993,2096,8357,503,0,0,0,0,0
1994,1840,7955,214,0,0,0,0,0
1995,1760,7900,977,0,0,0,0,0
1996,2100,7927,549,0,0,0,0,0
1997,2035,7653,492,0,0,0,0,0
1998,1774,7873,448,0,0,0,0,0
1999,1778,7895,-154,0,0,0,0,0
2000,1995,7898,534,1178,0,0,0,0
2001,1853,8389,-484,0,0,0,0,0
2002,2084,8152,1151,0,0,0,0,0
2003,1712,7324,-62,0,0,0,0,0
2004,2509,8309,1405,0,0,0,0,0
2005,845,7341,1212,0,0,0,0,0
2006,2207,7873,366,0,0,0,0,0
2007,2142,8134,831,0,0,0,0,0
2008,1828,8834,1164,1178,0,0,0,0
2009,1953,8128,215,0,0,0,0,0
2010,1554,8144,639,0,0,0,0,0
2011,1890,7191,-273,0,0,0,0,0
2012,1682,8291,490,0,0,0,0,0
2013,1661,7678,656,0,0,0,0,0
2014,1660,8553,638,0,0,0,0,0
2015,1527,7506,833,0,0,0,0,0
2016,1547,7958,12,0,0,0,0,0
2017,1736,7827,402,0,0,0,0,0
2018,1248,8076,-24,0,0,0,0,0
2019,1136,7650,790,792,0,0,0,0
2020,1314,7746,289,0,0,0,0,0
2021,1642,9036,504,682,0,0,0,0
2022,1171,8295,1094,0,0,0,0,0
2023,1176,7936,348,1204,0,0,0,0
2024,904,7846,468,0,0,0,0,0
2025,1134,8263,554,0,0,0,0,0
2026,826,8340,254,0,0,0,0,0
2027,876,7784,699,1185,0,0,0,0
2028,808,8076,546,0,0,0,0,0
2029,164,8037,429,0,0,0,0,0
2030,920,8310,866,0,0,0,0,0
2031,981,8392,741,0,0,0,0,0
2032,570,7988,119,0,0,0,0,0
2033,413,8118,657,0,0,0,0,0
2034,890,8218,-12,0,0,0,0,0
2035,863,8858,573,0,0,0,0,0
2036,474,7496,489,0,0,0,0,0
2037,1191,7593,575,0,0,0,0,0
2038,667,9040,1167,0,0,0,0,0
2039,579,7834,271,0,0,0,0,0
2040,755,7850,1583,0,0,0,0,0
2041,461,8399,858,0,0,0,0,0
2042,825,8348,272,0,0,0,0,0
2043,279,8180,602,0,0,0,0,0
2044,528,8430,279,1208,0,0,0,0
2045,593,8149,786,0,0,0,0,0
2046,890,8279,1440,0,0,0,0,0
2047,547,8847,1408,0,0,0,0,0
2048,255,8293,874,0,0,0,0,0
2049,763,8259,670,751,0,0,0,0
2050,250,7994,662,0,0,0,0,0
2051,322,8100,560,757,0,0,0,0
2052,1187,8054,591,0,0,0,0,0
2053,486,7709,462,0,0,0,0,0
2054,1990,8491,-706,0,0,0,0,0
2055,1718,7534,382,0,0,0,0,0
2056,1332,7677,64,1228,0,0,0,0
2057,1361,9544,337,0,0,0,0,0
2058,3008,9171,636,0,0,0,0,0
2059,693,8891,-1188,0,0,0,0,0
2060,215,6858,276,0,0,0,0,0
2061,1367,7360,180,0,0,0,0,0
2062,1092,7798,-354,0,0,0,0,0
2063,1521,9095,1197,0,0,0,0,0
2064,1820,8633,630,0,0,0,0,0
2065,1379,8556,-140,0,0,0,0,0
2066,2018,7969,-544,0,0,0,0,0
2067,752,7634,338,0,0,0,0,0
2068,916,7001,-329,0,0,0,0,0
2069,1136,8201,-725,441,0,0,0,0
2070,1228,7927,237,0,0,0,0,0
2071,694,7998,426,445,0,0,0,0
2072,1090,8282,285,0,0,0,0,0
2073,1286,8059,203,1160,0,0,0,0
2074,1362,8376,-408,0,0,0,0,0
2075,1313,8730,800,1151,0,0,0,0
2076,1340,7134,-439,0,0,0,0,0
2077,1264,8134,428,1142,0,0,0,0
2078,1364,8041,-178,0,0,0,0,0
2079,923,8902,-167,0,0,0,0,0
2080,1452,8030,-159,0,0,0,0,0
2081,749,7508,-762,0,0,0,0,0
2082,1034,8054,700,0,0,0,0,0
2083,1376,8226,589,0,0,0,0,0
2084,1157,7947,-460,0,0,0,0,0
2085,1028,7597,-86,0,0,0,0,0
2086,888,8170,-308,0,0,0,0,0
2087,1105,8646,658,0,0,0,0,0
2088,1010,7810,-137,0,0,0,0,0
2089,1073,7476,-32,0,0,0,0,0
2090,1377,8305,144,1047,0,0,0,0
2091,973,7760,602,0,0,0,0,0
2092,1311,7690,511,0,0,0,0,0
2093,1931,8368,-327,0,0,0,0,0
2094,1817,8856,941,0,0,0,0,0
2095,1367,7796,-168,0,0,0,0,0
2096,1994,8114,-1181,0,0,0,0,0
2097,2014,7987,272,0,0,0,0,0
2098,2094,7981,602,0,0,0,0,0
2099,2065,8134,-782,0,0,0,0,0
2100,1784,7326,-1171,0,0,0,0,0
2101,1460,8638,188,0,0,0,0,0
2102,1625,7674,292,0,0,0,0,0
2103,2054,7822,207,0,0,0,0,0
2104,1781,7420,-918,0,0,0,0,0
2105,2093,8123,649,0,0,0,0,0
2106,1357,8032,1128,0,0,0,0,0
2107,1265,7282,830,0,0,0,0,0
2108,2032,8064,426,0,0,0,0,0
2109,2990,8581,986,0,0,0,0,0
2110,1614,8266,598,0,0,0,0,0
2111,1955,7166,130,1246,0,0,0,0
2112,2036,9145,-520,0,0,0,0,0
2113,2294,8486,898,0,0,0,0,0
2114,1489,7609,581,0,0,0,0,0
2115,2686,7502,252,0,0,0,0,0
2116,2373,8098,536,0,0,0,0,0
2117,2058,8126,1570,1228,0,0,0,0
2118,1837,7829,-734,0,0,0,0,0
2119,2522,8448,-656,0,0,0,0,0
2120,1562,7618,282,0,0,0,0,0
2121,1703,8883,628,0,0,0,0,0
2122,1397,7771,-999,0,0,0,0,0
2123,1175,8437,620,0,0,0,0,0
2124,1051,7432,-343,0,0,0,0,0
2125,157,8346,-556,0,0,0,0,0
2126,1239,8507,-515,0,0,0,0,0
2127,523,8289,-12,0,0,0,0,0
2128,-253,6972,-294,0,0,0,0,0
2129,96,8760,34,0,0,0,0,0
2130,61,9290,-1191,0,0,0,0,0
2131,-6,8690,148,0,0,0,0,0
2132,-364,7709,-354,607,0,0,0,0
2133,-534,8165,126,0,0,0,0,0
2134,-235,7135,-1111,0,0,0,0,0
2135,-966,8241,-500,0,0,0,0,0
2136,-357,8811,834,617,0,0,0,0
2137,-450,8514,828,0,0,0,0,0
2138,-164,8125,-1752,0,0,0,0,0
2139,-362,7424,-733,0,0,0,0,0
2140,591,9461,773,1188,0,0,0,0
2141,405,8793,266,0,0,0,0,0
2142,430,7706,702,0,0,0,0,0
2143,1237,9226,1056,0,0,0,0,0
2144,1504,7918,37,0,0,0,0,0
2145,2748,7102,559,0,0,0,0,0
2146,1254,7457,270,0,0,0,0,0
2147,1596,8466,77,0,0,0,0,0
2148,2860,8724,156,1138,0,0,0,0
2149,2084,8344,607,0,0,0,0,0
2150,2500,6825,170,0,0,0,0,0
2151,4092,8808,-229,0,0,0,0,0
2152,3344,7856,-1064,0,0,0,0,0
2153,2920,7762,-586,0,0,0,0,0
2154,3021,8722,-837,0,0,0,0,0
2155,3256,7191,342,0,0,0,0,0
2156,2377,7240,-143,0,0,0,0,0
2157,2885,6921,-468,0,0,0,0,0
2158,3817,7544,-106,0,0,0,0,0
2159,3734,8522,124,0,0,0,0,0
2160,3760,8297,273,0,0,0,0,0
2161,2785,7562,170,0,0,0,0,0
2162,3583,8085,-962,657,0,0,0,0
2163,4009,7952,-332,0,0,0,0,0
2164,3360,6711,-765,1379,0,0,0,0
2165,4020,8147,-1259,0,0,0,0,0
2166,3228,8424,-776,1390,0,0,0,0
2167,3761,7754,-880,0,0,0,0,0
2168,3364,7323,-574,1401,0,0,0,0
2169,3451,7996,-584,0,0,0,0,0
2170,3577,8182,-862,0,0,0,0,0
2171,3112,7434,-105,0,0,0,0,0
2172,3854,8142,-638,0,0,0,0,0
2173,3983,8158,-710,0,0,0,0,0
2174,3742,7050,-1079,0,0,0,0,0
2175,4310,7862,-986,0,0,0,0,0
2176,3595,8760,-1216,1154,0,0,0,0
2177,3884,8069,-1009,0,0,0,0,0
2178,3368,8052,-972,0,0,0,0,0
2179,3994,7765,-772,0,0,0,0,0
2180,3395,8292,-1900,0,0,0,0,0
2181,3508,7358,-902,0,0,0,0,0
2182,3918,7932,-892,0,0,0,0,0
2183,3722,8230,-740,0,0,0,0,0
2184,2957,7358,-1148,0,0,0,0,0
2185,3526,7798,-792,0,0,0,0,0
2186,3013,7757,-902,0,0,0,0,0
2187,2923,7356,-503,1444,0,0,0,0
2188,2738,7441,-433,0,0,0,0,0
2189,2302,8315,-1004,0,0,0,0,0
2190,2242,7622,-840,0,0,0,0,0
2191,1566,7770,-760,0,0,0,0,0
2192,2568,8477,-548,0,0,0,0,0
2193,1069,7557,-445,1037,0,0,0,0
2194,989,7877,6,0,0,0,0,0
2195,269,9561,-629,1060,0,0,0,0
2196,-49,7828,64,0,0,0,0,0
2197,-700,7288,-617,0,0,0,0,0
2198,-1368,7640,489,0,0,0,0,0
2199,-1007,9086,-369,0,0,0,0,0
2200,-248,9126,-141,0,0,0,0,0
2201,-603,8405,126,0,0,0,0,0
2202,-683,8444,-359,0,0,0,0,0
2203,40,7940,581,0,0,0,0,0
2204,-43,8322,-407,0,0,0,0,0
2205,-108,8034,603,0,0,0,0,0
2206,-143,8295,-258,0,0,0,0,0
2207,-1398,7375,-362,0,0,0,0,0
2208,-572,8850,176,0,0,0,0,0
2209,158,9403,662,0,0,0,0,0
2210,-714,7698,-308,0,0,0,0,0
2211,-965,8369,-422,0,0,0,0,0
2212,456,8498,-88,0,0,0,0,0
2213,-608,7752,-477,0,0,0,0,0
2214,-620,8698,665,0,0,0,0,0
2215,-639,7822,160,0,0,0,0,0
2216,-632,9009,97,454,0,0,0,0
2217,-2032,7846,-846,0,0,0,0,0
2218,-839,8769,24,393,0,0,0,0
2219,-643,8496,-719,0,0,0,0,0
2220,-1068,8676,-392,1240,0,0,0,0
2221,-282,8686,-376,0,0,0,0,0
2222,-1363,7816,-711,1233,0,0,0,0
2223,-1213,8940,-657,0,0,0,0,0
2224,-1096,8498,-532,1082,0,0,0,0
2225,-700,8026,-623,0,0,0,0,0
2226,-938,8846,-1062,0,0,0,0,0
2227,-1067,8097,-953,0,0,0,0,0
2228,-630,8813,-64,0,0,0,0,0
2229,-1284,7931,-653,0,0,0,0,0
2230,-1293,8110,-542,0,0,0,0,0
2231,-1033,9017,218,0,0,0,0,0
2232,-761,8335,-1193,0,0,0,0,0
2233,-1032,7672,-1411,0,0,0,0,0
2234,-1217,8452,-432,0,0,0,0,0
2235,-1433,7938,-975,0,0,0,0,0
2236,-1183,7960,-482,0,0,0,0,0
2237,-1302,8386,-1252,0,0,0,0,0
2238,-280,7869,524,1018,0,0,0,0
2239,450,8599,-652,0,0,0,0,0
2240,289,8034,401,0,0,0,0,0
2241,714,8646,500,0,0,0,0,0
2242,2293,7561,-348,1034,0,0,0,0
2243,1422,7670,650,0,0,0,0,0
2244,1908,8554,270,0,0,0,0,0
2245,1962,7306,-806,0,0,0,0,0
2246,3628,8280,-66,0,0,0,0,0
2247,3615,8279,-828,0,0,0,0,0
2248,3784,7382,-1536,0,0,0,0,0
2249,3739,7688,-445,0,0,0,0,0
2250,2610,8441,-1670,0,0,0,0,0
2251,1951,8357,-1390,0,0,0,0,0
2252,2621,7582,-366,0,0,0,0,0
2253,2534,7455,-1100,0,0,0,0,0
2254,4075,8628,-1087,0,0,0,0,0
2255,3788,7822,-756,0,0,0,0,0
2256,3399,7970,-1085,0,0,0,0,0
2257,3617,8054,-1246,0,0,0,0,0
2258,3910,7369,-1504,0,0,0,0,0
2259,3585,8400,-1515,0,0,0,0,0
2260,3013,7737,-1502,1246,0,0,0,0
2261,2925,7928,-1114,0,0,0,0,0
2262,2837,7648,-1463,1240,0,0,0,0
2263,3434,8050,-966,0,0,0,0,0
2264,3222,8277,-2038,1027,0,0,0,0
2265,3512,7776,-1733,0,0,0,0,0
2266,2679,7476,-1099,0,0,0,0,0
2267,2982,8435,-1826,0,0,0,0,0
2268,2872,7978,-1395,0,0,0,0,0
2269,2400,7502,-1215,0,0,0,0,0
2270,2863,8386,-1368,0,0,0,0,0
2271,2278,7493,-486,0,0,0,0,0
2272,3074,7999,-1420,0,0,0,0,0
2273,3010,8658,-1170,0,0,0,0,0
2274,2373,7773,-2410,0,0,0,0,0
2275,2367,7884,-1611,0,0,0,0,0
2276,2227,7712,-846,0,0,0,0,0
2277,2034,7043,-1086,0,0,0,0,0
2278,2048,7604,-562,0,0,0,0,0
2279,2385,8690,-738,0,0,0,0,0
2280,2817,8031,-909,0,0,0,0,0
2281,2120,7721,-657,0,0,0,0,0
2282,2059,8109,-778,0,0,0,0,0
2283,2695,7724,35,0,0,0,0,0
2284,2666,7863,-521,0,0,0,0,0
2285,2180,8005,-1158,0,0,0,0,0
2286,2099,7130,-157,0,0,0,0,0
2287,1586,7812,-633,0,0,0,0,0
2288,2746,7811,-1035,0,0,0,0,0
2289,2584,8828,136,0,0,0,0,0
2290,2622,7887,196,0,0,0,0,0
2291,2258,7888,20,0,0,0,0,0
2292,2422,7854,-541,0,0,0,0,0
2293,2166,7661,-133,836,0,0,0,0
2294,2121,7450,-597,0,0,0,0,0
2295,2318,8452,380,818,0,0,0,0
2296,2284,7923,-152,0,0,0,0,0
2297,1971,8258,-344,1132,0,0,0,0
2298,2192,7398,-396,0,0,0,0,0
2299,2105,7516,-422,0,0,0,0,0
2300,1741,7729,265,0,0,0,0,0
2301,2172,8406,410,761,0,0,0,0
2302,2248,7755,118,0,0,0,0,0
2303,1914,7900,-320,0,0,0,0,0
2304,1757,7240,-659,0,0,0,0,0
2305,1867,8336,153,0,0,0,0,0
2306,2012,7488,-101,0,0,0,0,0
2307,1747,8720,-360,0,0,0,0,0
2308,1606,6296,-992,0,0,0,0,0
2309,1882,8748,249,0,0,0,0,0
2310,1994,7428,-285,0,0,0,0,0
2311,2134,8163,42,0,0,0,0,0
2312,1800,8339,-320,0,0,0,0,0
2313,1869,7481,-130,0,0,0,0,0
2314,2281,8408,-567,668,0,0,0,0
2315,2268,8071,161,0,0,0,0,0
2316,2116,8200,311,656,0,0,0,0
2317,1379,7404,-703,0,0,0,0,0
2318,1896,8440,346,0,0,0,0,0
2319,1830,8217,-200,0,0,0,0,0
2320,1426,8338,-32,0,0,0,0,0
2321,1380,7414,-440,0,0,0,0,0
2322,1620,8462,-197,0,0,0,0,0
2323,1710,7626,320,0,0,0,0,0
2324,1155,8223,137,0,0,0,0,0
2325,1380,7966,-130,0,0,0,0,0
2326,1866,8224,78,0,0,0,0,0
2327,1299,8270,48,0,0,0,0,0
2328,1319,8460,670,0,0,0,0,0
2329,1636,7852,73,0,0,0,0,0
2330,2452,8472,1722,0,0,0,0,0
2331,1008,7615,1174,0,0,0,0,0
2332,2062,7962,567,0,0,0,0,0
2333,2274,8520,-742,0,0,0,0,0
2334,1689,8628,131,1197,0,0,0,0
2335,1380,7152,630,0,0,0,0,0
2336,1834,7568,-181,854,0,0,0,0
2337,1808,8301,-245,0,0,0,0,0
2338,1807,8375,69,862,0,0,0,0
2339,1972,8623,548,0,0,0,0,0
2340,1794,7799,768,0,0,0,0,0
2341,1688,7865,-46,0,0,0,0,0
2342,1959,7571,367,685,0,0,0,0
2343,2477,7869,227,0,0,0,0,0
2344,2046,7942,1014,787,0,0,0,0
2345,1906,7946,581,0,0,0,0,0
2346,1751,7680,151,788,0,0,0,0
2347,1706,7478,606,0,0,0,0,0
2348,1838,8136,190,0,0,0,0,0
2349,2218,8004,-10,0,0,0,0,0
2350,1642,7892,207,0,0,0,0,0
2351,2189,8124,61,0,0,0,0,0
2352,2229,8266,374,0,0,0,0,0
2353,1296,8041,-54,0,0,0,0,0
2354,1303,8403,248,0,0,0,0,0
2355,1459,8751,258,0,0,0,0,0
2356,1211,8146,-11,0,0,0,0,0
2357,240,7674,305,0,0,0,0,0
2358,306,8757,966,0,0,0,0,0
2359,256,7888,290,0,0,0,0,0
2360,-111,8722,-1032,0,0,0,0,0
2361,-1210,7484,68,934,0,0,0,0
2362,-935,8298,242,0,0,0,0,0
2363,-1376,8373,-392,791,0,0,0,0
2364,-918,9149,357,0,0,0,0,0
2365,-1128,8951,62,791,0,0,0,0
2366,-1725,7899,15,0,0,0,0,0
2367,-759,8440,505,925,0,0,0,0
2368,-50,8468,347,0,0,0,0,0
2369,-220,8116,-96,914,0,0,0,0
2370,-950,8149,576,0,0,0,0,0
2371,-1169,7910,-753,904,0,0,0,0
2372,-885,8356,603,0,0,0,0,0
2373,16,7574,-156,0,0,0,0,0
2374,254,8460,1396,0,0,0,0,0
2375,942,7084,1020,791,0,0,0,0
2376,-1062,9616,195,0,0,0,0,0
2377,-585,8461,262,0,0,0,0,0
2378,-678,7998,510,0,0,0,0,0
2379,-618,8607,392,0,0,0,0,0
2380,-136,8112,-290,0,0,0,0,0
2381,-350,8720,132,0,0,0,0,0
2382,-382,7048,312,0,0,0,0,0
2383,-556,9057,262,0,0,0,0,0
2384,-297,8291,-256,0,0,0,0,0
2385,15,8565,1161,0,0,0,0,0
2386,-91,8304,130,0,0,0,0,0
2387,-972,7891,465,0,0,0,0,0
2388,1002,8292,981,902,0,0,0,0
2389,1086,7843,439,0,0,0,0,0
2390,-441,8279,436,903,0,0,0,0
2391,125,8428,-160,0,0,0,0,0
2392,-52,8318,444,1225,0,0,0,0
2393,244,7527,743,0,0,0,0,0
2394,480,8078,972,0,0,0,0,0
2395,-555,8406,-236,0,0,0,0,0
2396,-742,7718,-79,0,0,0,0,0
2397,-1556,7992,-440,0,0,0,0,0
2398,-1046,9279,984,0,0,0,0,0
2399,-1087,8176,25,0,0,0,0,0
2400,149,8276,804,0,0,0,0,0
2401,135,8888,601,0,0,0,0,0
2402,636,8651,114,0,0,0,0,0
2403,1138,8046,977,0,0,0,0,0
2404,639,8682,672,0,0,0,0,0
2405,783,8292,493,0,0,0,0,0
2406,522,7191,-270,0,0,0,0,0
2407,284,8643,234,0,0,0,0,0
2408,256,8390,863,0,0,0,0,0
2409,312,8520,-94,0,0,0,0,0
2410,-26,7872,-74,0,0,0,0,0
2411,192,7555,557,0,0,0,0,0
2412,112,8696,988,0,0,0,0,0
2413,370,7819,822,0,0,0,0,0
2414,-2,7769,-27,0,0,0,0,0
2415,591,7941,60,0,0,0,0,0
2416,-407,8999,746,0,0,0,0,0
2417,-1785,8339,-541,0,0,0,0,0
2418,-1385,8546,-496,0,0,0,0,0
2419,-1320,7929,-213,0,0,0,0,0
2420,-936,8501,-124,0,0,0,0,0
2421,-551,8001,-138,0,0,0,0,0
2422,-80,8558,680,0,0,0,0,0
2423,-438,8295,136,0,0,0,0,0
2424,172,7726,743,0,0,0,0,0
2425,473,7841,620,0,0,0,0,0
2426,945,8273,615,791,0,0,0,0
2427,200,8719,-218,0,0,0,0,0
2428,-172,7643,-20,850,0,0,0,0
2429,883,7967,592,0,0,0,0,0
2430,694,8557,191,1201,0,0,0,0
2431,379,7858,438,0,0,0,0,0
2432,652,8531,196,0,0,0,0,0
2433,636,8209,815,0,0,0,0,0
2434,1030,8393,1144,0,0,0,0,0
2435,826,7435,402,0,0,0,0,0
2436,768,7973,59,0,0,0,0,0
2437,591,7109,38,0,0,0,0,0
2438,13,8538,218,0,0,0,0,0
2439,-233,8280,-276,0,0,0,0,0
2440,572,7610,347,0,0,0,0,0
2441,436,8996,98,0,0,0,0,0
2442,2362,7938,202,0,0,0,0,0
2443,1337,6978,635,0,0,0,0,0
2444,1627,8786,132,0,0,0,0,0
2445,1464,8744,18,0,0,0,0,0
2446,1216,7562,700,0,0,0,0,0
2447,639,7663,14,0,0,0,0,0
2448,1102,6856,784,810,0,0,0,0
2449,1530,8903,517,0,0,0,0,0
2450,1040,9124,-132,790,0,0,0,0
2451,831,7674,69,0,0,0,0,0
2452,1471,7019,-132,811,0,0,0,0
2453,1531,7377,-558,0,0,0,0,0
2454,1304,8686,-162,0,0,0,0,0
2455,1188,8328,221,0,0,0,0,0
2456,984,9116,1495,0,0,0,0,0
2457,1541,7376,592,0,0,0,0,0
2458,1221,7435,293,0,0,0,0,0
2459,765,7378,570,0,0,0,0,0
2460,792,8159,426,0,0,0,0,0
2461,1058,8225,1082,0,0,0,0,0
2462,1034,8034,1188,0,0,0,0,0
2463,1011,7639,875,0,0,0,0,0
2464,1452,7960,694,0,0,0,0,0
2465,676,8151,700,0,0,0,0,0
2466,1078,8192,1481,0,0,0,0,0
2467,1676,8692,706,0,0,0,0,0
2468,1140,7479,815,0,0,0,0,0
2469,324,6906,620,0,0,0,0,0
2470,752,8728,49,0,0,0,0,0
2471,738,8326,850,0,0,0,0,0
2472,606,8355,552,0,0,0,0,0
2473,1452,8186,1561,0,0,0,0,0
2474,912,8175,877,0,0,0,0,0
2475,721,7624,395,0,0,0,0,0
2476,868,8044,1121,0,0,0,0,0
2477,627,7696,961,0,0,0,0,0
2478,934,8208,611,0,0,0,0,0
2479,692,8616,1037,0,0,0,0,0
2480,578,8074,623,0,0,0,0,0
2481,374,7533,380,0,0,0,0,0
2482,-69,8226,-577,0,0,0,0,0
2483,104,8438,1264,792,0,0,0,0
2484,64,8455,1046,0,0,0,0,0
2485,405,7720,96,0,0,0,0,0
2486,-868,7655,-18,0,0,0,0,0
2487,340,9281,967,0,0,0,0,0
2488,251,7154,-696,0,0,0,0,0
2489,195,8503,1328,0,0,0,0,0
2490,-154,8571,1278,0,0,0,0,0
2491,362,8768,967,0,0,0,0,0
2492,2,8322,1858,0,0,0,0,0
2493,-611,8054,22,843,0,0,0,0
2494,-179,8226,56,0,0,0,0,0
2495,-393,7876,-219,846,0,0,0,0
2496,-294,8668,-226,0,0,0,0,0
2497,404,8299,795,849,0,0,0,0
2498,-169,8568,766,0,0,0,0,0
2499,-555,7250,1069,853,0,0,0,0
2500,195,8736,-101,0,0,0,0,0
2501,-90,7818,-221,0,0,0,0,0
2502,-638,8356,45,0,0,0,0,0
2503,-444,8462,729,0,0,0,0,0
2504,682,8670,248,0,0,0,0,0
2505,-194,7472,-8,0,0,0,0,0
2506,345,9058,450,0,0,0,0,0
2507,-132,7584,-224,0,0,0,0,0
2508,-462,7557,-66,1226,0,0,0,0
2509,579,8746,-135,0,0,0,0,0
2510,-913,8506,1110,1230,0,0,0,0
2511,-872,8331,-528,0,0,0,0,0
2512,314,8440,918,0,0,0,0,0
2513,-652,7613,-625,0,0,0,0,0
2514,-461,8452,-204,0,0,0,0,0
2515,-440,8551,-93,0,0,0,0,0
2516,-673,8468,-129,0,0,0,0,0
2517,-471,7538,-60,0,0,0,0,0
2518,-974,9096,459,0,0,0,0,0
2519,-562,7865,984,0,0,0,0,0
2520,-350,7884,-148,0,0,0,0,0
2521,-781,8624,635,0,0,0,0,0
2522,-1347,8656,312,0,0,0,0,0
2523,-510,8838,698,0,0,0,0,0
2524,-866,8978,579,0,0,0,0,0
2525,-1216,7652,-224,791,0,0,0,0
2526,-1152,8071,46,0,0,0,0,0
2527,-1609,7944,678,1018,0,0,0,0
2528,-981,8310,418,0,0,0,0,0
2529,-1612,8454,1312,1032,0,0,0,0
2530,-1527,8668,307,0,0,0,0,0
2531,-626,8100,-496,1248,0,0,0,0
2532,-985,8007,939,0,0,0,0,0
2533,-682,7589,-708,0,0,0,0,0
2534,-1759,7897,-673,0,0,0,0,0
2535,740,8692,1845,0,0,0,0,0
2536,1386,8136,596,0,0,0,0,0
2537,611,7229,447,0,0,0,0,0
2538,1434,6862,753,0,0,0,0,0
2539,2364,8071,405,0,0,0,0,0
2540,3570,8545,1622,0,0,0,0,0
2541,3549,7975,-1409,1235,0,0,0,0
2542,3244,7758,804,0,0,0,0,0
2543,3415,8218,626,1232,0,0,0,0
2544,2789,8481,392,0,0,0,0,0
2545,2327,7620,480,0,0,0,0,0
2546,4062,8554,910,0,0,0,0,0
2547,4012,7508,238,0,0,0,0,0
2548,2955,7901,-591,0,0,0,0,0
2549,2799,8026,480,0,0,0,0,0
2550,4360,8523,600,0,0,0,0,0
2551,4263,8490,-40,0,0,0,0,0
2552,3278,7692,196,0,0,0,0,0
2553,3250,7228,-137,0,0,0,0,0
2554,2967,7075,-16,0,0,0,0,0
2555,3519,7647,-1038,0,0,0,0,0
2556,3666,8391,357,0,0,0,0,0
2557,2657,7470,-640,0,0,0,0,0
2558,3498,7102,-386,0,0,0,0,0
2559,2682,7914,161,0,0,0,0,0
2560,2716,8050,-511,0,0,0,0,0
2561,2688,8012,-89,0,0,0,0,0
2562,1554,8254,148,786,0,0,0,0
2563,1196,8453,-847,0,0,0,0,0
2564,612,8050,-350,792,0,0,0,0
2565,-612,8424,-805,0,0,0,0,0
2566,-410,8370,-453,791,0,0,0,0
2567,-722,8425,486,0,0,0,0,0
2568,-1395,8907,438,1584,0,0,0,0
2569,-667,9448,-346,1250,0,0,0,0
2570,-631,9029,-421,0,0,0,0,0
2571,-795,6486,265,0,0,0,0,0
2572,-978,9050,-854,0,0,0,0,0
2573,-130,8728,-316,0,0,0,0,0
2574,-298,8825,-367,0,0,0,0,0
2575,-1191,7866,-675,0,0,0,0,0
2576,-1508,8694,184,0,0,0,0,0
2577,-2045,7772,-382,0,0,0,0,0
2578,-2088,8182,448,1204,0,0,0,0
2579,-504,8374,-114,0,0,0,0,0
2580,-1695,9933,792,1226,0,0,0,0
2581,-1648,8676,229,0,0,0,0,0
2582,-2079,7166,-905,0,0,0,0,0
2583,-1666,9014,-2201,0,0,0,0,0
2584,-2414,7496,-992,0,0,0,0,0
2585,-1986,8988,-612,0,0,0,0,0
2586,-1612,8727,-1482,0,0,0,0,0
2587,-1863,7756,-1677,0,0,0,0,0
2588,-1976,8384,-510,0,0,0,0,0
2589,-1545,8735,-2202,0,0,0,0,0
2590,-1013,8876,-2516,0,0,0,0,0
2591,-1212,8088,-832,0,0,0,0,0
2592,-1937,7776,-885,0,0,0,0,0
2593,-1394,7835,-1358,1421,0,0,0,0
2594,-1877,8249,14,0,0,0,0,0
2595,-1897,8412,-531,1076,0,0,0,0
2596,-2266,8306,-1464,0,0,0,0,0
2597,-1626,7994,-544,1109,0,0,0,0
2598,-1026,8405,-942,0,0,0,0,0
2599,-2317,7905,-558,1373,0,0,0,0
2600,-2047,8432,87,0,0,0,0,0
2601,-2027,8080,-1602,1357,0,0,0,0
2602,-246,7763,-558,0,0,0,0,0
2603,217,8376,68,1345,0,0,0,0
2604,76,7779,-304,0,0,0,0,0
2605,257,9014,764,0,0,0,0,0
2606,208,8107,-233,0,0,0,0,0
2607,-26,8217,472,1094,0,0,0,0
2608,1401,7700,-468,0,0,0,0,0
2609,1878,8145,-600,0,0,0,0,0
2610,1742,8534,838,0,0,0,0,0
2611,2465,8153,-1109,0,0,0,0,0
2612,1948,7118,-1058,0,0,0,0,0
2613,2088,7501,-422,0,0,0,0,0
2614,2586,7474,74,0,0,0,0,0
2615,2665,8699,-597,0,0,0,0,0
2616,2234,7461,-118,0,0,0,0,0
2617,2737,7411,-498,0,0,0,0,0
2618,2626,7752,-1206,0,0,0,0,0
2619,2197,8090,-1488,0,0,0,0,0
2620,3308,6964,-60,0,0,0,0,0
2621,3746,7838,-1620,0,0,0,0,0
2622,3486,7890,-792,0,0,0,0,0
2623,3696,7578,-1732,0,0,0,0,0
2624,3184,8277,-1459,0,0,0,0,0
2625,3779,8704,-1658,0,0,0,0,0
2626,3462,6985,-2043,0,0,0,0,0
2627,3642,7465,-1093,0,0,0,0,0
2628,3262,7115,-1954,0,0,0,0,0
2629,2452,8214,-1558,0,0,0,0,0
2630,2373,8531,-1801,0,0,0,0,0
2631,3248,7336,-1488,0,0,0,0,0
2632,1862,8294,580,1245,0,0,0,0
2633,3072,8320,1430,0,0,0,0,0
2634,2518,8238,298,0,0,0,0,0
2635,2008,7920,-918,0,0,0,0,0
2636,2468,7699,-156,0,0,0,0,0
2637,2518,8444,260,0,0,0,0,0
2638,1954,7860,-227,0,0,0,0,0
2639,1829,7760,290,0,0,0,0,0
2640,2224,8041,202,1195,0,0,0,0
2641,2266,8002,143,0,0,0,0,0
2642,2004,8014,116,0,0,0,0,0
2643,2290,7351,662,0,0,0,0,0
2644,2262,7621,-147,0,0,0,0,0
2645,2313,8118,401,0,0,0,0,0
2646,2757,8729,200,0,0,0,0,0
2647,2487,8104,418,0,0,0,0,0
2648,2226,7555,-21,0,0,0,0,0
2649,2137,7440,209,0,0,0,0,0
2650,2305,7892,-28,0,0,0,0,0
2651,2311,8543,559,0,0,0,0,0
2652,1599,8018,625,0,0,0,0,0
2653,2268,7609,-137,0,0,0,0,0
2654,2352,7646,-124,0,0,0,0,0
2655,2016,7606,206,0,0,0,0,0
2656,2347,8339,448,0,0,0,0,0
2657,2154,8251,683,0,0,0,0,0
2658,2370,8014,550,0,0,0,0,0
2659,1858,7872,443,0,0,0,0,0
2660,1996,7991,317,0,0,0,0,0
2661,1866,7996,922,0,0,0,0,0
2662,2270,8630,1130,0,0,0,0,0
2663,2006,8287,1298,789,0,0,0,0
2664,1737,7609,-36,0,0,0,0,0
2665,2388,7624,133,794,0,0,0,0
2666,2186,8427,-57,0,0,0,0,0
2667,1683,7601,362,781,0,0,0,0
2668,2042,7964,203,0,0,0,0,0
2669,1991,8018,424,1218,0,0,0,0
2670,1966,8188,-197,0,0,0,0,0
2671,2010,7506,513,1217,0,0,0,0
2672,1804,7910,-100,0,0,0,0,0
2673,2246,7649,72,0,0,0,0,0
2674,1697,8561,880,0,0,0,0,0
2675,1926,7788,379,1186,0,0,0,0
2676,1840,7366,170,0,0,0,0,0
2677,1699,8120,832,0,0,0,0,0
2678,2038,8476,-296,0,0,0,0,0
2679,1682,8087,469,1186,0,0,0,0
2680,1936,8028,393,0,0,0,0,0
2681,1688,7956,634,0,0,0,0,0
2682,1727,8778,825,0,0,0,0,0
2683,1678,7416,-212,0,0,0,0,0
2684,1988,8199,148,0,0,0,0,0
2685,2251,7708,639,0,0,0,0,0
2686,1912,7866,-80,0,0,0,0,0
2687,1930,8334,390,0,0,0,0,0
2688,1727,7560,-141,0,0,0,0,0
2689,2326,7519,-410,0,0,0,0,0
2690,1573,8024,204,0,0,0,0,0
2691,2110,8172,820,0,0,0,0,0
2692,1683,8486,1301,0,0,0,0,0
2693,1356,7526,626,0,0,0,0,0
2694,1891,7886,601,0,0,0,0,0
2695,1757,8044,878,0,0,0,0,0
2696,1650,8502,282,0,0,0,0,0
2697,1706,7784,-362,0,0,0,0,0
2698,1602,8393,358,791,0,0,0,0
2699,2156,8137,902,0,0,0,0,0
2700,1425,7718,406,0,0,0,0,0
2701,1708,7979,492,0,0,0,0,0
2702,1808,7536,-172,785,0,0,0,0
2703,1932,8352,413,0,0,0,0,0
2704,1381,7759,442,788,0,0,0,0
2705,1596,8668,442,0,0,0,0,0
2706,1508,7941,597,792,0,0,0,0
2707,1826,8136,359,0,0,0,0,0
2708,1848,7683,-301,1216,0,0,0,0
2709,1404,7960,-42,0,0,0,0,0
2710,2057,7854,890,0,0,0,0,0
2711,1209,8155,358,0,0,0,0,0
2712,1210,7514,-248,1224,0,0,0,0
2713,966,8422,-98,0,0,0,0,0
2714,1200,8985,1860,1223,0,0,0,0
2715,802,9049,1094,0,0,0,0,0
2716,567,7411,-178,820,0,0,0,0
2717,-24,8153,704,0,0,0,0,0
2718,372,8818,745,0,0,0,0,0
2719,875,8170,602,0,0,0,0,0
2720,52,8396,874,0,0,0,0,0
2721,268,8082,582,0,0,0,0,0
2722,378,7499,1050,0,0,0,0,0
2723,725,7888,700,0,0,0,0,0
2724,433,8992,82,0,0,0,0,0
2725,79,8150,694,0,0,0,0,0
2726,490,8162,-561,0,0,0,0,0
2727,36,7905,616,0,0,0,0,0
2728,-4,8220,726,0,0,0,0,0
2729,124,8557,652,0,0,0,0,0
2730,70,8376,616,0,0,0,0,0
2731,-67,8070,-253,0,0,0,0,0
2732,-261,7420,40,1232,0,0,0,0
2733,-174,9054,1106,0,0,0,0,0
2734,362,8348,254,0,0,0,0,0
2735,-403,8119,-46,0,0,0,0,0
2736,-226,8324,82,0,0,0,0,0
2737,222,8510,700,0,0,0,0,0
2738,-760,7979,-293,0,0,0,0,0
2739,-317,7694,685,0,0,0,0,0
2740,-244,8018,722,0,0,0,0,0
2741,105,8133,970,0,0,0,0,0
2742,-508,8214,822,0,0,0,0,0
2743,-591,8400,534,0,0,0,0,0
2744,-104,8039,657,0,0,0,0,0
2745,95,8193,560,0,0,0,0,0
2746,-194,8048,925,0,0,0,0,0
2747,-275,8868,-262,0,0,0,0,0
2748,-805,7895,752,0,0,0,0,0
2749,-616,8493,605,0,0,0,0,0
2750,-184,8293,296,0,0,0,0,0
2751,-817,8921,-165,0,0,0,0,0
2752,-1046,8187,-113,0,0,0,0,0
2753,-749,8652,710,0,0,0,0,0
2754,-1638,7556,-412,0,0,0,0,0
2755,-1498,7928,-692,0,0,0,0,0
2756,-1370,8911,204,0,0,0,0,0
2757,-1006,8757,450,0,0,0,0,0
2758,-764,7764,-80,0,0,0,0,0
2759,-819,7847,-200,0,0,0,0,0
2760,-1154,8266,-258,0,0,0,0,0
2761,-895,8698,547,0,0,0,0,0
2762,-504,8376,-68,0,0,0,0,0
2763,-531,8443,772,1222,0,0,0,0
2764,-944,8025,543,0,0,0,0,0
2765,-871,8713,-130,1223,0,0,0,0
2766,-1324,7260,-1054,0,0,0,0,0
2767,-1054,8758,-180,1224,0,0,0,0
2768,-529,8027,-382,0,0,0,0,0
2769,-978,8452,-136,0,0,0,0,0
2770,-1009,7770,295,0,0,0,0,0
2771,-1417,7854,-368,1219,0,0,0,0
2772,-1172,8889,495,0,0,0,0,0
2773,-958,8694,-1256,0,0,0,0,0
2774,-92,8398,-110,0,0,0,0,0
2775,-435,7903,349,0,0,0,0,0
2776,-109,8527,834,0,0,0,0,0
2777,-660,8956,-125,0,0,0,0,0
2778,-362,8762,277,0,0,0,0,0
2779,-96,8462,-260,0,0,0,0,0
2780,-602,8350,22,0,0,0,0,0
2781,-1046,8160,92,1203,0,0,0,0
2782,-453,8187,-85,0,0,0,0,0
2783,214,7916,156,0,0,0,0,0
2784,802,8178,955,0,0,0,0,0
2785,676,8596,714,0,0,0,0,0
2786,777,8724,33,0,0,0,0,0
2787,1539,7582,248,0,0,0,0,0
2788,1954,8280,514,0,0,0,0,0
2789,1619,7006,802,0,0,0,0,0
2790,1751,8266,918,0,0,0,0,0
2791,1543,8884,1108,0,0,0,0,0
2792,2342,8382,1142,0,0,0,0,0
2793,2123,7167,454,1220,0,0,0,0
2794,2574,6866,233,0,0,0,0,0
2795,2657,8443,1201,1223,0,0,0,0
2796,2790,8281,120,0,0,0,0,0
2797,2284,7892,-325,801,0,0,0,0
2798,1875,7340,347,0,0,0,0,0
2799,1627,8413,1195,0,0,0,0,0
2800,1723,8080,-259,0,0,0,0,0
2801,2048,7887,1142,0,0,0,0,0
2802,1844,8043,-60,0,0,0,0,0
2803,1824,7948,862,0,0,0,0,0
2804,2037,7788,557,0,0,0,0,0
2805,1707,7524,-16,0,0,0,0,0
2806,1707,7762,-493,0,0,0,0,0
2807,1976,7658,-276,0,0,0,0,0
2808,2135,7925,72,0,0,0,0,0
2809,2230,7957,878,0,0,0,0,0
2810,1702,8143,881,0,0,0,0,0
2811,1816,7908,-347,0,0,0,0,0
2812,1292,7401,-436,0,0,0,0,0
2813,2376,7724,462,0,0,0,0,0
2814,1910,7998,262,0,0,0,0,0
2815,1817,7813,-285,0,0,0,0,0
2816,1440,7854,614,0,0,0,0,0
2817,1814,7476,-254,0,0,0,0,0
2818,1576,8031,352,0,0,0,0,0
2819,2038,7836,162,0,0,0,0,0
2820,1492,8055,185,0,0,0,0,0
2821,1416,7962,-204,0,0,0,0,0
2822,2190,7747,754,0,0,0,0,0
2823,1901,7781,622,0,0,0,0,0
2824,1698,7847,405,0,0,0,0,0
2825,1716,8181,-360,0,0,0,0,0
2826,1968,7961,536,0,0,0,0,0
2827,2160,8190,-181,0,0,0,0,0
2828,1442,7988,739,1191,0,0,0,0
2829,1945,8709,-421,0,0,0,0,0
2830,1572,7976,405,0,0,0,0,0
2831,1983,8458,869,0,0,0,0,0
2832,1082,8180,858,0,0,0,0,0
2833,1650,7440,1009,0,0,0,0,0
2834,2081,8022,449,0,0,0,0,0
2835,1978,8421,-436,0,0,0,0,0
2836,2035,7422,1115,0,0,0,0,0
2837,1262,8120,-272,0,0,0,0,0
2838,1476,7948,250,1218,0,0,0,0
2839,1841,7799,924,0,0,0,0,0
2840,1369,6845,-143,1220,0,0,0,0
2841,1026,8623,1029,873,0,0,0,0
2842,821,7954,920,0,0,0,0,0
2843,1240,8640,-129,870,0,0,0,0
2844,1124,7935,126,792,0,0,0,0
2845,867,8294,-247,0,0,0,0,0
2846,1406,8064,231,0,0,0,0,0
2847,1486,7761,578,0,0,0,0,0
2848,1255,8218,333,0,0,0,0,0
2849,737,8009,698,0,0,0,0,0
2850,1201,7676,984,0,0,0,0,0
2851,864,8049,1272,0,0,0,0,0
2852,1466,8291,-120,0,0,0,0,0
2853,1321,7944,-621,0,0,0,0,0
2854,883,7654,-1049,0,0,0,0,0
2855,1305,8580,306,1207,0,0,0,0
2856,986,8142,1318,0,0,0,0,0
2857,1321,7997,-21,0,0,0,0,0
2858,429,7754,982,0,0,0,0,0
2859,1102,9113,976,0,0,0,0,0
2860,1282,8170,420,0,0,0,0,0
2861,1496,7877,139,0,0,0,0,0
2862,872,7614,634,0,0,0,0,0
2863,1161,7994,-424,0,0,0,0,0
2864,1307,8416,445,0,0,0,0,0
2865,1593,7840,52,0,0,0,0,0
2866,744,7708,-658,0,0,0,0,0
2867,1122,8326,546,880,0,0,0,0
2868,1560,7768,198,0,0,0,0,0
2869,1338,9210,1331,791,0,0,0,0
2870,708,8852,733,0,0,0,0,0
2871,1345,8125,516,0,0,0,0,0
2872,1859,7932,1144,0,0,0,0,0
2873,1047,6906,408,0,0,0,0,0
2874,724,8183,672,0,0,0,0,0
2875,1114,7824,-302,0,0,0,0,0
2876,945,7612,464,0,0,0,0,0
2877,1640,8621,524,0,0,0,0,0
2878,1272,8326,554,0,0,0,0,0
2879,1183,8479,542,0,0,0,0,0
2880,1309,7292,18,0,0,0,0,0
2881,1156,7967,936,0,0,0,0,0
2882,1428,7662,344,0,0,0,0,0
2883,1473,7710,-761,0,0,0,0,0
2884,1495,7760,270,791,0,0,0,0
2885,1952,8474,-432,0,0,0,0,0
2886,893,9010,630,0,0,0,0,0
2887,1129,8376,-214,980,0,0,0,0
2888,1112,7748,728,0,0,0,0,0
2889,856,8952,-588,0,0,0,0,0
2890,844,7992,-138,0,0,0,0,0
2891,678,7461,435,0,0,0,0,0
2892,750,7968,-435,0,0,0,0,0
2893,520,8723,268,0,0,0,0,0
2894,1255,8891,631,1007,0,0,0,0
2895,490,7594,-1495,0,0,0,0,0
2896,683,7404,-860,969,0,0,0,0
2897,744,8129,-2105,0,0,0,0,0
2898,650,8555,-974,0,0,0,0,0
2899,321,7424,-913,0,0,0,0,0
2900,726,8186,-464,0,0,0,0,0
2901,719,8747,-344,0,0,0,0,0
2902,366,8008,-171,0,0,0,0,0
2903,914,8103,184,0,0,0,0,0
2904,364,8118,-584,0,0,0,0,0
2905,416,7801,-209,475,0,0,0,0
2906,1186,8559,-316,0,0,0,0,0
2907,496,7876,297,0,0,0,0,0
2908,397,7871,706,0,0,0,0,0
2909,815,8675,-530,0,0,0,0,0
2910,578,7488,-414,0,0,0,0,0
2911,46,8150,53,0,0,0,0,0
2912,1123,8509,153,0,0,0,0,0
2913,693,8152,219,490,0,0,0,0
2914,842,8219,-332,0,0,0,0,0
2915,1181,8088,-966,0,0,0,0,0
2916,1323,8489,-459,912,0,0,0,0
2917,1115,7787,-214,0,0,0,0,0
2918,1484,8393,147,912,0,0,0,0
2919,1028,7904,92,0,0,0,0,0
2920,1164,8096,-174,0,0,0,0,0
2921,1268,8246,164,0,0,0,0,0
2922,1180,7860,-207,0,0,0,0,0
2923,1506,8232,-302,0,0,0,0,0
2924,1270,7918,34,0,0,0,0,0
2925,1066,8347,-52,0,0,0,0,0
2926,1568,7863,-384,521,0,0,0,0
2927,1320,7842,-388,0,0,0,0,0
2928,1009,8178,-1052,0,0,0,0,0
2929,1263,8284,-811,0,0,0,0,0
2930,1170,8248,-735,0,0,0,0,0
2931,983,8208,-1552,0,0,0,0,0
2932,918,7960,-2110,854,0,0,0,0
2933,991,8062,-1490,0,0,0,0,0
2934,571,8168,-939,0,0,0,0,0
2935,884,8276,-1418,0,0,0,0,0
2936,1625,7736,341,1029,0,0,0,0
2937,1138,7556,206,0,0,0,0,0
2938,1477,8667,-561,994,0,0,0,0
2939,682,7726,-218,0,0,0,0,0
2940,1555,8221,-369,0,0,0,0,0
2941,727,7910,246,0,0,0,0,0
2942,708,8132,168,0,0,0,0,0
2943,1274,8488,-254,0,0,0,0,0
2944,1356,7926,243,0,0,0,0,0
2945,809,7984,-156,0,0,0,0,0
2946,1269,8088,-372,0,0,0,0,0
2947,1489,8007,-368,0,0,0,0,0
2948,925,7792,63,0,0,0,0,0
2949,1131,8046,-353,0,0,0,0,0
2950,1254,7938,-505,0,0,0,0,0
2951,1366,8068,-88,0,0,0,0,0
2952,949,8073,-58,0,0,0,0,0
2953,1078,7959,-168,366,0,0,0,0
2954,1189,7910,-66,0,0,0,0,0
2955,1438,7950,181,1006,0,0,0,0
2956,1146,8429,-492,0,0,0,0,0
2957,1090,8256,-374,1006,0,0,0,0
2958,1359,7985,-532,0,0,0,0,0
2959,1077,7784,-948,0,0,0,0,0
2960,1019,7810,-836,0,0,0,0,0
2961,1108,8034,-900,0,0,0,0,0
2962,1209,8080,-1528,0,0,0,0,0
2963,868,8136,-2286,0,0,0,0,0
2964,876,7982,-1876,0,0,0,0,0
2965,293,7849,-2270,0,0,0,0,0
2966,866,8424,-1451,0,0,0,0,0
2967,881,7974,-746,0,0,0,0,0
2968,376,8130,-1036,0,0,0,0,0
2969,1420,8412,-1813,0,0,0,0,0
2970,904,7790,-883,0,0,0,0,0
2971,496,7952,-1038,0,0,0,0,0
2972,795,8140,-1085,0,0,0,0,0
2973,1464,8349,-960,0,0,0,0,0
2974,704,8034,-945,0,0,0,0,0
2975,348,8070,-1293,0,0,0,0,0
2976,1018,8036,-1191,0,0,0,0,0
2977,1204,8186,-965,0,0,0,0,0
2978,799,8012,-501,0,0,0,0,0
2979,995,8014,76,0,0,0,0,0
2980,1164,8343,-161,0,0,0,0,0
2981,1066,8028,-307,0,0,0,0,0
2982,836,7981,-527,0,0,0,0,0
2983,1009,8014,-258,0,0,0,0,0
2984,1129,8284,-179,0,0,0,0,0
2985,950,8029,-307,0,0,0,0,0
2986,967,7967,-518,0,0,0,0,0
2987,1113,8046,-458,0,0,0,0,0
2988,963,8154,-209,0,0,0,0,0
2989,914,8054,-250,0,0,0,0,0
2990,1076,8052,-395,0,0,0,0,0
2991,1090,8152,-284,0,0,0,0,0
2992,913,8048,-304,0,0,0,0,0
2993,997,8092,-306,0,0,0,0,0
2994,1070,8068,-344,0,0,0,0,0
2995,1005,8109,-275,0,0,0,0,0
2996,957,8074,-309,0,0,0,0,0
2997,1039,8071,-328,0,0,0,0,0
2998,1014,8106,-318,0,0,0,0,0
2999,979,8081,-300,0,0,0,0,0
3000,1017,8092,-338,0,0,0,0,0
3001,1029,8096,-290,0,0,0,0,0
3002,976,8092,-316,0,0,0,0,0
3003,998,8092,-327,0,0,0,0,0
3004,1025,8072,-324,0,0,0,0,0
3005,1001,8087,-318,0,0,0,0,0
3006,984,8092,-278,0,0,0,0,0
3007,1003,8102,-270,0,0,0,0,0
3008,1027,8071,-336,0,0,0,0,0
3009,997,8070,-281,0,0,0,0,0
3010,988,8107,-304,0,0,0,0,0
3011,1007,8098,-314,0,0,0,0,0
3012,1008,8066,-287,0,0,0,0,0
3013,994,8120,-311,0,0,0,0,0
3014,1010,8077,-288,0,0,0,0,0
3015,1005,8082,-328,0,0,0,0,0
3016,1006,8084,-288,0,0,0,0,0
3017,1006,8097,-294,0,0,0,0,0
3018,1006,8088,-326,0,0,0,0,0
3019,997,8068,-311,0,0,0,0,0
3020,1005,8098,-306,0,0,0,0,0
3021,1008,8084,-286,0,0,0,0,0
3022,991,8101,-346,0,0,0,0,0
3023,1013,8089,-334,0,0,0,0,0
3024,996,8073,-299,0,0,0,0,0
3025,1002,8103,-316,0,0,0,0,0
3026,1000,8055,-307,0,0,0,0,0
3027,1017,8095,-313,0,0,0,0,0
3028,996,8074,-304,0,0,0,0,0
3029,1002,8104,-320,0,0,0,0,0
3030,1012,8083,-294,0,0,0,0,0
3031,993,8078,-314,0,0,0,0,0
3032,1004,8110,-318,0,0,0,0,0
3033,994,8073,-316,0,0,0,0,0
3034,985,8090,-355,0,0,0,0,0
3035,998,8086,-306,0,0,0,0,0
3036,1018,8076,-279,0,0,0,0,0
3037,1022,8098,-324,0,0,0,0,0
3038,986,8068,-326,0,0,0,0,0
3039,994,8092,-275,0,0,0,0,0
3040,994,8122,-289,0,0,0,0,0
3041,1023,8060,-393,0,0,0,0,0
3042,1008,8081,-302,0,0,0,0,0
3043,1009,8114,-222,0,0,0,0,0
3044,990,8086,-373,0,0,0,0,0
3045,1011,8056,-347,0,0,0,0,0
3046,1003,8088,-256,0,0,0,0,0
3047,997,8117,-324,0,0,0,0,0
3048,1006,8038,-368,0,0,0,0,0
3049,1004,8098,-294,0,0,0,0,0
3050,1004,8138,-257,0,0,0,0,0
3051,1004,8067,-385,0,0,0,0,0
3052,1012,8112,-288,0,0,0,0,0
3053,996,8079,-282,0,0,0,0,0
3054,1016,8090,-321,0,0,0,0,0
3055,999,8075,-352,0,0,0,0,0
3056,1006,8076,-282,0,0,0,0,0
3057,985,8084,-324,0,0,0,0,0
3058,1020,8083,-299,0,0,0,0,0
3059,1006,8098,-312,0,0,0,0,0
3060,996,8074,-304,0,0,0,0,0
3061,992,8093,-328,0,0,0,0,0
3062,1005,8086,-291,0,0,0,0,0
3063,1000,8073,-307,0,0,0,0,0
3064,1006,8091,-312,0,0,0,0,0
3065,994,8084,-312,0,0,0,0,0
3066,1009,8084,-316,0,0,0,0,0
3067,987,8074,-313,0,0,0,0,0
3068,1005,8102,-307,0,0,0,0,0
3069,1013,8098,-314,0,0,0,0,0
3070,1014,8080,-308,0,0,0,0,0
3071,984,8094,-312,0,0,0,0,0
3072,1008,8092,-294,0,0,0,0,0
3073,1012,8091,-336,0,0,0,0,0
3074,994,8072,-302,0,0,0,0,0
3075,982,8098,-334,0,0,0,0,0
3076,1014,8074,-275,0,0,0,0,0
3077,996,8090,-326,0,0,0,0,0
3078,1006,8078,-296,0,0,0,0,0
3079,1016,8081,-296,0,0,0,0,0
3080,1004,8078,-309,0,0,0,0,0
3081,1009,8078,-297,0,0,0,0,0
3082,1000,8104,-318,0,0,0,0,0
3083,1001,8074,-291,0,0,0,0,0
3084,995,8091,-329,0,0,0,0,0
3085,1013,8086,-294,0,0,0,0,0
3086,1011,8088,-324,0,0,0,0,0
3087,1002,8071,-312,0,0,0,0,0
3088,1010,8090,-295,0,0,0,0,0
3089,1008,8087,-326,0,0,0,0,0
3090,1002,8062,-293,0,0,0,0,0
3091,1003,8101,-330,0,0,0,0,0
3092,993,8069,-290,0,0,0,0,0
3093,1004,8101,-321,0,0,0,0,0
3094,1010,8098,-321,0,0,0,0,0
3095,1018,8047,-314,0,0,0,0,0
3096,994,8094,-306,0,0,0,0,0
3097,1009,8097,-294,0,0,0,0,0
3098,996,8062,-336,0,0,0,0,0
3099,1014,8096,-308,0,0,0,0,0
3100,992,8101,-286,0,0,0,0,0
3101,1060,8144,-330,0,0,0,0,0
3102,1010,8018,-310,0,0,0,0,0
3103,990,8126,-258,0,0,0,0,0
3104,953,8098,-361,0,0,0,0,0
3105,1017,8073,-353,0,0,0,0,0
3106,1006,8100,-307,0,0,0,0,0
3107,990,8066,-290,0,0,0,0,0
3108,999,8092,-348,0,0,0,0,0
3109,1014,8082,-286,0,0,0,0,0
3110,997,8107,-324,0,0,0,0,0
3111,1007,8062,-278,0,0,0,0,0
3112,1016,8082,-307,0,0,0,0,0
3113,1014,8110,-318,0,0,0,0,0
3114,990,8058,-292,0,0,0,0,0
3115,1004,8095,-328,0,0,0,0,0
3116,1007,8086,-288,0,0,0,0,0
3117,1000,8104,-325,0,0,0,0,0
3118,997,8070,-310,0,0,0,0,0
3119,1012,8097,-302,0,0,0,0,0
3120,1000,8094,-321,0,0,0,0,0
3121,1000,8093,-319,0,0,0,0,0
3122,1001,8092,-321,0,0,0,0,0
3123,1012,8067,-295,0,0,0,0,0
3124,992,8096,-329,0,0,0,0,0
3125,1000,8080,-289,0,0,0,0,0
3126,1007,8087,-317,0,0,0,0,0
3127,1008,8084,-301,0,0,0,0,0
3128,1000,8088,-306,0,0,0,0,0
3129,994,8082,-312,0,0,0,0,0
3130,1002,8080,-305,0,0,0,0,0
3131,1002,8094,-310,0,0,0,0,0
3132,1009,8070,-289,0,0,0,0,0
3133,1008,8099,-317,0,0,0,0,0
3134,1002,8075,-305,0,0,0,0,0
3135,1002,8085,-309,0,0,0,0,0
3136,1014,8075,-302,0,0,0,0,0
3137,999,8076,-325,0,0,0,0,0
3138,986,8098,-324,0,0,0,0,0
3139,1006,8063,-287,0,0,0,0,0
3140,1005,8082,-334,0,0,0,0,0
3141,990,8050,-366,0,0,0,0,0
3142,1046,8076,-296,0,0,0,0,0
3143,982,8071,-358,0,0,0,0,0
3144,993,8071,-321,0,0,0,0,0
3145,1027,8083,-320,0,0,0,0,0
3146,994,8062,-337,0,0,0,0,0
3147,994,8088,-310,0,0,0,0,0
3148,1010,8095,-300,0,0,0,0,0
3149,1004,8066,-310,0,0,0,0,0
3150,986,8088,-307,0,0,0,0,0
3151,1018,8104,-276,0,0,0,0,0
3152,1026,8090,-322,0,0,0,0,0
3153,986,8091,-289,0,0,0,0,0
3154,974,8106,-311,0,0,0,0,0
3155,1026,8070,-295,0,0,0,0,0
3156,1007,8081,-353,0,0,0,0,0
3157,1012,8082,-308,0,0,0,0,0
3158,1004,8077,-291,0,0,0,0,0
3159,1009,8094,-326,0,0,0,0,0
3160,1000,8082,-320,0,0,0,0,0
3161,1008,8081,-313,0,0,0,0,0
3162,1006,8085,-306,0,0,0,0,0
3163,1015,8101,-316,0,0,0,0,0
3164,977,8080,-286,0,0,0,0,0
3165,1004,8073,-342,0,0,0,0,0
3166,1000,8090,-279,0,0,0,0,0
3167,997,8097,-300,0,0,0,0,0
