index,GYRO_X,GYRO_Y,GYRO_Z,1,2,3,4,5
0,6,-8,4,0,0,0,0,0
1,3,-7,0,0,0,0,0,0
2,4,-8,0,0,0,0,0,0
3,2,-8,-1,0,0,0,0,0
4,1,-8,-1,0,0,0,0,0
5,0,-8,-1,0,0,0,0,0
6,2,-9,0,0,0,0,0,0
7,1,-7,-1,0,0,0,0,0
8,0,-8,0,0,0,0,0,0
9,2,-8,0,0,0,0,0,0
10,3,-9,0,0,0,0,0,0
11,3,-8,0,0,0,0,0,0
12,10,-11,12,0,0,0,0,0
13,-10,-16,17,0,0,0,0,0
14,1,0,-10,0,0,0,0,0
15,-28,24,-56,0,0,0,0,0
16,1,-7,0,0,0,0,0,0
17,7,-6,-1,0,0,0,0,0
18,1,-8,0,0,0,0,0,0
19,3,-7,-1,0,0,0,0,0
20,3,-7,1,0,0,0,0,0
21,2,-9,0,0,0,0,0,0
22,3,-8,0,0,0,0,0,0
23,2,-7,0,0,0,0,0,0
24,-1,-6,0,0,0,0,0,0
25,3,-8,-1,0,0,0,0,0
26,3,-8,0,0,0,0,0,0
27,4,-6,1,0,0,0,0,0
28,3,-7,0,0,0,0,0,0
29,-1,-8,-1,0,0,0,0,0
30,1,-7,0,0,0,0,0,0
31,3,-7,-1,0,0,0,0,0
32,2,-6,-1,0,0,0,0,0
33,5,-8,0,0,0,0,0,0
34,1,-7,0,0,0,0,0,0
35,3,-7,0,0,0,0,0,0
36,4,-6,-1,0,0,0,0,0
37,3,-7,0,0,0,0,0,0
38,3,-7,-1,0,0,0,0,0
39,2,-8,0,0,0,0,0,0
40,4,-7,-2,0,0,0,0,0
41,3,-8,0,0,0,0,0,0
42,4,-8,-1,0,0,0,0,0
43,4,-8,-1,0,0,0,0,0
44,2,-9,0,0,0,0,0,0
45,3,-8,0,0,0,0,0,0
46,3,-8,-1,0,0,0,0,0
47,2,-7,-1,0,0,0,0,0
48,1,-7,-1,0,0,0,0,0
49,5,-8,-1,0,0,0,0,0
50,3,-6,0,0,0,0,0,0
51,2,-9,-2,0,0,0,0,0
52,5,-7,1,0,0,0,0,0
53,3,-7,255,0,0,0,0,0
54,4,-8,-1,0,0,0,0,0
55,2,-7,1,0,0,0,0,0
56,4,-9,0,0,0,0,0,0
57,3,-8,0,0,0,0,0,0
58,3,-7,0,0,0,0,0,0
59,3,-8,0,0,0,0,0,0
60,3,-8,-1,0,0,0,0,0
61,1,-7,-1,0,0,0,0,0
62,3,-7,0,0,0,0,0,0
63,4,-7,-1,0,0,0,0,0
64,2,-8,1,0,0,0,0,0
65,2,-8,-1,0,0,0,0,0
66,4,-7,0,0,0,0,0,0
67,2,-5,0,0,0,0,0,0
68,2,-7,0,0,0,0,0,0
69,3,-7,0,0,0,0,0,0
70,0,-7,0,0,0,0,0,0
71,4,-9,-1,0,0,0,0,0
72,3,-6,0,0,0,0,0,0
73,3,-8,0,0,0,0,0,0
74,3,-7,0,0,0,0,0,0
75,2,-7,-1,0,0,0,0,0
76,3,-7,0,0,0,0,0,0
77,2,-7,0,0,0,0,0,0
78,2,-9,0,0,0,0,0,0
79,2,-9,-1,0,0,0,0,0
80,3,-7,0,0,0,0,0,0
81,5,-8,0,0,0,0,0,0
82,4,-8,0,0,0,0,0,0
83,2,-7,-1,0,0,0,0,0
84,4,-8,0,0,0,0,0,0
85,1,-6,-1,0,0,0,0,0
86,3,-7,0,0,0,0,0,0
87,4,-7,0,0,0,0,0,0
88,3,-9,-1,0,0,0,0,0
89,4,-7,0,0,0,0,0,0
90,4,-7,0,0,0,0,0,0
91,3,-8,0,0,0,0,0,0
92,2,-7,0,0,0,0,0,0
93,2,-8,0,0,0,0,0,0
94,3,-7,0,0,0,0,0,0
95,3,-7,-1,0,0,0,0,0
96,3,-7,-1,0,0,0,0,0
97,2,-8,-1,0,0,0,0,0
98,2,-8,-1,0,0,0,0,0
99,1,-7,0,0,0,0,0,0
100,2,-7,-1,0,0,0,0,0
101,2,-8,0,0,0,0,0,0
102,1,-8,0,0,0,0,0,0
103,4,-7,0,0,0,0,0,0
104,2,-7,-1,0,0,0,0,0
105,3,-8,-1,0,0,0,0,0
106,3,-7,-1,0,0,0,0,0
107,3,-9,0,0,0,0,0,0
108,4,-7,-1,0,0,0,0,0
109,1,-5,0,0,0,0,0,0
110,4,-7,0,0,0,0,0,0
111,2,-7,0,0,0,0,0,0
112,2,-8,0,0,0,0,0,0
113,3,-7,-1,0,0,0,0,0
114,1,-8,-1,0,0,0,0,0
115,3,-7,-1,0,0,0,0,0
116,2,-7,0,0,0,0,0,0
117,2,-7,-2,0,0,0,0,0
118,5,-9,-1,0,0,0,0,0
119,2,-7,0,0,0,0,0,0
120,0,-9,0,0,0,0,0,0
121,4,-8,0,0,0,0,0,0
122,1,-8,0,0,0,0,0,0
123,0,-7,0,0,0,0,0,0
124,2,-7,-1,0,0,0,0,0
125,3,-7,0,0,0,0,0,0
126,3,-6,-1,0,0,0,0,0
127,3,-8,-1,0,0,0,0,0
128,3,-6,-1,0,0,0,0,0
129,4,-7,0,0,0,0,0,0
130,3,-8,0,0,0,0,0,0
131,3,-7,-1,0,0,0,0,0
132,3,-7,0,0,0,0,0,0
133,3,-7,-1,0,0,0,0,0
134,2,-8,0,0,0,0,0,0
135,3,-8,0,0,0,0,0,0
136,6,-7,0,0,0,0,0,0
137,4,-10,0,0,0,0,0,0
138,3,-8,-1,0,0,0,0,0
139,3,-5,1,0,0,0,0,0
140,2,-7,0,0,0,0,0,0
141,3,-7,-1,0,0,0,0,0
142,4,-7,1,0,0,0,0,0
143,0,-8,0,0,0,0,0,0
144,4,-8,0,0,0,0,0,0
145,2,-9,0,0,0,0,0,0
146,4,-7,0,0,0,0,0,0
147,2,-5,-2,0,0,0,0,0
148,3,-7,-1,0,0,0,0,0
149,2,-7,0,0,0,0,0,0
150,3,-6,0,0,0,0,0,0
151,5,-7,-1,0,0,0,0,0
152,1,-8,0,0,0,0,0,0
153,2,-8,-1,0,0,0,0,0
154,3,-8,-1,0,0,0,0,0
155,2,-7,0,0,0,0,0,0
156,4,-7,0,0,0,0,0,0
157,4,-7,0,0,0,0,0,0
158,3,-8,-1,0,0,0,0,0
159,2,-9,1,0,0,0,0,0
160,4,-8,0,0,0,0,0,0
161,1,-7,-2,0,0,0,0,0
162,3,-9,0,0,0,0,0,0
163,2,-8,0,0,0,0,0,0
164,2,-9,0,0,0,0,0,0
165,3,-8,-1,0,0,0,0,0
166,3,-8,0,0,0,0,0,0
167,3,-7,-1,0,0,0,0,0
168,2,-8,-1,0,0,0,0,0
169,3,-8,-1,0,0,0,0,0
170,3,-7,-1,0,0,0,0,0
171,4,-7,0,0,0,0,0,0
172,2,-7,0,0,0,0,0,0
173,2,-7,1,0,0,0,0,0
174,3,-7,1,0,0,0,0,0
175,1,-7,-1,0,0,0,0,0
176,2,-7,-1,0,0,0,0,0
177,2,-6,-1,0,0,0,0,0
178,2,-7,-1,0,0,0,0,0
179,2,-7,-1,0,0,0,0,0
180,4,-6,-1,0,0,0,0,0
181,1,-7,-1,0,0,0,0,0
182,3,-7,0,0,0,0,0,0
183,3,-6,0,0,0,0,0,0
184,1,-7,0,0,0,0,0,0
185,2,-7,0,0,0,0,0,0
186,1,-8,1,0,0,0,0,0
187,1,-8,-1,0,0,0,0,0
188,2,-8,0,0,0,0,0,0
189,3,-8,-1,0,0,0,0,0
190,3,-7,-1,0,0,0,0,0
191,2,-8,0,0,0,0,0,0
192,3,-8,0,0,0,0,0,0
193,2,-6,0,0,0,0,0,0
194,2,-8,0,0,0,0,0,0
195,1,-10,-1,0,0,0,0,0
196,5,-7,0,0,0,0,0,0
197,4,-6,-1,0,0,0,0,0
198,4,-8,0,0,0,0,0,0
199,3,-9,0,0,0,0,0,0
200,3,-7,0,0,0,0,0,0
201,3,-9,-1,0,0,0,0,0
202,4,-8,0,0,0,0,0,0
203,2,-8,0,0,0,0,0,0
204,2,-8,0,0,0,0,0,0
205,2,-6,0,0,0,0,0,0
206,3,-7,-1,0,0,0,0,0
207,4,-6,0,0,0,0,0,0
208,0,-7,-1,0,0,0,0,0
209,2,-6,-1,0,0,0,0,0
210,3,-9,-1,0,0,0,0,0
211,2,-7,-1,0,0,0,0,0
212,3,-6,-1,0,0,0,0,0
213,3,-7,0,0,0,0,0,0
214,3,-7,1,0,0,0,0,0
215,5,-8,1,0,0,0,0,0
216,2,-7,1,0,0,0,0,0
217,3,-9,-1,0,0,0,0,0
218,2,-8,-1,0,0,0,0,0
219,1,-8,0,0,0,0,0,0
220,2,-8,0,0,0,0,0,0
221,4,-9,0,0,0,0,0,0
222,2,-8,255,0,0,0,0,0
223,3,-7,-1,0,0,0,0,0
224,6,-7,0,0,0,0,0,0
225,1,-6,0,0,0,0,0,0
226,5,-9,0,0,0,0,0,0
227,2,-6,255,0,0,0,0,0
228,2,-6,0,0,0,0,0,0
229,4,-8,-1,0,0,0,0,0
230,3,-9,-1,0,0,0,0,0
231,5,-8,-1,0,0,0,0,0
232,2,-8,0,0,0,0,0,0
233,3,-8,0,0,0,0,0,0
234,3,-8,-1,0,0,0,0,0
235,3,-8,-1,0,0,0,0,0
236,3,-8,-256,0,0,0,0,0
237,3,-8,-1,0,0,0,0,0
238,4,-8,0,0,0,0,0,0
239,4,-8,-1,0,0,0,0,0
240,2,-6,-1,0,0,0,0,0
241,1,-8,0,0,0,0,0,0
242,3,-8,0,0,0,0,0,0
243,2,-8,0,0,0,0,0,0
244,4,-5,0,0,0,0,0,0
245,1,-7,0,0,0,0,0,0
246,1,-7,1,0,0,0,0,0
247,1,-8,1,0,0,0,0,0
248,2,-6,0,0,0,0,0,0
249,3,-6,0,0,0,0,0,0
250,4,-9,-1,0,0,0,0,0
251,2,-6,0,0,0,0,0,0
252,2,-7,0,0,0,0,0,0
253,2,-8,0,0,0,0,0,0
254,4,-7,-1,0,0,0,0,0
255,0,-8,1,0,0,0,0,0
256,2,-7,-1,0,0,0,0,0
257,2,-6,0,0,0,0,0,0
258,3,-8,0,0,0,0,0,0
259,3,-7,-1,0,0,0,0,0
260,3,-6,0,0,0,0,0,0
261,3,-7,-1,0,0,0,0,0
262,2,-6,-1,0,0,0,0,0
263,4,-7,-1,0,0,0,0,0
264,3,-7,0,0,0,0,0,0
265,4,-8,-1,0,0,0,0,0
266,4,-7,0,0,0,0,0,0
267,0,-8,-1,0,0,0,0,0
268,3,-7,0,0,0,0,0,0
269,-1,-6,0,0,0,0,0,0
270,3,-8,0,0,0,0,0,0
271,3,-8,-1,0,0,0,0,0
272,4,-8,-1,0,0,0,0,0
273,3,-7,1,0,0,0,0,0
274,2,-7,-1,0,0,0,0,0
275,5,-8,-1,0,0,0,0,0
276,4,-7,-1,0,0,0,0,0
277,3,-6,-1,0,0,0,0,0
278,5,-6,-1,0,0,0,0,0
279,1,-8,-1,0,0,0,0,0
280,5,-9,0,0,0,0,0,0
281,5,-8,0,0,0,0,0,0
282,-1,-8,0,0,0,0,0,0
283,5,-7,2,0,0,0,0,0
284,1,-6,0,0,0,0,0,0
285,3,-7,-1,0,0,0,0,0
286,4,-7,0,0,0,0,0,0
287,3,-7,1,0,0,0,0,0
288,2,-8,0,0,0,0,0,0
289,4,-8,1,0,0,0,0,0
290,1,-7,-1,0,0,0,0,0
291,0,-9,0,0,0,0,0,0
292,5,-6,1,0,0,0,0,0
293,1,-9,1,0,0,0,0,0
294,3,-7,-2,0,0,0,0,0
295,3,-7,-1,0,0,0,0,0
296,4,-9,0,0,0,0,0,0
297,4,-7,0,0,0,0,0,0
298,3,-8,-1,0,0,0,0,0
299,0,-8,0,0,0,0,0,0
300,3,-8,0,0,0,0,0,0
301,2,-9,-1,0,0,0,0,0
302,2,-7,0,0,0,0,0,0
303,2,-8,1,0,0,0,0,0
304,3,-8,1,0,0,0,0,0
305,3,-7,-1,0,0,0,0,0
306,2,-6,-1,0,0,0,0,0
307,3,-11,0,0,0,0,0,0
308,5,-8,-1,0,0,0,0,0
309,6,-8,-4,0,0,0,0,0
310,1,-10,3,0,0,0,0,0
311,-3,-8,4,0,0,0,0,0
312,-12,-11,-5,0,0,0,0,0
313,4,-6,-4,0,0,0,0,0
314,10,-7,2,0,0,0,0,0
315,2,-8,1,0,0,0,0,0
316,2,-7,-4,0,0,0,0,0
317,5,-8,0,0,0,0,0,0
318,3,-7,2,0,0,0,0,0
319,2,-8,-2,0,0,0,0,0
320,1,-8,0,0,0,0,0,0
321,3,-8,1,0,0,0,0,0
322,3,-8,0,0,0,0,0,0
323,2,-7,0,0,0,0,0,0
324,2,-8,-1,0,0,0,0,0
325,2,-8,-2,0,0,0,0,0
326,4,-7,-1,0,0,0,0,0
327,1,-6,1,0,0,0,0,0
328,3,-7,-1,0,0,0,0,0
329,1,-9,0,0,0,0,0,0
330,4,-6,-1,0,0,0,0,0
331,3,-7,1,0,0,0,0,0
332,3,-7,0,0,0,0,0,0
333,3,-8,0,0,0,0,0,0
334,3,-7,0,0,0,0,0,0
335,0,-8,0,0,0,0,0,0
336,4,-7,-1,0,0,0,0,0
337,4,-7,0,0,0,0,0,0
338,1,-8,-1,0,0,0,0,0
339,2,-8,-1,0,0,0,0,0
340,2,-7,0,0,0,0,0,0
341,2,-9,0,0,0,0,0,0
342,4,-7,0,0,0,0,0,0
343,3,-9,-1,0,0,0,0,0
344,8,-10,-1,0,0,0,0,0
345,5,-7,0,0,0,0,0,0
346,8,-8,-1,0,0,0,0,0
347,4,-7,-1,0,0,0,0,0
348,-1,-8,0,0,0,0,0,0
349,4,-5,0,0,0,0,0,0
350,5,-7,-1,0,0,0,0,0
351,2,-7,0,0,0,0,0,0
352,3,-8,-1,0,0,0,0,0
353,0,-7,0,0,0,0,0,0
354,5,-7,1,0,0,0,0,0
355,4,-7,-1,0,0,0,0,0
356,3,-9,-1,0,0,0,0,0
357,3,-7,0,0,0,0,0,0
358,0,-5,0,426,0,0,0,0
359,6,-8,0,0,0,0,0,0
360,18,-5,0,426,0,0,0,0
361,13,-6,0,0,0,0,0,0
362,2,-8,1,44,0,0,0,0
363,13,-3,0,0,0,0,0,0
364,2,-7,1,0,0,0,0,0
365,0,-7,0,0,0,0,0,0
366,5,-7,-1,0,0,0,0,0
367,1,-4,0,0,0,0,0,0
368,5,-5,0,0,0,0,0,0
369,3,-8,-1,0,0,0,0,0
370,2,-6,-1,0,0,0,0,0
371,5,-5,-1,0,0,0,0,0
372,4,-3,0,0,0,0,0,0
373,2,-8,0,0,0,0,0,0
374,4,-4,-1,0,0,0,0,0
375,4,-2,0,0,0,0,0,0
376,4,-2,-2,0,0,0,0,0
377,1,-2,0,0,0,0,0,0
378,1,-2,-1,0,0,0,0,0
379,6,-2,0,0,0,0,0,0
380,3,4,-1,0,0,0,0,0
381,5,3,1,0,0,0,0,0
382,4,2,0,0,0,0,0,0
383,-1,4,-1,0,0,0,0,0
384,8,7,0,0,0,0,0,0
385,4,6,1,698,0,0,0,0
386,1,4,0,0,0,0,0,0
387,1,8,-1,0,0,0,0,0
388,8,11,0,0,0,0,0,0
389,3,8,1,0,0,0,0,0
390,8,11,-2,0,0,0,0,0
391,7,16,-1,0,0,0,0,0
392,7,15,1,0,0,0,0,0
393,6,12,-4,0,0,0,0,0
394,8,16,-4,0,0,0,0,0
395,5,15,1,0,0,0,0,0
396,3,5,-4,0,0,0,0,0
397,13,10,1,76,0,0,0,0
398,8,12,-5,0,0,0,0,0
399,-9,1,-4,485,0,0,0,0
400,-16,-3,2,0,0,0,0,0
401,12,8,-9,94,0,0,0,0
402,10,-14,5,0,0,0,0,0
403,8,-16,7,909,0,0,0,0
404,-1,-2,6,0,0,0,0,0
405,15,-21,0,925,0,0,0,0
406,9,-10,-3,0,0,0,0,0
407,-24,-17,-11,0,0,0,0,0
408,-10,-16,-9,0,0,0,0,0
409,-25,-28,4,0,0,0,0,0
410,28,-31,-5,0,0,0,0,0
411,26,-18,-1,0,0,0,0,0
412,15,-30,17,0,0,0,0,0
413,-2,-53,-2,0,0,0,0,0
414,-6,-49,-11,0,0,0,0,0
415,-27,-48,-5,0,0,0,0,0
416,18,-55,-5,0,0,0,0,0
417,-1,-70,19,0,0,0,0,0
418,38,-58,-5,0,0,0,0,0
419,20,-57,17,0,0,0,0,0
420,-14,-78,-3,0,0,0,0,0
421,-4,-70,-16,0,0,0,0,0
422,-1,-74,7,0,0,0,0,0
423,-19,-78,-20,0,0,0,0,0
424,9,-71,-1,0,0,0,0,0
425,-11,-72,3,0,0,0,0,0
426,-15,-86,-12,0,0,0,0,0
427,-21,-83,-2,0,0,0,0,0
428,-44,-79,4,0,0,0,0,0
429,-38,-93,0,0,0,0,0,0
430,-16,-84,1,0,0,0,0,0
431,-13,-86,0,0,0,0,0,0
432,-67,-112,12,0,0,0,0,0
433,-34,-107,7,0,0,0,0,0
434,48,-89,-11,0,0,0,0,0
435,-30,-78,-27,0,0,0,0,0
436,-42,-107,5,0,0,0,0,0
437,-65,-87,1,0,0,0,0,0
438,-1,-94,-12,0,0,0,0,0
439,-73,-116,-3,0,0,0,0,0
440,2,-98,-10,522,0,0,0,0
441,49,-92,-4,0,0,0,0,0
442,-24,-93,-26,412,0,0,0,0
443,14,-87,14,0,0,0,0,0
444,19,-96,-8,427,0,0,0,0
445,10,-89,-4,0,0,0,0,0
446,17,-99,1,443,0,0,0,0
447,25,-89,-3,0,0,0,0,0
448,-47,-100,0,1058,0,0,0,0
449,11,-80,-20,0,0,0,0,0
450,53,-67,5,0,0,0,0,0
451,-72,-87,7,0,0,0,0,0
452,21,-52,-9,1066,0,0,0,0
453,-20,-80,-8,0,0,0,0,0
454,-35,-78,-18,0,0,0,0,0
455,68,-58,-5,0,0,0,0,0
456,-50,-63,-32,0,0,0,0,0
457,-14,-59,3,0,0,0,0,0
458,-11,-61,-22,0,0,0,0,0
459,-5,-76,-12,0,0,0,0,0
460,-30,-69,-8,0,0,0,0,0
461,-147,-97,43,0,0,0,0,0
462,-4,-60,8,0,0,0,0,0
463,-15,-95,18,0,0,0,0,0
464,37,-50,-24,0,0,0,0,0
465,-2,-64,8,0,0,0,0,0
466,-11,-44,-5,0,0,0,0,0
467,-20,-50,-6,0,0,0,0,0
468,38,-32,11,0,0,0,0,0
469,10,-30,-29,0,0,0,0,0
470,35,-18,25,0,0,0,0,0
471,41,-16,1,0,0,0,0,0
472,-1,-48,-4,0,0,0,0,0
473,-22,-35,2,0,0,0,0,0
474,14,4,2,0,0,0,0,0
475,252,-26,-4,0,0,0,0,0
476,8,-25,6,0,0,0,0,0
477,28,-2,-7,0,0,0,0,0
478,-4,-16,21,0,0,0,0,0
479,-24,-20,25,0,0,0,0,0
480,31,1,10,0,0,0,0,0
481,22,9,17,0,0,0,0,0
482,-18,-9,3,0,0,0,0,0
483,26,-1,8,0,0,0,0,0
484,64,8,-5,0,0,0,0,0
485,-6,19,-2,0,0,0,0,0
486,-21,-10,16,0,0,0,0,0
487,14,-7,3,0,0,0,0,0
488,-34,-1,-3,0,0,0,0,0
489,3,1,5,0,0,0,0,0
490,34,21,-4,556,0,0,0,0
491,11,16,4,0,0,0,0,0
492,48,-32,-13,753,0,0,0,0
493,12,-13,-5,0,0,0,0,0
494,-25,-2,-6,0,0,0,0,0
495,5,30,7,0,0,0,0,0
496,-187,26,-4,0,0,0,0,0
497,-36,-41,-31,1017,0,0,0,0
498,-6,5,-39,0,0,0,0,0
499,38,36,-3,1005,0,0,0,0
500,9,-9,4,0,0,0,0,0
501,22,17,-1,0,0,0,0,0
502,21,-1,7,0,0,0,0,0
503,17,22,-1,901,0,0,0,0
504,-5,17,-2,0,0,0,0,0
505,15,1,4,0,0,0,0,0
506,-8,14,9,0,0,0,0,0
507,-11,-12,2,0,0,0,0,0
508,6,24,-3,0,0,0,0,0
509,-2,17,5,0,0,0,0,0
510,24,-6,8,0,0,0,0,0
511,-3,17,4,0,0,0,0,0
512,-4,7,9,0,0,0,0,0
513,35,16,14,261,0,0,0,0
514,-15,12,2,0,0,0,0,0
515,26,17,9,657,0,0,0,0
516,20,19,21,0,0,0,0,0
517,6,13,15,258,0,0,0,0
518,-4,15,-1,661,0,0,0,0
519,-11,34,-14,0,0,0,0,0
520,11,42,-7,313,0,0,0,0
521,20,48,4,0,0,0,0,0
522,29,43,-2,0,0,0,0,0
523,-20,44,-8,0,0,0,0,0
524,56,44,7,1116,0,0,0,0
525,33,53,9,0,0,0,0,0
526,-46,48,4,0,0,0,0,0
527,28,35,18,0,0,0,0,0
528,-32,31,5,0,0,0,0,0
529,-6,34,19,0,0,0,0,0
530,19,31,25,0,0,0,0,0
531,-70,17,5,0,0,0,0,0
532,42,36,27,1127,0,0,0,0
533,-29,21,15,0,0,0,0,0
534,-42,33,-11,0,0,0,0,0
535,-48,31,-19,0,0,0,0,0
536,30,36,-20,0,0,0,0,0
537,19,35,10,0,0,0,0,0
538,-17,24,44,0,0,0,0,0
539,-3,44,-9,0,0,0,0,0
540,-6,15,-22,0,0,0,0,0
541,63,42,6,0,0,0,0,0
542,76,38,35,0,0,0,0,0
543,-4,8,18,0,0,0,0,0
544,-21,22,-17,0,0,0,0,0
545,43,26,-24,0,0,0,0,0
546,145,46,20,0,0,0,0,0
547,54,25,16,0,0,0,0,0
548,15,22,-33,0,0,0,0,0
549,-105,-12,9,471,0,0,0,0
550,92,20,-24,0,0,0,0,0
551,158,4,37,471,0,0,0,0
552,2,-14,19,427,0,0,0,0
553,13,-31,-15,0,0,0,0,0
554,-6,-17,-19,0,0,0,0,0
555,101,-7,0,397,0,0,0,0
556,37,296,24,0,0,0,0,0
557,104,307,20,0,0,0,0,0
558,26,286,8,0,0,0,0,0
559,70,303,11,0,0,0,0,0
560,47,312,-8,0,0,0,0,0
561,58,303,-5,0,0,0,0,0
562,-16,286,1,1175,0,0,0,0
563,75,316,0,0,0,0,0,0
564,59,305,-8,1171,0,0,0,0
565,26,296,11,0,0,0,0,0
566,-13,270,11,1175,0,0,0,0
567,6,266,-3,0,0,0,0,0
568,17,278,-3,0,0,0,0,0
569,122,255,6,1178,0,0,0,0
570,49,261,1,0,0,0,0,0
571,108,258,7,0,0,0,0,0
572,-20,249,12,0,0,0,0,0
573,-16,213,-25,0,0,0,0,0
574,40,221,2,0,0,0,0,0
575,26,179,16,0,0,0,0,0
576,62,172,6,0,0,0,0,0
577,-7,158,-2,0,0,0,0,0
578,4,138,-7,0,0,0,0,0
579,-42,117,13,0,0,0,0,0
580,35,108,-22,0,0,0,0,0
581,91,96,2,0,0,0,0,0
582,6,66,9,0,0,0,0,0
583,87,81,-2,0,0,0,0,0
584,32,73,-2,0,0,0,0,0
585,13,70,-25,0,0,0,0,0
586,-20,74,-1,0,0,0,0,0
587,86,77,-4,0,0,0,0,0
588,-11,54,-18,0,0,0,0,0
589,-1,66,6,0,0,0,0,0
590,42,67,0,0,0,0,0,0
591,-29,51,16,0,0,0,0,0
592,76,81,5,0,0,0,0,0
593,70,57,4,0,0,0,0,0
594,-253,67,10,0,0,0,0,0
595,65,75,-16,0,0,0,0,0
596,32,60,11,0,0,0,0,0
597,-25,78,-15,0,0,0,0,0
598,42,91,-7,0,0,0,0,0
599,-1,96,3,586,0,0,0,0
600,48,114,-7,0,0,0,0,0
601,92,119,10,586,0,0,0,0
602,64,125,-20,0,0,0,0,0
603,71,114,-7,1200,0,0,0,0
604,52,91,32,0,0,0,0,0
605,5,102,-2,0,0,0,0,0
606,13,79,10,0,0,0,0,0
607,18,89,251,0,0,0,0,0
608,19,93,4,0,0,0,0,0
609,66,89,-9,0,0,0,0,0
610,-9,69,7,0,0,0,0,0
611,35,96,-1,0,0,0,0,0
612,-17,58,-2,0,0,0,0,0
613,-22,74,-24,0,0,0,0,0
614,-30,67,-17,0,0,0,0,0
615,24,82,2,0,0,0,0,0
616,-4,65,-5,0,0,0,0,0
617,-2,65,-18,0,0,0,0,0
618,15,60,1,0,0,0,0,0
619,-28,54,11,0,0,0,0,0
620,39,56,-5,0,0,0,0,0
621,-43,54,7,0,0,0,0,0
622,5,56,0,0,0,0,0,0
623,15,57,-3,0,0,0,0,0
624,6,58,18,0,0,0,0,0
625,57,58,-1,0,0,0,0,0
626,-14,54,-15,0,0,0,0,0
627,28,53,18,0,0,0,0,0
628,-17,43,-1,0,0,0,0,0
629,-40,20,7,0,0,0,0,0
630,29,40,-1,0,0,0,0,0
631,-16,16,11,0,0,0,0,0
632,59,15,6,0,0,0,0,0
633,-30,23,-8,0,0,0,0,0
634,34,5,-14,0,0,0,0,0
635,52,18,0,0,0,0,0,0
636,10,-11,12,0,0,0,0,0
637,58,-7,-18,0,0,0,0,0
638,38,-12,-6,788,0,0,0,0
639,16,-20,-4,0,0,0,0,0
640,58,-12,-4,790,0,0,0,0
641,3,-19,9,0,0,0,0,0
642,103,-23,34,528,0,0,0,0
643,57,-13,19,0,0,0,0,0
644,-92,-32,18,789,0,0,0,0
645,-37,-27,20,0,0,0,0,0
646,188,9,5,533,0,0,0,0
647,11,-15,-6,0,0,0,0,0
648,51,3,14,536,0,0,0,0
649,-83,-19,2,0,0,0,0,0
650,19,-4,14,0,0,0,0,0
651,73,13,6,0,0,0,0,0
652,22,23,0,0,0,0,0,0
653,-15,-12,-26,0,0,0,0,0
654,-87,-3,-13,0,0,0,0,0
655,-31,5,-12,0,0,0,0,0
656,55,32,11,0,0,0,0,0
657,2,-6,21,0,0,0,0,0
658,95,43,-2,0,0,0,0,0
659,-13,10,17,0,0,0,0,0
660,-31,19,16,0,0,0,0,0
661,62,36,3,0,0,0,0,0
662,52,31,14,1189,0,0,0,0
663,35,24,-16,0,0,0,0,0
664,-7,24,8,0,0,0,0,0
665,19,15,-3,0,0,0,0,0
666,-2,17,17,0,0,0,0,0
667,59,18,-11,0,0,0,0,0
668,83,39,-4,0,0,0,0,0
669,-18,11,-11,0,0,0,0,0
670,38,17,19,0,0,0,0,0
671,-48,41,43,0,0,0,0,0
672,-33,14,-9,0,0,0,0,0
673,-88,22,-13,0,0,0,0,0
674,79,34,-4,0,0,0,0,0
675,-39,33,0,1189,0,0,0,0
676,-9,10,3,0,0,0,0,0
677,116,37,-1,0,0,0,0,0
678,-4,20,-18,0,0,0,0,0
679,13,32,-4,0,0,0,0,0
680,-39,20,-8,0,0,0,0,0
681,49,25,21,0,0,0,0,0
682,-9,22,-19,0,0,0,0,0
683,61,37,-27,0,0,0,0,0
684,-15,36,18,0,0,0,0,0
685,-6,18,-17,0,0,0,0,0
686,1,36,-4,606,0,0,0,0
687,65,38,21,0,0,0,0,0
688,-52,12,-1,610,0,0,0,0
689,-80,30,-2,0,0,0,0,0
690,-2,27,20,612,0,0,0,0
691,3,18,22,0,0,0,0,0
692,13,39,-17,614,0,0,0,0
693,-21,20,11,0,0,0,0,0
694,-92,13,-15,789,0,0,0,0
695,58,33,-9,0,0,0,0,0
696,-27,45,4,620,0,0,0,0
697,-25,21,-3,0,0,0,0,0
698,10,10,1,1208,0,0,0,0
699,48,23,-21,0,0,0,0,0
700,39,9,-29,0,0,0,0,0
701,-23,17,2,0,0,0,0,0
702,83,23,-4,0,0,0,0,0
703,30,13,0,0,0,0,0,0
704,-152,-39,-18,0,0,0,0,0
705,-28,-2,-10,0,0,0,0,0
706,25,11,24,0,0,0,0,0
707,94,29,8,0,0,0,0,0
708,-27,-20,15,0,0,0,0,0
709,37,-3,-1,0,0,0,0,0
710,54,17,3,0,0,0,0,0
711,-13,-12,-4,0,0,0,0,0
712,-11,-14,14,0,0,0,0,0
713,-45,5,-10,0,0,0,0,0
714,-29,-14,3,0,0,0,0,0
715,38,4,-6,0,0,0,0,0
716,-66,-13,-3,0,0,0,0,0
717,-51,-28,-7,0,0,0,0,0
718,-67,-25,-20,0,0,0,0,0
719,-7,-4,2,0,0,0,0,0
720,31,-16,-2,0,0,0,0,0
721,-41,-18,2,0,0,0,0,0
722,48,-8,-15,0,0,0,0,0
723,10,-18,7,0,0,0,0,0
724,-9,-36,-3,0,0,0,0,0
725,72,0,8,0,0,0,0,0
726,-4,-21,6,0,0,0,0,0
727,67,-8,-15,0,0,0,0,0
728,90,-4,0,628,0,0,0,0
729,80,-11,0,0,0,0,0,0
730,110,-10,7,638,0,0,0,0
731,11,-15,-37,0,0,0,0,0
732,-37,-13,-23,648,0,0,0,0
733,-2,-16,2,0,0,0,0,0
734,71,17,-14,661,0,0,0,0
735,6,-44,4,0,0,0,0,0
736,4,-43,-6,677,0,0,0,0
737,60,-35,2,0,0,0,0,0
738,79,-38,-4,694,0,0,0,0
739,15,-88,13,0,0,0,0,0
740,2,-94,254,723,0,0,0,0
741,-44,-168,-5,0,0,0,0,0
742,-50,-179,-31,741,0,0,0,0
743,-80,-229,-13,0,0,0,0,0
744,33,-229,9,1233,0,0,0,0
745,-32,-279,-7,0,0,0,0,0
746,-146,-295,-6,1237,0,0,0,0
747,13,-305,-13,0,0,0,0,0
748,-62,-305,22,0,0,0,0,0
749,-42,-300,8,0,0,0,0,0
750,-3,-301,-9,0,0,0,0,0
751,-67,-311,-27,0,0,0,0,0
752,0,-320,11,0,0,0,0,0
753,-71,-315,23,0,0,0,0,0
754,-53,-296,4,0,0,0,0,0
755,-50,-349,-14,0,0,0,0,0
756,-1,-337,-15,0,0,0,0,0
757,30,-309,-28,0,0,0,0,0
758,42,-331,-8,0,0,0,0,0
759,-63,-327,18,0,0,0,0,0
760,-4,-332,1,0,0,0,0,0
761,-66,-332,17,0,0,0,0,0
762,18,-322,49,1232,0,0,0,0
763,67,-327,-55,0,0,0,0,0
764,-42,-279,33,0,0,0,0,0
765,121,-330,5,0,0,0,0,0
766,-92,-345,-21,0,0,0,0,0
767,-29,-345,-33,0,0,0,0,0
768,-262,-373,-29,0,0,0,0,0
769,-2,-329,28,0,0,0,0,0
770,-42,-337,-4,0,0,0,0,0
771,-208,-381,-26,0,0,0,0,0
772,-12,-359,-19,0,0,0,0,0
773,50,-352,17,0,0,0,0,0
774,-94,-335,8,0,0,0,0,0
775,9,-311,10,0,0,0,0,0
776,-22,-298,-35,0,0,0,0,0
777,10,-282,-28,0,0,0,0,0
778,48,-267,68,0,0,0,0,0
779,-16,-268,-31,0,0,0,0,0
780,-53,-274,7,0,0,0,0,0
781,-86,-10,-17,0,0,0,0,0
782,-105,-244,-76,0,0,0,0,0
783,-63,-252,19,0,0,0,0,0
784,48,-253,10,0,0,0,0,0
785,-22,-260,-52,0,0,0,0,0
786,-27,-247,5,0,0,0,0,0
787,15,-244,-2,750,0,0,0,0
788,179,-266,43,0,0,0,0,0
789,6,-279,-35,960,0,0,0,0
790,-26,-264,-6,0,0,0,0,0
791,25,-298,24,948,0,0,0,0
792,34,-357,18,0,0,0,0,0
793,-74,-382,-35,942,0,0,0,0
794,24,-411,11,0,0,0,0,0
795,-71,-423,-30,1210,0,0,0,0
796,-46,-496,13,0,0,0,0,0
797,-62,-522,-1,0,0,0,0,0
798,-166,-516,10,0,0,0,0,0
799,42,-485,44,0,0,0,0,0
800,-174,-501,-15,0,0,0,0,0
801,-58,-473,0,0,0,0,0,0
802,97,-447,-11,0,0,0,0,0
803,-6,-497,8,0,0,0,0,0
804,13,-446,37,0,0,0,0,0
805,-50,-457,31,0,0,0,0,0
806,89,-435,-20,0,0,0,0,0
807,77,-426,-8,0,0,0,0,0
808,-2,-453,33,973,0,0,0,0
809,19,-423,17,0,0,0,0,0
810,-86,-460,21,0,0,0,0,0
811,3,-409,-31,0,0,0,0,0
812,-69,-439,-252,0,0,0,0,0
813,9,-416,-49,0,0,0,0,0
814,-182,-434,9,0,0,0,0,0
815,-43,-436,-26,0,0,0,0,0
816,-22,-429,25,614,0,0,0,0
817,62,-399,-18,0,0,0,0,0
818,89,-417,-9,773,0,0,0,0
819,-30,-431,-5,0,0,0,0,0
820,-35,-459,-38,0,0,0,0,0
821,-180,-449,-21,0,0,0,0,0
822,80,-426,-7,0,0,0,0,0
823,75,-449,22,0,0,0,0,0
824,71,-414,-28,0,0,0,0,0
825,-81,-473,-27,0,0,0,0,0
826,-84,-469,9,0,0,0,0,0
827,-52,-470,13,1106,0,0,0,0
828,-126,-486,-17,0,0,0,0,0
829,-311,-499,-53,1072,0,0,0,0
830,114,-449,15,0,0,0,0,0
831,-56,-493,-52,0,0,0,0,0
832,-45,-493,-2,0,0,0,0,0
833,-40,-451,-48,0,0,0,0,0
834,61,-429,10,0,0,0,0,0
835,132,-423,11,995,0,0,0,0
836,55,-437,9,0,0,0,0,0
837,66,-383,33,970,0,0,0,0
838,11,-455,-25,0,0,0,0,0
839,-111,-445,-10,0,0,0,0,0
840,-57,-408,-27,0,0,0,0,0
841,-64,-440,14,0,0,0,0,0
842,-133,-440,-26,0,0,0,0,0
843,5,-434,-11,0,0,0,0,0
844,-15,-422,4,0,0,0,0,0
845,-13,-420,-3,0,0,0,0,0
846,-24,-408,3,0,0,0,0,0
847,-98,-407,-11,0,0,0,0,0
848,12,-373,-3,756,0,0,0,0
849,11,-364,6,0,0,0,0,0
850,-61,-368,-22,747,0,0,0,0
851,-8,-297,-55,0,0,0,0,0
852,-53,-321,-21,0,0,0,0,0
853,-4,-301,-12,0,0,0,0,0
854,68,-265,-15,0,0,0,0,0
855,-41,-249,-24,0,0,0,0,0
856,-43,-261,-23,0,0,0,0,0
857,-83,-271,7,0,0,0,0,0
858,-25,-241,-3,0,0,0,0,0
859,-5,-253,18,0,0,0,0,0
860,-28,-252,14,0,0,0,0,0
861,-24,-218,-24,0,0,0,0,0
862,-44,-246,-1,0,0,0,0,0
863,-177,-239,-3,0,0,0,0,0
864,37,-198,-22,0,0,0,0,0
865,-36,-219,0,0,0,0,0,0
866,-103,-191,-18,1040,0,0,0,0
867,-51,-197,32,0,0,0,0,0
868,-30,-178,-11,0,0,0,0,0
869,-248,-82,8,0,0,0,0,0
870,100,-28,4,0,0,0,0,0
871,95,-27,38,0,0,0,0,0
872,-53,-51,-29,0,0,0,0,0
873,63,13,-5,0,0,0,0,0
874,-124,-33,56,0,0,0,0,0
875,23,-15,9,0,0,0,0,0
876,9,73,13,0,0,0,0,0
877,58,127,-18,0,0,0,0,0
878,26,132,-9,0,0,0,0,0
879,59,136,10,418,0,0,0,0
880,-101,118,-7,0,0,0,0,0
881,134,149,21,910,0,0,0,0
882,-5,123,-25,0,0,0,0,0
883,101,140,21,1066,0,0,0,0
884,-18,120,-22,0,0,0,0,0
885,66,106,5,0,0,0,0,0
886,73,118,21,0,0,0,0,0
887,110,109,4,1024,0,0,0,0
888,66,88,15,0,0,0,0,0
889,55,70,-8,1041,0,0,0,0
890,120,79,-16,0,0,0,0,0
891,-73,56,-42,0,0,0,0,0
892,-36,27,-25,0,0,0,0,0
893,15,35,-9,0,0,0,0,0
894,86,0,-20,0,0,0,0,0
895,20,-6,0,0,0,0,0,0
896,-148,-33,-52,0,0,0,0,0
897,-34,-63,-5,0,0,0,0,0
898,-110,-70,-6,0,0,0,0,0
899,5,-37,44,0,0,0,0,0
900,14,-48,25,0,0,0,0,0
901,15,-40,-12,0,0,0,0,0
902,-98,-59,-31,407,0,0,0,0
903,-17,-61,3,322,0,0,0,0
904,-25,-65,4,0,0,0,0,0
905,-15,-66,25,0,0,0,0,0
906,-101,-57,-1,0,0,0,0,0
907,48,-57,14,0,0,0,0,0
908,-31,-46,-19,0,0,0,0,0
909,13,-45,18,0,0,0,0,0
910,-15,-41,-37,0,0,0,0,0
911,-122,-43,-6,0,0,0,0,0
912,52,-117,-13,0,0,0,0,0
913,9,-107,-20,0,0,0,0,0
914,43,-108,22,0,0,0,0,0
915,52,-113,-18,0,0,0,0,0
916,115,-80,-36,0,0,0,0,0
917,-40,-133,1,1008,0,0,0,0
918,-4,-92,16,0,0,0,0,0
919,154,-80,17,1013,0,0,0,0
920,255,-103,19,0,0,0,0,0
921,-25,-121,-24,0,0,0,0,0
922,-28,-94,-30,0,0,0,0,0
923,-13,-101,5,0,0,0,0,0
924,22,-70,-13,0,0,0,0,0
925,53,-50,26,0,0,0,0,0
926,60,-46,29,0,0,0,0,0
927,20,6,-10,0,0,0,0,0
928,237,61,6,0,0,0,0,0
929,-105,-22,5,0,0,0,0,0
930,-154,-24,-17,0,0,0,0,0
931,86,48,-14,0,0,0,0,0
932,-87,27,13,0,0,0,0,0
933,3,71,15,0,0,0,0,0
934,21,69,-20,0,0,0,0,0
935,-48,69,-7,0,0,0,0,0
936,-163,114,-29,0,0,0,0,0
937,69,93,-48,0,0,0,0,0
938,73,123,28,0,0,0,0,0
939,-24,142,24,0,0,0,0,0
940,32,154,-8,0,0,0,0,0
941,62,162,-20,0,0,0,0,0
942,-158,167,-32,0,0,0,0,0
943,15,170,-246,0,0,0,0,0
944,-15,176,43,771,0,0,0,0
945,8,185,-11,0,0,0,0,0
946,-46,191,1,768,0,0,0,0
947,-44,193,6,0,0,0,0,0
948,-48,203,-8,761,0,0,0,0
949,99,243,33,0,0,0,0,0
950,191,272,-2,381,0,0,0,0
951,163,302,28,0,0,0,0,0
952,24,282,3,753,0,0,0,0
953,34,331,-3,0,0,0,0,0
954,-24,338,-1,748,0,0,0,0
955,88,360,-1,0,0,0,0,0
956,106,356,-4,744,0,0,0,0
957,73,349,10,0,0,0,0,0
958,105,343,21,0,0,0,0,0
959,125,347,-9,0,0,0,0,0
960,46,310,-9,0,0,0,0,0
961,183,349,36,0,0,0,0,0
962,24,331,-15,0,0,0,0,0
963,81,332,-3,0,0,0,0,0
964,80,341,28,0,0,0,0,0
965,36,337,-6,0,0,0,0,0
966,25,323,2,0,0,0,0,0
967,47,351,-34,0,0,0,0,0
968,38,338,-5,1012,0,0,0,0
969,4,350,1,0,0,0,0,0
970,77,352,-18,0,0,0,0,0
971,67,329,-13,0,0,0,0,0
972,66,356,-15,1025,0,0,0,0
973,-38,330,-26,0,0,0,0,0
974,-6,332,-18,0,0,0,0,0
975,57,359,-5,0,0,0,0,0
976,71,351,-7,0,0,0,0,0
977,47,336,-6,0,0,0,0,0
978,48,343,-11,0,0,0,0,0
979,110,349,-12,0,0,0,0,0
980,155,353,28,0,0,0,0,0
981,-26,327,-6,0,0,0,0,0
982,47,330,-15,0,0,0,0,0
983,-38,323,10,0,0,0,0,0
984,-14,318,5,0,0,0,0,0
985,80,322,11,0,0,0,0,0
986,89,339,6,0,0,0,0,0
987,90,329,-1,0,0,0,0,0
988,41,333,28,663,0,0,0,0
989,9,333,14,0,0,0,0,0
990,106,349,-15,676,0,0,0,0
991,53,333,23,0,0,0,0,0
992,75,344,-15,0,0,0,0,0
993,120,364,3,0,0,0,0,0
994,71,361,-9,0,0,0,0,0
995,47,343,20,0,0,0,0,0
996,21,338,14,696,0,0,0,0
997,66,355,-35,0,0,0,0,0
998,85,362,-4,695,0,0,0,0
999,23,374,-37,0,0,0,0,0
1000,97,364,15,701,0,0,0,0
1001,128,357,17,0,0,0,0,0
1002,31,368,33,698,0,0,0,0
1003,75,339,39,0,0,0,0,0
1004,41,341,-5,698,0,0,0,0
1005,-55,344,-15,0,0,0,0,0
1006,3,337,-9,710,0,0,0,0
1007,-206,339,0,0,0,0,0,0
1008,26,355,10,711,0,0,0,0
1009,-3,349,0,0,0,0,0,0
1010,19,350,-6,0,0,0,0,0
1011,77,370,14,0,0,0,0,0
1012,34,375,-11,0,0,0,0,0
1013,-26,361,18,0,0,0,0,0
1014,8,358,7,0,0,0,0,0
1015,18,381,2,0,0,0,0,0
1016,27,359,-11,0,0,0,0,0
1017,27,362,4,0,0,0,0,0
1018,38,383,-4,0,0,0,0,0
1019,141,403,19,0,0,0,0,0
1020,6,367,10,0,0,0,0,0
1021,49,362,25,0,0,0,0,0
1022,69,364,1,0,0,0,0,0
1023,-2,365,27,0,0,0,0,0
1024,62,379,41,0,0,0,0,0
1025,128,407,-11,0,0,0,0,0
1026,147,413,-2,0,0,0,0,0
1027,-66,392,-3,0,0,0,0,0
1028,26,408,23,0,0,0,0,0
1029,64,412,15,0,0,0,0,0
1030,179,421,27,0,0,0,0,0
1031,24,445,30,0,0,0,0,0
1032,32,431,8,0,0,0,0,0
1033,103,457,18,0,0,0,0,0
1034,142,448,18,0,0,0,0,0
1035,98,441,-6,0,0,0,0,0
1036,57,464,-8,0,0,0,0,0
1037,73,444,0,0,0,0,0,0
1038,-21,440,-7,1135,0,0,0,0
1039,-26,433,8,0,0,0,0,0
1040,-32,427,15,0,0,0,0,0
1041,62,443,16,0,0,0,0,0
1042,54,443,-12,0,0,0,0,0
1043,115,447,7,0,0,0,0,0
1044,29,418,1,0,0,0,0,0
1045,145,433,25,0,0,0,0,0
1046,-1,425,8,0,0,0,0,0
1047,6,420,-2,0,0,0,0,0
1048,16,429,-3,0,0,0,0,0
1049,34,423,-21,1142,0,0,0,0
1050,75,433,-7,0,0,0,0,0
1051,16,403,24,0,0,0,0,0
1052,81,425,-34,0,0,0,0,0
1053,-20,423,25,0,0,0,0,0
1054,182,404,37,0,0,0,0,0
1055,-58,396,6,0,0,0,0,0
1056,53,420,10,0,0,0,0,0
1057,95,427,3,0,0,0,0,0
1058,89,409,14,0,0,0,0,0
1059,34,416,-25,860,0,0,0,0
1060,73,414,-12,0,0,0,0,0
1061,102,421,7,0,0,0,0,0
1062,125,423,11,594,0,0,0,0
1063,105,411,-4,0,0,0,0,0
1064,94,406,-4,0,0,0,0,0
1065,-16,390,-17,0,0,0,0,0
1066,59,419,0,0,0,0,0,0
1067,9,408,1,0,0,0,0,0
1068,9,386,2,0,0,0,0,0
1069,141,403,25,0,0,0,0,0
1070,44,404,-8,0,0,0,0,0
1071,76,410,11,0,0,0,0,0
1072,-8,396,4,0,0,0,0,0
1073,-59,393,-1,0,0,0,0,0
1074,71,393,15,0,0,0,0,0
1075,23,391,-14,674,0,0,0,0
1076,45,405,-1,0,0,0,0,0
1077,57,425,1,673,0,0,0,0
1078,37,397,18,0,0,0,0,0
1079,21,402,27,824,0,0,0,0
1080,23,428,8,0,0,0,0,0
1081,136,427,22,824,0,0,0,0
1082,10,404,-8,676,0,0,0,0
1083,97,408,19,0,0,0,0,0
1084,70,409,-14,665,0,0,0,0
1085,38,411,2,0,0,0,0,0
1086,-167,396,-9,829,0,0,0,0
1087,74,401,-1,0,0,0,0,0
1088,51,410,-30,0,0,0,0,0
1089,4,410,-28,0,0,0,0,0
1090,146,430,11,0,0,0,0,0
1091,53,413,8,0,0,0,0,0
1092,114,391,-25,0,0,0,0,0
1093,19,285,-8,0,0,0,0,0
1094,49,222,5,0,0,0,0,0
1095,7,123,-28,0,0,0,0,0
1096,49,46,17,0,0,0,0,0
1097,69,29,-29,0,0,0,0,0
1098,-26,-34,-13,0,0,0,0,0
1099,-13,-113,8,0,0,0,0,0
1100,-47,-137,-9,0,0,0,0,0
1101,54,-123,12,0,0,0,0,0
1102,81,-120,17,0,0,0,0,0
1103,-124,-125,39,0,0,0,0,0
1104,-2,-62,-6,0,0,0,0,0
1105,93,-71,10,0,0,0,0,0
1106,22,-97,9,0,0,0,0,0
1107,68,-117,-59,0,0,0,0,0
1108,32,-126,-32,0,0,0,0,0
1109,-99,-177,-8,1148,0,0,0,0
1110,-22,-201,-11,0,0,0,0,0
1111,3,-172,0,766,0,0,0,0
1112,-50,-181,-52,0,0,0,0,0
1113,-36,-176,1,761,0,0,0,0
1114,-32,-163,-18,0,0,0,0,0
1115,-60,-179,8,790,0,0,0,0
1116,-53,-198,13,0,0,0,0,0
1117,1,-213,34,0,0,0,0,0
1118,10,-215,-17,0,0,0,0,0
1119,41,-262,-40,0,0,0,0,0
1120,-60,-331,-34,0,0,0,0,0
1121,-29,-368,8,0,0,0,0,0
1122,43,-387,-13,0,0,0,0,0
1123,-8,-421,-3,0,0,0,0,0
1124,-164,-452,-1,0,0,0,0,0
1125,163,-407,10,0,0,0,0,0
1126,-81,-449,41,0,0,0,0,0
1127,-67,-438,17,0,0,0,0,0
1128,-39,-413,3,0,0,0,0,0
1129,-45,-425,-6,0,0,0,0,0
1130,-140,-436,6,0,0,0,0,0
1131,6,-382,5,0,0,0,0,0
1132,23,-371,22,0,0,0,0,0
1133,-7,-379,-14,0,0,0,0,0
1134,-98,-361,-22,0,0,0,0,0
1135,36,-352,16,0,0,0,0,0
1136,-31,-363,-20,0,0,0,0,0
1137,-9,-360,14,0,0,0,0,0
1138,-32,-372,1,0,0,0,0,0
1139,-50,-356,-13,794,0,0,0,0
1140,-53,-360,1,0,0,0,0,0
1141,-55,-369,1,708,0,0,0,0
1142,-71,-361,-9,0,0,0,0,0
1143,-39,-364,4,705,0,0,0,0
1144,-38,-372,-11,0,0,0,0,0
1145,-36,-348,-26,0,0,0,0,0
1146,-26,-340,-36,0,0,0,0,0
1147,-3,-351,-3,0,0,0,0,0
1148,-21,-370,6,0,0,0,0,0
1149,13,-362,-10,0,0,0,0,0
1150,-75,-358,-26,0,0,0,0,0
1151,-80,-354,20,0,0,0,0,0
1152,39,-343,-24,0,0,0,0,0
1153,-28,-364,12,0,0,0,0,0
1154,-99,-359,-33,0,0,0,0,0
1155,54,-320,-11,0,0,0,0,0
1156,-56,-350,19,0,0,0,0,0
1157,-80,-340,6,791,0,0,0,0
1158,-74,-337,31,0,0,0,0,0
1159,-29,-332,1,669,0,0,0,0
1160,49,-326,37,0,0,0,0,0
1161,-71,-275,-1,0,0,0,0,0
1162,-76,-245,1,0,0,0,0,0
1163,62,-190,17,0,0,0,0,0
1164,44,330,-49,1194,0,0,0,0
1165,79,332,5,1050,0,0,0,0
1166,-5,347,55,0,0,0,0,0
1167,14,359,-16,0,0,0,0,0
1168,2,348,4,0,0,0,0,0
1169,46,370,42,0,0,0,0,0
1170,-10,377,9,0,0,0,0,0
1171,-32,384,-1,0,0,0,0,0
1172,92,393,-18,1220,0,0,0,0
1173,-33,373,47,0,0,0,0,0
1174,169,395,-18,0,0,0,0,0
1175,-27,386,34,0,0,0,0,0
1176,48,402,9,0,0,0,0,0
1177,63,364,42,0,0,0,0,0
1178,33,359,1,1229,0,0,0,0
1179,131,355,-17,0,0,0,0,0
1180,30,328,-32,0,0,0,0,0
1181,-121,301,-7,0,0,0,0,0
1182,131,313,9,0,0,0,0,0
1183,10,268,0,0,0,0,0,0
1184,-4,149,-26,0,0,0,0,0
1185,116,124,-27,0,0,0,0,0
1186,-2,66,-90,0,0,0,0,0
1187,216,64,-36,0,0,0,0,0
1188,-41,-68,-35,0,0,0,0,0
1189,193,-39,-45,0,0,0,0,0
1190,12,-93,-46,787,0,0,0,0
1191,-69,-141,2,0,0,0,0,0
1192,15,-121,14,789,0,0,0,0
1193,-2,-130,96,0,0,0,0,0
1194,-19,-140,-21,1208,0,0,0,0
1195,-47,-174,-59,0,0,0,0,0
1196,20,-176,7,1211,0,0,0,0
1197,-32,-141,-5,0,0,0,0,0
1198,-42,-142,67,0,0,0,0,0
1199,-34,-129,-64,0,0,0,0,0
1200,33,-96,114,0,0,0,0,0
1201,47,0,22,0,0,0,0,0
1202,-29,231,-23,0,0,0,0,0
1203,-88,286,45,0,0,0,0,0
1204,66,298,34,0,0,0,0,0
1205,115,328,27,0,0,0,0,0
1206,93,318,-11,0,0,0,0,0
1207,-56,297,0,0,0,0,0,0
1208,91,331,26,0,0,0,0,0
1209,50,310,5,0,0,0,0,0
1210,-29,326,77,0,0,0,0,0
1211,77,335,45,0,0,0,0,0
1212,61,363,57,0,0,0,0,0
1213,149,396,-4,0,0,0,0,0
1214,52,365,29,786,0,0,0,0
1215,149,379,20,0,0,0,0,0
1216,-1,407,-29,1419,0,0,0,0
1217,-48,395,3,0,0,0,0,0
1218,78,413,60,1213,0,0,0,0
1219,-51,397,-1,0,0,0,0,0
1220,-14,432,-42,0,0,0,0,0
1221,118,454,41,0,0,0,0,0
1222,190,464,9,0,0,0,0,0
1223,41,442,2,0,0,0,0,0
1224,19,463,-32,0,0,0,0,0
1225,19,488,-8,0,0,0,0,0
1226,17,480,-4,0,0,0,0,0
1227,13,497,16,0,0,0,0,0
1228,132,506,29,0,0,0,0,0
1229,49,518,15,0,0,0,0,0
1230,14,504,7,0,0,0,0,0
1231,80,499,-31,0,0,0,0,0
1232,116,502,-7,0,0,0,0,0
1233,141,504,35,0,0,0,0,0
1234,25,499,-40,0,0,0,0,0
1235,-28,480,-10,0,0,0,0,0
1236,71,495,23,0,0,0,0,0
1237,81,469,36,0,0,0,0,0
1238,34,479,-36,0,0,0,0,0
1239,71,467,24,0,0,0,0,0
1240,169,485,56,0,0,0,0,0
1241,70,477,-15,0,0,0,0,0
1242,107,436,7,522,0,0,0,0
1243,101,434,17,0,0,0,0,0
1244,102,446,23,3,0,0,0,0
1245,138,405,12,0,0,0,0,0
1246,15,383,11,8,0,0,0,0
1247,23,385,6,0,0,0,0,0
1248,69,389,13,0,0,0,0,0
1249,-14,336,-33,0,0,0,0,0
1250,6,363,-11,0,0,0,0,0
1251,155,383,-23,0,0,0,0,0
1252,-48,350,-2,0,0,0,0,0
1253,3,316,-16,0,0,0,0,0
1254,33,338,-1,0,0,0,0,0
1255,-51,314,-20,0,0,0,0,0
1256,62,336,21,0,0,0,0,0
1257,100,309,-11,0,0,0,0,0
1258,-32,259,-9,0,0,0,0,0
1259,-88,231,9,0,0,0,0,0
1260,24,268,-26,0,0,0,0,0
1261,62,253,8,0,0,0,0,0
1262,-47,212,16,0,0,0,0,0
1263,18,222,-29,0,0,0,0,0
1264,12,180,-17,0,0,0,0,0
1265,9,167,-13,0,0,0,0,0
1266,-54,152,-10,0,0,0,0,0
1267,-30,149,-10,0,0,0,0,0
1268,-94,90,-13,0,0,0,0,0
1269,27,96,-6,0,0,0,0,0
1270,4,91,-12,0,0,0,0,0
1271,36,51,8,0,0,0,0,0
1272,-48,43,-5,0,0,0,0,0
1273,-20,32,-8,0,0,0,0,0
1274,1,41,8,0,0,0,0,0
1275,40,43,3,0,0,0,0,0
1276,46,2,-2,792,0,0,0,0
1277,140,81,6,0,0,0,0,0
1278,-146,116,-35,753,0,0,0,0
1279,285,23,24,0,0,0,0,0
1280,-184,-31,-40,625,0,0,0,0
1281,-10,73,-22,0,0,0,0,0
1282,8,-44,84,1230,0,0,0,0
1283,-15,24,-30,0,0,0,0,0
1284,14,18,-2,0,0,0,0,0
1285,18,-13,38,0,0,0,0,0
1286,0,-13,18,0,0,0,0,0
1287,-10,0,-11,0,0,0,0,0
1288,18,10,-6,0,0,0,0,0
1289,-15,-11,12,0,0,0,0,0
1290,13,-8,0,0,0,0,0,0
1291,21,-11,-5,0,0,0,0,0
1292,6,1,0,0,0,0,0,0
1293,39,-5,-1,0,0,0,0,0
1294,-19,-13,6,0,0,0,0,0
1295,0,-31,-7,0,0,0,0,0
1296,34,-12,4,0,0,0,0,0
1297,-238,-40,14,142,0,0,0,0
1298,15,-13,-29,0,0,0,0,0
1299,-10,-43,-6,1124,0,0,0,0
1300,-9,-47,5,0,0,0,0,0
1301,-4,-24,-24,1141,0,0,0,0
1302,11,-49,-1,0,0,0,0,0
1303,-33,-55,-9,0,0,0,0,0
1304,5,-45,-16,0,0,0,0,0
1305,-10,-61,-10,0,0,0,0,0
1306,-5,-57,-8,0,0,0,0,0
1307,21,-66,-2,1151,0,0,0,0
1308,14,-77,2,0,0,0,0,0
1309,9,-83,-14,1155,0,0,0,0
1310,22,-99,-2,0,0,0,0,0
1311,48,-89,-13,0,0,0,0,0
1312,-31,-122,-15,0,0,0,0,0
1313,20,-119,0,0,0,0,0,0
1314,-4,-118,-11,0,0,0,0,0
1315,-2,-133,13,0,0,0,0,0
1316,-32,-160,-16,0,0,0,0,0
1317,10,-158,-5,0,0,0,0,0
1318,-43,-181,-12,0,0,0,0,0
1319,-9,-175,-13,0,0,0,0,0
1320,0,-188,14,0,0,0,0,0
1321,57,-181,6,0,0,0,0,0
1322,4,-192,3,0,0,0,0,0
1323,5,-222,-17,0,0,0,0,0
1324,-60,-247,4,792,0,0,0,0
1325,-34,-269,2,0,0,0,0,0
1326,11,-266,-19,393,0,0,0,0
1327,9,-270,-17,0,0,0,0,0
1328,14,-280,-11,404,0,0,0,0
1329,51,-298,18,0,0,0,0,0
1330,-1,-308,-20,1215,0,0,0,0
1331,-2,-316,2,0,0,0,0,0
1332,-20,-327,-17,0,0,0,0,0
1333,6,-313,-17,0,0,0,0,0
1334,-109,-354,-10,1209,0,0,0,0
1335,-44,-341,4,0,0,0,0,0
1336,-40,-361,4,0,0,0,0,0
1337,-39,-354,5,0,0,0,0,0
1338,25,-355,-9,0,0,0,0,0
1339,-68,-392,-2,0,0,0,0,0
1340,4,-382,-5,1219,0,0,0,0
1341,-46,-411,-2,0,0,0,0,0
1342,-76,-412,-2,0,0,0,0,0
1343,-3,-392,-34,0,0,0,0,0
1344,-145,-431,-6,0,0,0,0,0
1345,-23,-427,-8,0,0,0,0,0
1346,-99,-439,12,0,0,0,0,0
1347,-107,-430,-1,0,0,0,0,0
1348,205,-423,5,0,0,0,0,0
1349,-9,-455,22,0,0,0,0,0
1350,-71,-441,-7,0,0,0,0,0
1351,-60,-453,11,0,0,0,0,0
1352,-21,-477,9,0,0,0,0,0
1353,37,-452,-1,792,0,0,0,0
1354,-104,-489,17,0,0,0,0,0
1355,-17,-497,-2,576,0,0,0,0
1356,-35,-481,0,0,0,0,0,0
1357,-83,-484,-2,1221,0,0,0,0
1358,-41,-507,-5,0,0,0,0,0
1359,-18,-511,-6,1223,0,0,0,0
1360,-40,-498,29,0,0,0,0,0
1361,-32,-487,0,0,0,0,0,0
1362,22,-500,43,0,0,0,0,0
1363,-7,-513,30,1231,0,0,0,0
1364,-19,-517,-18,0,0,0,0,0
1365,-8,-496,18,0,0,0,0,0
1366,-41,-491,17,1221,0,0,0,0
1367,23,-456,20,0,0,0,0,0
1368,-136,-434,21,0,0,0,0,0
1369,94,-384,51,0,0,0,0,0
1370,-83,-377,-9,0,0,0,0,0
1371,-93,-312,-20,0,0,0,0,0
1372,-19,-293,21,0,0,0,0,0
1373,-35,-184,25,330,0,0,0,0
1374,-79,-160,1,0,0,0,0,0
1375,-100,-124,-18,801,0,0,0,0
1376,76,-62,31,0,0,0,0,0
1377,2,-23,-31,446,0,0,0,0
1378,45,8,-20,0,0,0,0,0
1379,-36,53,-17,842,0,0,0,0
1380,62,162,-4,656,0,0,0,0
1381,-59,190,37,0,0,0,0,0
1382,-3,466,-31,0,0,0,0,0
1383,109,502,4,0,0,0,0,0
1384,16,47,2,0,0,0,0,0
1385,14,53,-2,0,0,0,0,0
1386,14,48,6,792,0,0,0,0
1387,16,39,0,0,0,0,0,0
1388,7,42,0,0,0,0,0,0
1389,1,29,-3,0,0,0,0,0
1390,8,28,-2,792,0,0,0,0
1391,9,27,-1,0,0,0,0,0
1392,9,21,-4,0,0,0,0,0
1393,6,21,-1,0,0,0,0,0
1394,6,19,-3,777,0,0,0,0
1395,2,11,-2,0,0,0,0,0
1396,4,9,-1,333,0,0,0,0
1397,-1,6,-2,0,0,0,0,0
1398,27,4,3,0,0,0,0,0
1399,20,-5,5,0,0,0,0,0
1400,1,0,2,0,0,0,0,0
1401,8,-13,2,0,0,0,0,0
1402,-8,-9,2,0,0,0,0,0
1403,8,-7,0,0,0,0,0,0
1404,-2,-10,2,0,0,0,0,0
1405,3,-7,-1,1029,0,0,0,0
1406,1,-7,-2,0,0,0,0,0
1407,2,-7,0,0,0,0,0,0
1408,6,-5,1,0,0,0,0,0
1409,1,-8,0,0,0,0,0,0
1410,3,-9,-2,0,0,0,0,0
1411,1,-7,0,0,0,0,0,0
1412,3,-8,-1,0,0,0,0,0
1413,1,-8,0,0,0,0,0,0
1414,3,-8,-2,1058,0,0,0,0
1415,2,-8,1,0,0,0,0,0
1416,-1,-8,0,1068,0,0,0,0
1417,2,-8,-1,0,0,0,0,0
1418,1,-8,0,1070,0,0,0,0
1419,4,-7,-1,0,0,0,0,0
1420,4,-6,-1,0,0,0,0,0
1421,-4,-2,-8,0,0,0,0,0
1422,14,-6,5,0,0,0,0,0
1423,3,-8,-2,0,0,0,0,0
1424,-3,-9,-2,0,0,0,0,0
1425,2,-8,0,0,0,0,0,0
1426,5,-6,1,0,0,0,0,0
1427,3,-7,2,1077,0,0,0,0
1428,0,-8,1,0,0,0,0,0
1429,3,-7,0,0,0,0,0,0
1430,4,-6,-1,0,0,0,0,0
1431,2,-7,-1,1080,0,0,0,0
1432,3,-6,0,0,0,0,0,0
1433,1,-10,0,1075,0,0,0,0
1434,-1,-9,2,0,0,0,0,0
1435,2,-12,0,0,0,0,0,0
1436,0,-9,-1,0,0,0,0,0
1437,4,-7,0,0,0,0,0,0
1438,-1,-10,1,0,0,0,0,0
1439,5,-1,4,0,0,0,0,0
1440,-18,3,-1,0,0,0,0,0
1441,-8,-8,-4,0,0,0,0,0
1442,-15,-9,-2,0,0,0,0,0
1443,30,-11,1,0,0,0,0,0
1444,1,-5,2,0,0,0,0,0
1445,0,-9,-3,0,0,0,0,0
1446,6,-3,-2,0,0,0,0,0
1447,-2,-13,3,0,0,0,0,0
1448,8,0,-2,0,0,0,0,0
1449,4,-13,-1,641,0,0,0,0
1450,1,-1,-1,0,0,0,0,0
1451,4,-10,1,15,0,0,0,0
1452,4,-1,-1,0,0,0,0,0
1453,5,-9,-1,13,0,0,0,0
1454,2,-5,0,0,0,0,0,0
1455,2,-9,-1,10,0,0,0,0
1456,3,-5,0,0,0,0,0,0
1457,4,-8,0,3,0,0,0,0
1458,3,-8,1,0,0,0,0,0
1459,0,-9,0,3,0,0,0,0
1460,2,-7,-2,0,0,0,0,0
1461,2,-6,-1,0,0,0,0,0
1462,3,-6,-1,0,0,0,0,0
1463,5,-8,-1,0,0,0,0,0
1464,3,-8,0,0,0,0,0,0
1465,5,-10,0,0,0,0,0,0
1466,12,-8,1,0,0,0,0,0
1467,-1,10,0,0,0,0,0,0
1468,33,-14,-1,0,0,0,0,0
1469,35,1,-7,789,0,0,0,0
1470,-4,-8,5,0,0,0,0,0
1471,-9,-6,-3,989,0,0,0,0
1472,9,0,0,0,0,0,0,0
1473,6,-12,0,0,0,0,0,0
1474,8,-7,-2,0,0,0,0,0
1475,-9,-11,0,0,0,0,0,0
1476,2,5,-2,0,0,0,0,0
1477,-51,-30,-2,0,0,0,0,0
1478,-25,-13,-6,0,0,0,0,0
1479,-2,7,3,976,0,0,0,0
1480,-3,0,0,0,0,0,0,0
1481,-2,-4,2,0,0,0,0,0
1482,0,-14,0,0,0,0,0,0
1483,0,-9,2,0,0,0,0,0
1484,2,-11,0,0,0,0,0,0
1485,6,-8,0,83,0,0,0,0
1486,5,-10,1,0,0,0,0,0
1487,-2,-9,-1,0,0,0,0,0
1488,14,-5,-2,0,0,0,0,0
1489,5,-10,-1,0,0,0,0,0
1490,6,-3,-2,0,0,0,0,0
1491,3,-6,-2,0,0,0,0,0
1492,1,-4,0,0,0,0,0,0
1493,-4,-5,0,0,0,0,0,0
1494,4,-3,-1,0,0,0,0,0
1495,5,-6,-1,975,0,0,0,0
1496,4,-1,-1,0,0,0,0,0
1497,4,6,-1,1023,0,0,0,0
1498,7,-4,-1,0,0,0,0,0
1499,2,6,-1,1045,0,0,0,0
1500,7,0,-1,0,0,0,0,0
1501,4,11,-3,0,0,0,0,0
1502,5,12,-2,0,0,0,0,0
1503,8,7,-3,0,0,0,0,0
1504,4,10,-3,0,0,0,0,0
1505,7,15,-3,0,0,0,0,0
1506,1,18,-2,0,0,0,0,0
1507,12,17,-2,0,0,0,0,0
1508,8,20,1,82,0,0,0,0
1509,6,24,1,0,0,0,0,0
1510,2,22,-3,86,0,0,0,0
1511,8,24,-4,0,0,0,0,0
1512,-1,32,4,1118,0,0,0,0
1513,0,26,1,0,0,0,0,0
1514,7,46,-3,0,0,0,0,0
1515,12,46,9,0,0,0,0,0
1516,16,58,6,0,0,0,0,0
1517,4,56,3,0,0,0,0,0
1518,3,60,7,0,0,0,0,0
1519,6,75,4,0,0,0,0,0
1520,11,76,14,1128,0,0,0,0
1521,11,93,4,0,0,0,0,0
1522,6,90,-4,0,0,0,0,0
1523,19,106,4,0,0,0,0,0
1524,18,94,4,0,0,0,0,0
1525,16,106,-4,0,0,0,0,0
1526,33,123,-3,0,0,0,0,0
1527,4,105,5,0,0,0,0,0
1528,32,107,-8,789,0,0,0,0
1529,68,127,9,0,0,0,0,0
1530,33,149,-13,211,0,0,0,0
1531,-5,121,-8,0,0,0,0,0
1532,38,141,4,0,0,0,0,0
1533,19,146,-3,0,0,0,0,0
1534,7,145,3,1197,0,0,0,0
1535,19,161,-7,0,0,0,0,0
1536,34,173,-26,0,0,0,0,0
1537,15,173,9,1172,0,0,0,0
1538,-36,169,-1,0,0,0,0,0
1539,50,172,5,0,0,0,0,0
1540,21,182,-10,0,0,0,0,0
1541,23,202,-2,1188,0,0,0,0
1542,40,199,-16,0,0,0,0,0
1543,36,200,-2,0,0,0,0,0
1544,-100,196,0,0,0,0,0,0
1545,-64,211,8,0,0,0,0,0
1546,39,252,-17,0,0,0,0,0
1547,17,224,13,0,0,0,0,0
1548,92,239,-1,0,0,0,0,0
1549,-50,237,-13,0,0,0,0,0
1550,59,242,6,0,0,0,0,0
1551,44,249,-3,0,0,0,0,0
1552,18,252,1,428,0,0,0,0
1553,19,260,-4,0,0,0,0,0
1554,20,263,-7,0,0,0,0,0
1555,-5,268,-24,0,0,0,0,0
1556,3,282,2,0,0,0,0,0
1557,9,277,2,0,0,0,0,0
1558,52,289,-12,0,0,0,0,0
1559,27,286,-27,0,0,0,0,0
1560,-21,292,6,0,0,0,0,0
1561,19,293,5,0,0,0,0,0
1562,14,299,-1,0,0,0,0,0
1563,31,276,-7,0,0,0,0,0
1564,-4,313,10,0,0,0,0,0
1565,1,307,-12,0,0,0,0,0
1566,54,315,20,0,0,0,0,0
1567,43,322,20,0,0,0,0,0
1568,136,322,38,0,0,0,0,0
1569,4,327,0,0,0,0,0,0
1570,129,335,22,0,0,0,0,0
1571,-11,310,-6,0,0,0,0,0
1572,31,351,12,0,0,0,0,0
1573,25,336,-12,0,0,0,0,0
1574,39,322,13,0,0,0,0,0
1575,-43,340,-18,0,0,0,0,0
1576,66,334,47,0,0,0,0,0
1577,58,338,17,0,0,0,0,0
1578,137,310,19,0,0,0,0,0
1579,-43,260,13,0,0,0,0,0
1580,-51,238,-35,0,0,0,0,0
1581,51,219,-5,0,0,0,0,0
1582,110,200,8,0,0,0,0,0
1583,62,147,22,0,0,0,0,0
1584,23,101,-20,0,0,0,0,0
1585,89,76,-10,0,0,0,0,0
1586,45,58,-29,0,0,0,0,0
1587,30,46,5,0,0,0,0,0
1588,-52,7,19,0,0,0,0,0
1589,-5,43,-49,737,0,0,0,0
1590,-98,27,12,0,0,0,0,0
1591,14,27,8,743,0,0,0,0
1592,-1,27,-16,0,0,0,0,0
1593,66,16,13,0,0,0,0,0
1594,-5,-31,-34,0,0,0,0,0
1595,-36,-16,15,0,0,0,0,0
1596,21,-51,-39,0,0,0,0,0
1597,-10,-56,-19,0,0,0,0,0
1598,9,-118,6,0,0,0,0,0
1599,9,-146,-13,0,0,0,0,0
1600,12,-158,-33,0,0,0,0,0
1601,-39,-177,10,1225,0,0,0,0
1602,26,-185,-1,0,0,0,0,0
1603,-89,-190,27,1230,0,0,0,0
1604,-119,-193,3,0,0,0,0,0
1605,-18,-180,8,1234,0,0,0,0
1606,-40,-193,1,0,0,0,0,0
1607,-36,-190,16,0,0,0,0,0
1608,132,-177,1,0,0,0,0,0
1609,-43,-240,18,0,0,0,0,0
1610,-105,-284,6,0,0,0,0,0
1611,3,-281,-35,0,0,0,0,0
1612,-15,-322,-26,0,0,0,0,0
1613,-245,-409,-29,791,0,0,0,0
1614,-26,-379,12,0,0,0,0,0
1615,-70,-379,-32,790,0,0,0,0
1616,-105,-384,-11,0,0,0,0,0
1617,127,-370,13,875,0,0,0,0
1618,13,-359,15,0,0,0,0,0
1619,8,-376,33,881,0,0,0,0
1620,-17,-411,-8,885,0,0,0,0
1621,17,-404,-5,0,0,0,0,0
1622,-84,-420,10,888,0,0,0,0
1623,-41,-411,-19,0,0,0,0,0
1624,-53,-415,-7,0,0,0,0,0
1625,-48,-404,-7,0,0,0,0,0
1626,-131,-426,20,1228,0,0,0,0
1627,-79,-412,-13,0,0,0,0,0
1628,-78,-422,-2,0,0,0,0,0
1629,19,-420,27,0,0,0,0,0
1630,-66,-432,-13,0,0,0,0,0
1631,-37,-436,17,0,0,0,0,0
1632,-45,-426,43,0,0,0,0,0
1633,-51,-426,19,0,0,0,0,0
1634,-31,-436,22,0,0,0,0,0
1635,-77,-432,12,0,0,0,0,0
1636,103,-395,-47,0,0,0,0,0
1637,-147,-421,2,0,0,0,0,0
1638,-49,-414,19,0,0,0,0,0
1639,37,-413,51,941,0,0,0,0
1640,-92,-415,33,0,0,0,0,0
1641,-27,-391,33,1227,0,0,0,0
1642,-72,-397,34,0,0,0,0,0
1643,-5,-359,11,0,0,0,0,0
1644,45,-338,46,0,0,0,0,0
1645,13,-322,-41,0,0,0,0,0
1646,82,-320,-13,0,0,0,0,0
1647,-111,-313,15,0,0,0,0,0
1648,91,-245,56,0,0,0,0,0
1649,-5,-226,45,1223,0,0,0,0
1650,7,-175,-17,0,0,0,0,0
1651,-116,-175,-26,0,0,0,0,0
1652,21,-105,-25,0,0,0,0,0
1653,18,-67,47,0,0,0,0,0
1654,-73,21,-58,0,0,0,0,0
1655,-139,18,11,0,0,0,0,0
1656,-35,53,-1,0,0,0,0,0
1657,-30,108,6,0,0,0,0,0
1658,-5,129,-2,0,0,0,0,0
1659,-48,131,-6,0,0,0,0,0
1660,60,212,-11,0,0,0,0,0
1661,18,221,-21,0,0,0,0,0
1662,-3,231,2,0,0,0,0,0
1663,68,247,-40,0,0,0,0,0
1664,-27,248,-12,0,0,0,0,0
1665,214,273,19,0,0,0,0,0
1666,56,268,9,0,0,0,0,0
1667,69,241,24,0,0,0,0,0
1668,28,239,10,0,0,0,0,0
1669,-6,253,9,0,0,0,0,0
1670,60,249,-6,0,0,0,0,0
1671,17,238,9,0,0,0,0,0
1672,18,241,32,1244,0,0,0,0
1673,41,251,0,0,0,0,0,0
1674,98,244,25,0,0,0,0,0
1675,-8,234,18,0,0,0,0,0
1676,7,245,-14,0,0,0,0,0
1677,27,215,-2,0,0,0,0,0
1678,255,199,-1,0,0,0,0,0
1679,47,169,10,0,0,0,0,0
1680,45,133,-42,0,0,0,0,0
1681,-33,83,3,0,0,0,0,0
1682,31,52,19,0,0,0,0,0
1683,-5,-5,-13,0,0,0,0,0
1684,22,-55,-42,0,0,0,0,0
1685,39,-113,29,0,0,0,0,0
1686,-108,-212,10,0,0,0,0,0
1687,-124,-288,20,0,0,0,0,0
1688,-59,-297,33,0,0,0,0,0
1689,-70,-299,3,0,0,0,0,0
1690,72,-309,-2,0,0,0,0,0
1691,-78,-299,1,0,0,0,0,0
1692,-32,-309,43,0,0,0,0,0
1693,-192,-321,12,0,0,0,0,0
1694,-89,-291,14,0,0,0,0,0
1695,-50,-301,18,0,0,0,0,0
1696,-96,-329,-3,994,0,0,0,0
1697,-21,-321,18,0,0,0,0,0
1698,-10,-332,15,973,0,0,0,0
1699,-51,-365,-20,0,0,0,0,0
1700,-25,-358,10,0,0,0,0,0
1701,-50,-370,27,0,0,0,0,0
1702,-44,-347,-8,0,0,0,0,0
1703,-85,-354,-39,0,0,0,0,0
1704,-28,-368,29,0,0,0,0,0
1705,-54,-351,-56,0,0,0,0,0
1706,-32,-364,3,0,0,0,0,0
1707,-7,-342,-9,0,0,0,0,0
1708,40,-331,-13,1214,0,0,0,0
1709,-17,-361,-16,0,0,0,0,0
1710,4,-343,-37,1213,0,0,0,0
1711,-104,-357,-16,0,0,0,0,0
1712,-119,-330,-33,0,0,0,0,0
1713,43,-347,58,0,0,0,0,0
1714,-99,-368,-40,0,0,0,0,0
1715,-31,-371,-43,0,0,0,0,0
1716,-14,-366,18,0,0,0,0,0
1717,-123,-354,-43,0,0,0,0,0
1718,-110,-347,-28,0,0,0,0,0
1719,15,-348,-1,792,0,0,0,0
1720,35,-323,-7,0,0,0,0,0
1721,-121,-354,11,0,0,0,0,0
1722,-17,-349,-52,0,0,0,0,0
1723,-12,-363,11,0,0,0,0,0
1724,-202,-364,7,0,0,0,0,0
1725,66,-358,26,0,0,0,0,0
1726,-33,-352,-26,0,0,0,0,0
1727,-73,-364,-7,0,0,0,0,0
1728,-8,-365,21,0,0,0,0,0
1729,-31,-352,-14,0,0,0,0,0
1730,-38,-366,30,0,0,0,0,0
1731,-189,-367,-25,0,0,0,0,0
1732,138,-383,36,1218,0,0,0,0
1733,2,-385,20,0,0,0,0,0
1734,18,-410,6,0,0,0,0,0
1735,-137,-438,-27,0,0,0,0,0
1736,-18,-395,47,0,0,0,0,0
1737,26,-411,-47,0,0,0,0,0
1738,-112,-492,-8,0,0,0,0,0
1739,-216,-527,-2,0,0,0,0,0
1740,-24,-463,45,0,0,0,0,0
1741,-125,-508,8,0,0,0,0,0
1742,-161,-493,-9,0,0,0,0,0
1743,-54,-537,-5,0,0,0,0,0
1744,-22,-557,23,0,0,0,0,0
1745,-116,-484,-47,0,0,0,0,0
1746,-5,-394,-6,1233,0,0,0,0
1747,-91,-365,-14,0,0,0,0,0
1748,-52,-224,-1,0,0,0,0,0
1749,-117,-154,-40,0,0,0,0,0
1750,64,-91,17,0,0,0,0,0
1751,22,-9,30,0,0,0,0,0
1752,-79,31,-13,0,0,0,0,0
1753,-144,98,-16,0,0,0,0,0
1754,45,100,-19,0,0,0,0,0
1755,39,102,-57,0,0,0,0,0
1756,60,96,8,0,0,0,0,0
1757,138,132,-8,0,0,0,0,0
1758,48,125,13,0,0,0,0,0
1759,-94,98,19,0,0,0,0,0
1760,6,134,9,0,0,0,0,0
1761,-67,121,-21,0,0,0,0,0
1762,37,83,17,0,0,0,0,0
1763,-40,40,16,1255,0,0,0,0
1764,-67,7,-20,0,0,0,0,0
1765,61,-6,26,1268,0,0,0,0
1766,-93,-82,-1,0,0,0,0,0
1767,44,-114,1,0,0,0,0,0
1768,51,-107,-40,0,0,0,0,0
1769,-6,-185,63,1260,0,0,0,0
1770,3,-224,-2,0,0,0,0,0
1771,-7,-236,-2,1297,0,0,0,0
1772,-15,-227,-19,0,0,0,0,0
1773,-45,-259,-26,1252,0,0,0,0
1774,-9,-266,-52,0,0,0,0,0
1775,-1,-257,32,0,0,0,0,0
1776,104,-242,-26,0,0,0,0,0
1777,-107,-294,-17,1208,0,0,0,0
1778,42,-340,-19,0,0,0,0,0
1779,-129,-354,-34,0,0,0,0,0
1780,-176,-340,-26,0,0,0,0,0
1781,0,-313,15,0,0,0,0,0
1782,-60,-322,10,0,0,0,0,0
1783,-112,-321,-27,1041,0,0,0,0
1784,-85,-320,14,0,0,0,0,0
1785,-91,-307,3,0,0,0,0,0
1786,21,-230,60,0,0,0,0,0
1787,30,-252,-19,0,0,0,0,0
1788,155,-224,24,0,0,0,0,0
1789,-31,-174,-25,0,0,0,0,0
1790,75,-242,-2,0,0,0,0,0
1791,-10,-214,17,0,0,0,0,0
1792,-37,-211,28,0,0,0,0,0
1793,19,-216,-6,0,0,0,0,0
1794,13,-212,50,0,0,0,0,0
1795,-121,-205,-33,0,0,0,0,0
1796,-186,-217,29,0,0,0,0,0
1797,82,-231,4,0,0,0,0,0
1798,-11,-205,12,0,0,0,0,0
1799,-47,-188,-43,0,0,0,0,0
1800,5,-205,-250,0,0,0,0,0
1801,-99,-236,-39,0,0,0,0,0
1802,32,-215,-49,0,0,0,0,0
1803,-212,-315,-69,0,0,0,0,0
1804,-79,-309,-25,0,0,0,0,0
1805,173,-289,16,0,0,0,0,0
1806,-110,-326,-66,0,0,0,0,0
1807,-84,-371,-48,0,0,0,0,0
1808,-43,-393,30,0,0,0,0,0
1809,-96,-415,-39,0,0,0,0,0
1810,-48,-453,47,0,0,0,0,0
1811,61,-443,-15,0,0,0,0,0
1812,-48,-464,15,0,0,0,0,0
1813,-35,-459,16,0,0,0,0,0
1814,136,-415,-23,0,0,0,0,0
1815,-98,-468,-17,519,0,0,0,0
1816,-61,-454,-18,0,0,0,0,0
1817,47,-430,-12,526,0,0,0,0
1818,2,-447,41,0,0,0,0,0
1819,-81,-439,-254,524,0,0,0,0
1820,-76,-452,26,0,0,0,0,0
1821,-72,-411,46,1250,0,0,0,0
1822,-115,-371,23,0,0,0,0,0
1823,-125,-357,-12,1246,0,0,0,0
1824,-70,-269,-19,0,0,0,0,0
1825,-72,-232,14,1245,0,0,0,0
1826,-41,-173,17,0,0,0,0,0
1827,-33,-139,-10,1101,0,0,0,0
1828,113,2,4,0,0,0,0,0
1829,-61,44,1,1246,0,0,0,0
1830,59,145,17,0,0,0,0,0
1831,42,142,-25,1252,0,0,0,0
1832,145,249,11,0,0,0,0,0
1833,-34,319,-38,1258,0,0,0,0
1834,6,313,20,0,0,0,0,0
1835,48,327,-8,0,0,0,0,0
1836,-38,311,55,0,0,0,0,0
1837,1,352,244,0,0,0,0,0
1838,60,364,14,0,0,0,0,0
1839,88,371,24,0,0,0,0,0
1840,52,399,22,0,0,0,0,0
1841,62,404,-20,0,0,0,0,0
1842,53,423,-17,0,0,0,0,0
1843,-33,410,-29,0,0,0,0,0
1844,138,424,8,0,0,0,0,0
1845,-40,421,-28,0,0,0,0,0
1846,113,391,17,0,0,0,0,0
1847,77,388,-13,0,0,0,0,0
1848,111,403,11,0,0,0,0,0
1849,28,405,-17,0,0,0,0,0
1850,-20,371,13,0,0,0,0,0
1851,117,410,3,11,0,0,0,0
1852,-34,393,19,0,0,0,0,0
1853,75,413,-36,0,0,0,0,0
1854,16,432,-3,0,0,0,0,0
1855,78,427,8,0,0,0,0,0
1856,20,403,4,0,0,0,0,0
1857,70,397,0,0,0,0,0,0
1858,15,390,10,0,0,0,0,0
1859,152,402,7,0,0,0,0,0
1860,55,368,32,0,0,0,0,0
1861,105,363,-5,0,0,0,0,0
1862,153,354,27,3,0,0,0,0
1863,11,341,-9,0,0,0,0,0
1864,113,356,17,159,0,0,0,0
1865,62,326,-7,0,0,0,0,0
1866,42,336,17,587,0,0,0,0
1867,97,318,-3,0,0,0,0,0
1868,-33,294,8,667,0,0,0,0
1869,50,314,19,0,0,0,0,0
1870,34,291,4,0,0,0,0,0
1871,105,301,25,0,0,0,0,0
1872,-55,267,-10,1730,0,0,0,0
1873,-4,288,-4,178,0,0,0,0
1874,11,252,16,0,0,0,0,0
1875,34,236,-8,1031,0,0,0,0
1876,58,239,-14,791,0,0,0,0
1877,-27,211,-5,0,0,0,0,0
1878,8,224,-13,792,0,0,0,0
1879,6,205,21,0,0,0,0,0
1880,51,242,-28,0,0,0,0,0
1881,160,170,7,0,0,0,0,0
1882,-67,71,24,0,0,0,0,0
1883,216,169,28,0,0,0,0,0
1884,189,106,-31,0,0,0,0,0
1885,16,202,-21,0,0,0,0,0
1886,-455,222,35,0,0,0,0,0
1887,-637,31,30,0,0,0,0,0
1888,72,94,10,0,0,0,0,0
1889,-11,181,24,0,0,0,0,0
1890,-12,154,17,0,0,0,0,0
1891,-7,193,-17,0,0,0,0,0
1892,27,201,3,0,0,0,0,0
1893,8,195,14,0,0,0,0,0
1894,22,207,-7,0,0,0,0,0
1895,68,228,-4,0,0,0,0,0
1896,45,216,11,0,0,0,0,0
1897,55,242,-6,0,0,0,0,0
1898,66,246,-1,0,0,0,0,0
1899,100,230,38,0,0,0,0,0
1900,24,250,-5,1121,0,0,0,0
1901,99,261,9,0,0,0,0,0
1902,44,257,-13,0,0,0,0,0
1903,7,268,-2,0,0,0,0,0
1904,16,259,5,0,0,0,0,0
1905,121,281,10,0,0,0,0,0
1906,0,279,13,400,0,0,0,0
1907,54,268,13,0,0,0,0,0
1908,-13,261,27,428,0,0,0,0
1909,81,296,12,0,0,0,0,0
1910,27,294,13,466,0,0,0,0
1911,31,299,10,0,0,0,0,0
1912,-29,294,-5,793,0,0,0,0
1913,72,302,16,0,0,0,0,0
1914,33,314,10,790,0,0,0,0
1915,156,335,3,0,0,0,0,0
1916,74,319,0,792,0,0,0,0
1917,25,326,-21,0,0,0,0,0
1918,94,336,1,792,0,0,0,0
1919,-24,337,-3,0,0,0,0,0
1920,78,343,1,790,0,0,0,0
1921,42,351,-6,0,0,0,0,0
1922,46,353,-12,0,0,0,0,0
1923,94,344,-26,0,0,0,0,0
1924,61,349,19,0,0,0,0,0
1925,71,359,19,0,0,0,0,0
1926,-20,348,4,0,0,0,0,0
1927,143,372,-9,0,0,0,0,0
1928,-43,346,5,0,0,0,0,0
1929,89,372,5,0,0,0,0,0
1930,82,360,-1,0,0,0,0,0
1931,25,371,-14,0,0,0,0,0
1932,113,378,1,0,0,0,0,0
1933,-74,353,-15,0,0,0,0,0
1934,-10,370,-16,0,0,0,0,0
1935,78,378,13,0,0,0,0,0
1936,-1,385,14,0,0,0,0,0
1937,16,386,24,0,0,0,0,0
1938,25,395,-19,0,0,0,0,0
1939,205,399,18,0,0,0,0,0
1940,32,385,-26,0,0,0,0,0
1941,96,382,-3,0,0,0,0,0
1942,112,382,10,0,0,0,0,0
1943,6,368,6,1153,0,0,0,0
1944,3,377,12,1145,0,0,0,0
1945,137,383,10,0,0,0,0,0
1946,170,391,-1,0,0,0,0,0
1947,60,359,16,1137,0,0,0,0
1948,189,377,28,0,0,0,0,0
1949,68,376,-25,0,0,0,0,0
1950,-41,353,-2,0,0,0,0,0
1951,103,353,-12,1171,0,0,0,0
1952,84,382,-19,0,0,0,0,0
1953,18,352,6,0,0,0,0,0
1954,105,364,39,0,0,0,0,0
1955,-26,337,-18,749,0,0,0,0
1956,-14,352,-9,0,0,0,0,0
1957,94,347,8,744,0,0,0,0
1958,98,362,16,0,0,0,0,0
1959,83,355,3,740,0,0,0,0
1960,74,347,-4,0,0,0,0,0
1961,65,363,10,0,0,0,0,0
1962,27,337,-19,0,0,0,0,0
1963,80,352,10,0,0,0,0,0
1964,61,353,3,0,0,0,0,0
1965,53,359,-8,0,0,0,0,0
1966,41,316,23,0,0,0,0,0
1967,-108,330,11,0,0,0,0,0
1968,38,349,10,0,0,0,0,0
1969,-37,340,-7,0,0,0,0,0
1970,70,338,3,0,0,0,0,0
1971,21,335,-5,0,0,0,0,0
1972,-42,307,17,0,0,0,0,0
1973,13,325,-31,0,0,0,0,0
1974,11,323,7,0,0,0,0,0
1975,136,339,10,0,0,0,0,0
1976,-101,300,-15,0,0,0,0,0
1977,0,340,-17,0,0,0,0,0
1978,-29,329,24,0,0,0,0,0
1979,41,309,21,0,0,0,0,0
1980,5,321,7,0,0,0,0,0
1981,11,320,-4,0,0,0,0,0
1982,-5,311,2,687,0,0,0,0
1983,69,323,-11,0,0,0,0,0
1984,-12,294,18,1203,0,0,0,0
1985,43,303,10,0,0,0,0,0
1986,8,285,-10,1205,0,0,0,0
1987,-20,269,-5,0,0,0,0,0
1988,66,263,-18,0,0,0,0,0
1989,10,253,13,0,0,0,0,0
1990,58,244,0,0,0,0,0,0
1991,114,219,10,0,0,0,0,0
1992,-25,171,-3,0,0,0,0,0
1993,-7,160,9,0,0,0,0,0
1994,41,150,25,0,0,0,0,0
1995,-30,63,-21,0,0,0,0,0
1996,64,89,-6,0,0,0,0,0
1997,-50,48,17,0,0,0,0,0
1998,38,41,-18,0,0,0,0,0
1999,-22,7,23,0,0,0,0,0
2000,30,-9,-16,0,0,0,0,0
2001,-50,-32,-4,0,0,0,0,0
2002,124,-4,-6,0,0,0,0,0
2003,-11,-49,-2,0,0,0,0,0
2004,-19,-29,7,0,0,0,0,0
2005,-22,-82,-5,0,0,0,0,0
2006,-39,-69,-15,0,0,0,0,0
2007,-16,-92,-14,0,0,0,0,0
2008,-76,-138,11,0,0,0,0,0
2009,6,-126,-6,0,0,0,0,0
2010,43,-141,38,0,0,0,0,0
2011,-104,-173,7,0,0,0,0,0
2012,38,-139,5,0,0,0,0,0
2013,23,-134,23,0,0,0,0,0
2014,-23,-145,-6,0,0,0,0,0
2015,54,-10,18,0,0,0,0,0
2016,-10,4,20,0,0,0,0,0
2017,7,285,30,0,0,0,0,0
2018,83,298,-2,0,0,0,0,0
2019,59,250,31,0,0,0,0,0
2020,84,237,-14,0,0,0,0,0
2021,-42,236,-43,0,0,0,0,0
2022,126,238,-56,0,0,0,0,0
2023,213,169,-80,0,0,0,0,0
2024,36,209,-27,0,0,0,0,0
2025,107,200,1,0,0,0,0,0
2026,65,190,-6,0,0,0,0,0
2027,-72,188,38,0,0,0,0,0
2028,59,175,-16,0,0,0,0,0
2029,154,208,-22,0,0,0,0,0
2030,166,172,-80,0,0,0,0,0
2031,-78,148,-5,1180,0,0,0,0
2032,35,199,23,0,0,0,0,0
2033,81,179,16,1094,0,0,0,0
2034,-73,190,22,0,0,0,0,0
2035,-9,175,7,1086,0,0,0,0
2036,-82,191,-32,0,0,0,0,0
2037,-24,207,-36,0,0,0,0,0
2038,-109,170,4,0,0,0,0,0
2039,6,139,66,0,0,0,0,0
2040,8,167,19,0,0,0,0,0
2041,96,173,-36,0,0,0,0,0
2042,-39,193,2,0,0,0,0,0
2043,59,200,-16,1022,0,0,0,0
2044,10,200,22,0,0,0,0,0
2045,71,185,59,0,0,0,0,0
2046,-58,173,-29,0,0,0,0,0
2047,84,201,35,0,0,0,0,0
2048,34,188,-8,0,0,0,0,0
2049,6,201,-15,0,0,0,0,0
2050,-67,182,10,0,0,0,0,0
2051,103,194,54,0,0,0,0,0
2052,-40,209,-42,0,0,0,0,0
2053,88,226,22,0,0,0,0,0
2054,-28,262,29,0,0,0,0,0
2055,113,268,24,0,0,0,0,0
2056,-62,266,29,0,0,0,0,0
2057,-95,269,0,0,0,0,0,0
2058,101,295,0,0,0,0,0,0
2059,41,298,31,0,0,0,0,0
2060,47,327,-7,0,0,0,0,0
2061,101,331,3,0,0,0,0,0
2062,232,353,16,0,0,0,0,0
2063,39,346,-6,0,0,0,0,0
2064,53,342,31,0,0,0,0,0
2065,92,367,1,0,0,0,0,0
2066,89,372,-8,0,0,0,0,0
2067,-81,345,-18,789,0,0,0,0
2068,-49,351,-7,0,0,0,0,0
2069,22,390,43,1048,0,0,0,0
2070,28,389,-34,0,0,0,0,0
2071,65,380,22,0,0,0,0,0
2072,157,381,4,0,0,0,0,0
2073,-42,386,-14,0,0,0,0,0
2074,-39,362,17,0,0,0,0,0
2075,-21,384,34,0,0,0,0,0
2076,60,407,-9,0,0,0,0,0
2077,37,420,22,0,0,0,0,0
2078,-52,369,32,0,0,0,0,0
2079,168,436,44,0,0,0,0,0
2080,70,404,29,0,0,0,0,0
2081,48,367,32,0,0,0,0,0
2082,141,304,8,0,0,0,0,0
2083,15,249,14,0,0,0,0,0
2084,43,206,12,0,0,0,0,0
2085,11,166,-58,0,0,0,0,0
2086,155,154,-28,0,0,0,0,0
2087,169,69,19,0,0,0,0,0
2088,122,-241,-10,595,0,0,0,0
2089,-117,-22,0,0,0,0,0,0
2090,-33,-106,32,1201,0,0,0,0
2091,-97,-148,-34,0,0,0,0,0
2092,45,-178,-16,1141,0,0,0,0
2093,-99,-197,-72,0,0,0,0,0
2094,133,-186,-47,1144,0,0,0,0
2095,-133,-254,-44,0,0,0,0,0
2096,-42,-218,28,1144,0,0,0,0
2097,-159,-250,-6,0,0,0,0,0
2098,-6,-234,2,0,0,0,0,0
2099,-63,-245,72,0,0,0,0,0
2100,-118,-241,-30,0,0,0,0,0
2101,-2,-243,-24,0,0,0,0,0
2102,-17,-88,-5,0,0,0,0,0
2103,21,8,5,0,0,0,0,0
2104,92,111,5,0,0,0,0,0
2105,30,155,25,0,0,0,0,0
2106,-79,184,36,0,0,0,0,0
2107,-7,295,-254,0,0,0,0,0
2108,-10,333,1,0,0,0,0,0
2109,-80,339,-4,0,0,0,0,0
2110,138,464,-8,0,0,0,0,0
2111,33,456,22,0,0,0,0,0
2112,113,449,-24,0,0,0,0,0
2113,87,471,-15,0,0,0,0,0
2114,107,461,57,0,0,0,0,0
2115,43,502,64,0,0,0,0,0
2116,-91,481,91,0,0,0,0,0
2117,0,511,-2,0,0,0,0,0
2118,112,547,45,1340,0,0,0,0
2119,0,520,3,0,0,0,0,0
2120,114,540,16,1210,0,0,0,0
2121,137,577,4,0,0,0,0,0
2122,74,599,-19,0,0,0,0,0
2123,153,592,6,0,0,0,0,0
2124,96,568,7,0,0,0,0,0
2125,81,580,4,0,0,0,0,0
2126,-10,540,3,0,0,0,0,0
2127,136,578,-22,0,0,0,0,0
2128,87,597,-14,1089,0,0,0,0
2129,95,572,-36,0,0,0,0,0
2130,122,620,40,0,0,0,0,0
2131,117,587,42,0,0,0,0,0
2132,39,582,-69,0,0,0,0,0
2133,48,576,-23,0,0,0,0,0
2134,83,585,39,0,0,0,0,0
2135,85,557,12,386,0,0,0,0
2136,173,573,44,0,0,0,0,0
2137,136,548,38,1457,0,0,0,0
2138,42,546,20,0,0,0,0,0
2139,42,517,-59,1456,0,0,0,0
2140,106,532,48,0,0,0,0,0
2141,46,501,4,1452,0,0,0,0
2142,25,501,-27,0,0,0,0,0
2143,248,477,-15,0,0,0,0,0
2144,59,464,22,0,0,0,0,0
2145,1,440,-16,0,0,0,0,0
2146,34,379,-28,0,0,0,0,0
2147,101,285,-19,0,0,0,0,0
2148,-9,204,17,0,0,0,0,0
2149,99,141,-29,0,0,0,0,0
2150,90,2,-21,0,0,0,0,0
2151,-81,-158,-39,0,0,0,0,0
2152,-172,-236,-2,0,0,0,0,0
2153,-126,-293,48,0,0,0,0,0
2154,-191,-296,-25,0,0,0,0,0
2155,-76,-358,16,0,0,0,0,0
2156,-54,-345,-10,0,0,0,0,0
2157,-31,-343,6,0,0,0,0,0
2158,-26,-357,5,0,0,0,0,0
2159,-36,-343,7,0,0,0,0,0
2160,67,-358,30,0,0,0,0,0
2161,-175,-382,-13,0,0,0,0,0
2162,-75,-441,5,788,0,0,0,0
2163,-68,-403,-29,0,0,0,0,0
2164,54,-398,7,1251,0,0,0,0
2165,29,-371,25,0,0,0,0,0
2166,23,-366,19,1246,0,0,0,0
2167,44,-368,18,0,0,0,0,0
2168,-39,-367,42,1243,0,0,0,0
2169,-63,-431,19,0,0,0,0,0
2170,-102,-458,-20,1235,0,0,0,0
2171,-78,-480,-7,0,0,0,0,0
2172,-81,-502,29,0,0,0,0,0
2173,-142,-501,18,0,0,0,0,0
2174,-83,-473,-18,0,0,0,0,0
2175,-48,-470,17,0,0,0,0,0
2176,-53,-485,-19,0,0,0,0,0
2177,-60,-486,-35,0,0,0,0,0
2178,-83,-494,-15,0,0,0,0,0
2179,26,-454,-21,0,0,0,0,0
2180,7,-485,44,1059,0,0,0,0
2181,-51,-498,-14,0,0,0,0,0
2182,-246,-506,-3,0,0,0,0,0
2183,-42,-492,-5,0,0,0,0,0
2184,-139,-498,-14,1054,0,0,0,0
2185,-70,-488,-8,0,0,0,0,0
2186,-252,-487,-27,0,0,0,0,0
2187,-64,-465,-19,0,0,0,0,0
2188,-46,-471,3,0,0,0,0,0
2189,1,-454,51,0,0,0,0,0
2190,5,-393,9,0,0,0,0,0
2191,-120,-381,-55,0,0,0,0,0
2192,-24,-268,-19,0,0,0,0,0
2193,173,-172,-11,0,0,0,0,0
2194,-77,-94,-2,0,0,0,0,0
2195,16,1,2,0,0,0,0,0
2196,-13,129,63,0,0,0,0,0
2197,-6,217,-12,0,0,0,0,0
2198,52,368,12,0,0,0,0,0
2199,2,414,-3,0,0,0,0,0
2200,112,484,10,0,0,0,0,0
2201,55,525,19,0,0,0,0,0
2202,222,544,-41,0,0,0,0,0
2203,38,492,6,0,0,0,0,0
2204,12,483,-14,0,0,0,0,0
2205,4,501,6,0,0,0,0,0
2206,52,513,-12,1234,0,0,0,0
2207,77,591,65,0,0,0,0,0
2208,17,571,22,1240,0,0,0,0
2209,90,649,31,1039,0,0,0,0
2210,62,606,1,0,0,0,0,0
2211,97,610,15,0,0,0,0,0
2212,29,577,-26,0,0,0,0,0
2213,68,582,50,0,0,0,0,0
2214,94,590,27,0,0,0,0,0
2215,114,570,2,0,0,0,0,0
2216,148,549,2,0,0,0,0,0
2217,45,540,18,947,0,0,0,0
2218,148,530,13,0,0,0,0,0
2219,42,501,16,0,0,0,0,0
2220,34,503,-23,0,0,0,0,0
2221,14,495,9,0,0,0,0,0
2222,71,470,41,0,0,0,0,0
2223,36,462,-6,0,0,0,0,0
2224,-4,479,6,0,0,0,0,0
2225,34,465,-6,0,0,0,0,0
2226,27,480,-26,0,0,0,0,0
2227,-19,434,28,0,0,0,0,0
2228,58,432,32,0,0,0,0,0
2229,38,386,27,0,0,0,0,0
2230,90,415,-1,0,0,0,0,0
2231,39,391,11,0,0,0,0,0
2232,59,391,9,0,0,0,0,0
2233,146,389,-12,0,0,0,0,0
2234,95,394,2,0,0,0,0,0
2235,33,391,0,621,0,0,0,0
2236,-11,390,6,0,0,0,0,0
2237,106,383,6,899,0,0,0,0
2238,-35,358,6,0,0,0,0,0
2239,62,375,11,879,0,0,0,0
2240,42,375,5,848,0,0,0,0
2241,120,383,-8,0,0,0,0,0
2242,35,371,-11,1141,0,0,0,0
2243,82,381,-15,0,0,0,0,0
2244,-13,358,8,0,0,0,0,0
2245,61,354,13,1088,0,0,0,0
2246,66,366,-28,0,0,0,0,0
2247,44,351,-23,0,0,0,0,0
2248,33,348,-17,0,0,0,0,0
2249,58,365,-17,1081,0,0,0,0
2250,43,338,13,0,0,0,0,0
2251,91,338,-9,1075,0,0,0,0
2252,32,336,-28,0,0,0,0,0
2253,119,316,-22,0,0,0,0,0
2254,87,347,7,0,0,0,0,0
2255,-1,322,19,0,0,0,0,0
2256,52,331,-22,0,0,0,0,0
2257,86,329,7,0,0,0,0,0
2258,206,347,41,0,0,0,0,0
2259,-9,288,-13,0,0,0,0,0
2260,-37,302,30,0,0,0,0,0
2261,89,313,11,0,0,0,0,0
2262,38,309,-14,686,0,0,0,0
2263,116,317,-8,0,0,0,0,0
2264,120,332,10,0,0,0,0,0
2265,17,284,-31,0,0,0,0,0
2266,34,287,-42,1125,0,0,0,0
2267,54,291,0,0,0,0,0,0
2268,-38,282,31,0,0,0,0,0
2269,-52,287,-29,0,0,0,0,0
2270,17,243,-10,0,0,0,0,0
2271,62,248,-5,1057,0,0,0,0
2272,42,233,11,0,0,0,0,0
2273,22,242,42,0,0,0,0,0
2274,26,254,-4,0,0,0,0,0
2275,67,215,43,0,0,0,0,0
2276,60,215,4,0,0,0,0,0
2277,47,73,69,0,0,0,0,0
2278,117,104,11,0,0,0,0,0
2279,29,103,105,0,0,0,0,0
2280,99,151,9,0,0,0,0,0
2281,-75,177,35,0,0,0,0,0
2282,54,220,52,1204,0,0,0,0
2283,146,208,23,0,0,0,0,0
2284,-40,205,-33,0,0,0,0,0
2285,102,227,36,0,0,0,0,0
2286,136,236,25,0,0,0,0,0
2287,104,228,28,0,0,0,0,0
2288,2,236,15,1106,0,0,0,0
2289,44,245,-2,0,0,0,0,0
2290,18,248,-24,867,0,0,0,0
2291,134,282,30,0,0,0,0,0
2292,10,282,24,870,0,0,0,0
2293,84,332,-24,0,0,0,0,0
2294,-17,302,-6,873,0,0,0,0
2295,94,334,-15,0,0,0,0,0
2296,112,328,-1,878,0,0,0,0
2297,-5,358,21,0,0,0,0,0
2298,66,373,6,884,0,0,0,0
2299,88,376,-6,0,0,0,0,0
2300,41,370,-7,0,0,0,0,0
2301,48,389,20,0,0,0,0,0
2302,128,355,6,0,0,0,0,0
2303,92,369,-25,0,0,0,0,0
2304,35,353,-49,0,0,0,0,0
2305,12,350,5,0,0,0,0,0
2306,40,309,-32,0,0,0,0,0
2307,99,298,-13,1197,0,0,0,0
2308,15,253,10,0,0,0,0,0
2309,152,199,16,0,0,0,0,0
2310,30,178,-12,0,0,0,0,0
2311,215,113,37,0,0,0,0,0
2312,92,17,-51,0,0,0,0,0
2313,-48,-40,34,0,0,0,0,0
2314,-23,-105,-37,0,0,0,0,0
2315,-74,-220,21,0,0,0,0,0
2316,-45,-292,-52,0,0,0,0,0
2317,-42,-384,-51,1224,0,0,0,0
2318,-63,-404,-37,0,0,0,0,0
2319,-50,-411,30,0,0,0,0,0
2320,-36,-390,16,0,0,0,0,0
2321,-12,-397,-32,1213,0,0,0,0
2322,-93,-400,12,0,0,0,0,0
2323,92,-390,-30,1210,0,0,0,0
2324,-92,-409,27,0,0,0,0,0
2325,-61,-374,1,898,0,0,0,0
2326,-81,-363,-35,0,0,0,0,0
2327,4,-328,-65,1211,0,0,0,0
2328,-106,-321,-44,0,0,0,0,0
2329,-2,-326,3,893,0,0,0,0
2330,-19,-327,4,0,0,0,0,0
2331,-149,-369,-10,791,0,0,0,0
2332,-120,-383,40,0,0,0,0,0
2333,-41,-371,-2,897,0,0,0,0
2334,-16,-363,-28,0,0,0,0,0
2335,-115,-408,1,1220,0,0,0,0
2336,37,-392,-23,0,0,0,0,0
2337,-20,-389,9,900,0,0,0,0
2338,-47,-385,17,0,0,0,0,0
2339,-116,-375,-4,901,0,0,0,0
2340,-88,-371,71,0,0,0,0,0
2341,-32,-325,14,0,0,0,0,0
2342,-31,-292,-1,0,0,0,0,0
2343,-77,-290,-4,0,0,0,0,0
2344,-45,-269,-34,0,0,0,0,0
2345,-45,-263,-10,0,0,0,0,0
2346,-20,-237,-4,0,0,0,0,0
2347,-59,-277,-6,1221,0,0,0,0
2348,23,-242,-9,0,0,0,0,0
2349,-54,-263,1,1222,0,0,0,0
2350,-17,-376,-11,0,0,0,0,0
2351,-121,-438,-9,0,0,0,0,0
2352,-148,-464,41,0,0,0,0,0
2353,-96,-451,1,0,0,0,0,0
2354,-62,-410,19,0,0,0,0,0
2355,-4,-384,8,1214,0,0,0,0
2356,-72,-309,26,0,0,0,0,0
2357,-44,-241,28,0,0,0,0,0
2358,-30,-220,10,0,0,0,0,0
2359,28,-224,-11,1216,0,0,0,0
2360,-14,-221,-16,0,0,0,0,0
2361,-17,-209,-1,0,0,0,0,0
2362,-10,-219,14,0,0,0,0,0
2363,18,-227,7,0,0,0,0,0
2364,-14,-247,-2,0,0,0,0,0
2365,20,-240,11,0,0,0,0,0
2366,-36,-244,10,0,0,0,0,0
2367,9,-254,-28,0,0,0,0,0
2368,-16,-242,19,0,0,0,0,0
2369,-15,-237,-27,0,0,0,0,0
2370,-104,-275,-34,0,0,0,0,0
2371,-64,-364,-45,0,0,0,0,0
2372,-56,-445,-50,792,0,0,0,0
2373,-122,-520,-12,0,0,0,0,0
2374,-23,-531,-4,790,0,0,0,0
2375,-187,-526,-2,0,0,0,0,0
2376,-138,-505,-26,887,0,0,0,0
2377,-70,-472,-29,0,0,0,0,0
2378,-50,-482,-43,872,0,0,0,0
2379,-71,-415,5,0,0,0,0,0
2380,-100,-385,22,0,0,0,0,0
2381,-120,-365,-16,0,0,0,0,0
2382,-72,-377,9,0,0,0,0,0
2383,-28,-326,0,0,0,0,0,0
2384,-35,-297,-23,0,0,0,0,0
2385,-9,-307,-1,0,0,0,0,0
2386,-5,-310,-12,1207,0,0,0,0
2387,-60,-260,-11,0,0,0,0,0
2388,-74,-243,41,0,0,0,0,0
2389,26,-181,-15,0,0,0,0,0
2390,121,-146,17,0,0,0,0,0
2391,73,-167,20,0,0,0,0,0
2392,-102,-193,11,0,0,0,0,0
2393,-8,-251,10,0,0,0,0,0
2394,13,-268,-2,0,0,0,0,0
2395,-74,-268,77,0,0,0,0,0
2396,-215,-276,42,0,0,0,0,0
2397,-79,-222,10,0,0,0,0,0
2398,5,-103,-14,0,0,0,0,0
2399,64,-54,248,791,0,0,0,0
2400,-10,-27,-21,0,0,0,0,0
2401,-43,-31,-8,0,0,0,0,0
2402,202,-14,11,0,0,0,0,0
2403,9,-25,31,0,0,0,0,0
2404,-67,-35,15,0,0,0,0,0
2405,72,-44,3,0,0,0,0,0
2406,12,-44,30,0,0,0,0,0
2407,51,-25,25,1192,0,0,0,0
2408,11,-37,-34,0,0,0,0,0
2409,13,-62,-15,1192,0,0,0,0
2410,-56,-56,-19,0,0,0,0,0
2411,-90,-90,-12,1190,0,0,0,0
2412,87,-64,40,0,0,0,0,0
2413,17,-69,-56,1192,0,0,0,0
2414,-27,-63,-18,0,0,0,0,0
2415,52,-67,5,0,0,0,0,0
2416,-5,-75,35,0,0,0,0,0
2417,0,-74,36,0,0,0,0,0
2418,-29,-68,3,0,0,0,0,0
2419,74,-53,41,0,0,0,0,0
2420,-1,-88,11,0,0,0,0,0
2421,-20,-73,-73,0,0,0,0,0
2422,14,-66,-23,0,0,0,0,0
2423,36,-92,-35,0,0,0,0,0
2424,61,-82,-57,0,0,0,0,0
2425,40,-94,11,0,0,0,0,0
2426,-20,-107,-18,0,0,0,0,0
2427,-160,-127,14,795,0,0,0,0
2428,-33,-115,-21,0,0,0,0,0
2429,74,-110,-6,795,0,0,0,0
2430,-69,-149,13,0,0,0,0,0
2431,-20,-125,0,792,0,0,0,0
2432,-15,-134,-11,0,0,0,0,0
2433,-51,-120,-19,816,0,0,0,0
2434,-19,-145,-17,0,0,0,0,0
2435,34,-151,-30,822,0,0,0,0
2436,66,-174,-12,0,0,0,0,0
2437,-58,-226,-4,1226,0,0,0,0
2438,-99,-263,-22,0,0,0,0,0
2439,90,-266,-20,1223,0,0,0,0
2440,-11,-291,-1,0,0,0,0,0
2441,33,-333,-1,838,0,0,0,0
2442,113,-354,1,0,0,0,0,0
2443,-152,-373,18,840,0,0,0,0
2444,7,-353,13,0,0,0,0,0
2445,-108,-380,3,842,0,0,0,0
2446,-124,-375,36,0,0,0,0,0
2447,6,-378,-8,1218,0,0,0,0
2448,-110,-409,10,0,0,0,0,0
2449,35,-414,3,0,0,0,0,0
2450,-156,-460,7,0,0,0,0,0
2451,-107,-475,-24,0,0,0,0,0
2452,-87,-454,-24,0,0,0,0,0
2453,-98,-486,11,0,0,0,0,0
2454,6,-457,16,0,0,0,0,0
2455,-25,-461,2,1229,0,0,0,0
2456,177,-465,-19,0,0,0,0,0
2457,-128,-461,-4,0,0,0,0,0
2458,-88,-469,44,0,0,0,0,0
2459,-70,-497,25,0,0,0,0,0
2460,-141,-491,-2,0,0,0,0,0
2461,-70,-492,-27,0,0,0,0,0
2462,58,-476,0,0,0,0,0,0
2463,-18,-484,7,0,0,0,0,0
2464,54,-526,-62,0,0,0,0,0
2465,-184,-520,51,1230,0,0,0,0
2466,1,-498,3,0,0,0,0,0
2467,-83,-507,-8,0,0,0,0,0
2468,9,-266,13,0,0,0,0,0
2469,-12,-486,-53,0,0,0,0,0
2470,-10,-532,-4,0,0,0,0,0
2471,-113,-539,-12,0,0,0,0,0
2472,-130,-549,61,0,0,0,0,0
2473,-69,-558,-32,0,0,0,0,0
2474,-70,-554,-25,789,0,0,0,0
2475,-27,-554,-52,0,0,0,0,0
2476,-160,-571,10,790,0,0,0,0
2477,-23,-590,-33,0,0,0,0,0
2478,-174,-571,-93,1236,0,0,0,0
2479,2,-576,-15,0,0,0,0,0
2480,-249,-614,-52,0,0,0,0,0
2481,-62,-590,-21,0,0,0,0,0
2482,-136,-613,-28,0,0,0,0,0
2483,26,-581,5,0,0,0,0,0
2484,9,-558,1,0,0,0,0,0
2485,-115,-593,44,0,0,0,0,0
2486,-8,-525,-59,1243,0,0,0,0
2487,119,-567,-256,0,0,0,0,0
2488,-184,-530,-11,0,0,0,0,0
2489,-62,-480,16,0,0,0,0,0
2490,-169,-347,-27,1239,0,0,0,0
2491,-100,-233,78,0,0,0,0,0
2492,-133,-156,-38,1234,0,0,0,0
2493,-54,30,37,0,0,0,0,0
2494,59,167,63,0,0,0,0,0
2495,-77,215,15,0,0,0,0,0
2496,23,279,1,0,0,0,0,0
2497,-33,245,35,0,0,0,0,0
2498,-35,315,23,0,0,0,0,0
2499,124,343,9,0,0,0,0,0
2500,78,330,2,0,0,0,0,0
2501,113,347,38,0,0,0,0,0
2502,-120,364,-37,0,0,0,0,0
2503,-72,396,-18,0,0,0,0,0
2504,38,395,-44,0,0,0,0,0
2505,89,406,-21,0,0,0,0,0
2506,33,395,-32,0,0,0,0,0
2507,122,403,61,0,0,0,0,0
2508,58,381,-13,0,0,0,0,0
2509,-23,356,5,1508,0,0,0,0
2510,-50,390,-12,0,0,0,0,0
2511,33,380,18,1529,0,0,0,0
2512,71,373,51,0,0,0,0,0
2513,40,337,16,1143,0,0,0,0
2514,-28,291,19,0,0,0,0,0
2515,103,270,-24,1189,0,0,0,0
2516,45,195,6,0,0,0,0,0
2517,1,82,-17,0,0,0,0,0
2518,-43,-47,-18,0,0,0,0,0
2519,65,-170,31,1252,0,0,0,0
2520,-36,-238,-47,0,0,0,0,0
2521,12,-323,46,0,0,0,0,0
2522,78,-363,-7,0,0,0,0,0
2523,-50,-363,34,0,0,0,0,0
2524,34,-431,-38,0,0,0,0,0
2525,47,-438,-1,1250,0,0,0,0
2526,-109,-442,101,0,0,0,0,0
2527,74,-418,26,1218,0,0,0,0
2528,-32,-406,26,0,0,0,0,0
2529,7,-382,72,0,0,0,0,0
2530,-91,-398,-51,0,0,0,0,0
2531,-130,-501,-36,0,0,0,0,0
2532,81,-507,-7,0,0,0,0,0
2533,-271,-513,26,0,0,0,0,0
2534,-150,-502,-47,0,0,0,0,0
2535,-163,-519,-36,0,0,0,0,0
2536,-49,-520,-9,0,0,0,0,0
2537,-90,-523,-69,0,0,0,0,0
2538,99,-534,-43,0,0,0,0,0
2539,-102,-601,-9,0,0,0,0,0
2540,-18,-586,11,0,0,0,0,0
2541,-23,-595,-31,133,0,0,0,0
2542,-103,-610,-4,0,0,0,0,0
2543,-32,-593,-23,1464,0,0,0,0
2544,-69,-612,34,0,0,0,0,0
2545,-49,-555,-30,0,0,0,0,0
2546,15,-550,8,0,0,0,0,0
2547,53,-570,33,0,0,0,0,0
2548,-113,-596,-251,0,0,0,0,0
2549,-121,-599,-16,0,0,0,0,0
2550,78,-559,19,0,0,0,0,0
2551,-90,-597,-21,0,0,0,0,0
2552,-65,-585,-20,0,0,0,0,0
2553,-83,-564,-23,0,0,0,0,0
2554,-92,-542,-8,0,0,0,0,0
2555,65,-518,33,0,0,0,0,0
2556,-21,-495,45,0,0,0,0,0
2557,-44,-443,40,1050,0,0,0,0
2558,-69,-400,30,0,0,0,0,0
2559,-76,-306,-50,1066,0,0,0,0
2560,35,-290,-33,0,0,0,0,0
2561,-59,-214,14,0,0,0,0,0
2562,-28,-181,-9,0,0,0,0,0
2563,12,-102,-17,0,0,0,0,0
2564,-25,-44,-13,0,0,0,0,0
2565,77,61,-54,0,0,0,0,0
2566,121,111,19,0,0,0,0,0
2567,-26,164,-30,0,0,0,0,0
2568,56,213,9,0,0,0,0,0
2569,72,212,-20,0,0,0,0,0
2570,-131,205,21,0,0,0,0,0
2571,110,307,-13,0,0,0,0,0
2572,65,314,-19,201,0,0,0,0
2573,-20,307,30,0,0,0,0,0
2574,77,374,15,1362,0,0,0,0
2575,206,421,10,0,0,0,0,0
2576,107,465,22,117,0,0,0,0
2577,114,481,9,0,0,0,0,0
2578,25,513,7,0,0,0,0,0
2579,-9,532,-32,0,0,0,0,0
2580,78,579,20,0,0,0,0,0
2581,89,607,40,0,0,0,0,0
2582,65,609,40,0,0,0,0,0
2583,-17,560,47,0,0,0,0,0
2584,35,565,-29,0,0,0,0,0
2585,118,327,27,1215,0,0,0,0
2586,126,311,-36,0,0,0,0,0
2587,136,368,21,0,0,0,0,0
2588,98,357,19,0,0,0,0,0
2589,59,348,-11,0,0,0,0,0
2590,-51,363,-14,0,0,0,0,0
2591,72,374,-14,0,0,0,0,0
2592,1,354,-8,0,0,0,0,0
2593,45,386,3,0,0,0,0,0
2594,139,424,53,0,0,0,0,0
2595,25,395,1,0,0,0,0,0
2596,128,402,-10,0,0,0,0,0
2597,49,385,-36,0,0,0,0,0
2598,87,397,-5,0,0,0,0,0
2599,83,394,-3,0,0,0,0,0
2600,-81,371,-26,0,0,0,0,0
2601,46,383,-5,0,0,0,0,0
2602,-26,384,12,0,0,0,0,0
2603,95,390,3,0,0,0,0,0
2604,127,386,35,0,0,0,0,0
2605,74,389,13,792,0,0,0,0
2606,91,413,3,0,0,0,0,0
2607,-43,382,1,789,0,0,0,0
2608,39,384,-4,0,0,0,0,0
2609,27,385,2,794,0,0,0,0
2610,54,392,1,0,0,0,0,0
2611,-8,397,2,772,0,0,0,0
2612,4,379,-15,0,0,0,0,0
2613,-89,365,6,1224,0,0,0,0
2614,-21,382,2,0,0,0,0,0
2615,73,392,11,1217,0,0,0,0
2616,106,383,10,0,0,0,0,0
2617,18,368,24,0,0,0,0,0
2618,95,380,2,0,0,0,0,0
2619,68,382,6,0,0,0,0,0
2620,34,376,-19,0,0,0,0,0
2621,66,381,9,0,0,0,0,0
2622,79,379,11,0,0,0,0,0
2623,91,387,9,0,0,0,0,0
2624,-3,369,-24,0,0,0,0,0
2625,63,374,13,0,0,0,0,0
2626,54,384,-4,0,0,0,0,0
2627,34,377,20,1187,0,0,0,0
2628,42,380,2,0,0,0,0,0
2629,-11,357,-8,0,0,0,0,0
2630,20,379,-3,0,0,0,0,0
2631,17,367,-23,0,0,0,0,0
2632,8,372,0,0,0,0,0,0
2633,97,372,16,0,0,0,0,0
2634,68,373,-12,0,0,0,0,0
2635,96,385,4,0,0,0,0,0
2636,104,392,-20,0,0,0,0,0
2637,61,383,-16,0,0,0,0,0
2638,73,383,41,0,0,0,0,0
2639,158,399,2,0,0,0,0,0
2640,71,404,-18,0,0,0,0,0
2641,57,378,-15,0,0,0,0,0
2642,-95,338,3,0,0,0,0,0
2643,19,390,-4,0,0,0,0,0
2644,10,362,-10,793,0,0,0,0
2645,36,376,-13,0,0,0,0,0
2646,65,393,4,0,0,0,0,0
2647,8,383,-28,0,0,0,0,0
2648,44,397,30,1213,0,0,0,0
2649,30,377,7,0,0,0,0,0
2650,46,389,8,783,0,0,0,0
2651,33,383,20,0,0,0,0,0
2652,86,411,-11,0,0,0,0,0
2653,55,384,-8,0,0,0,0,0
2654,76,397,-12,0,0,0,0,0
2655,54,397,-2,0,0,0,0,0
2656,-44,397,36,0,0,0,0,0
2657,70,398,27,0,0,0,0,0
2658,97,383,22,0,0,0,0,0
2659,44,392,28,0,0,0,0,0
2660,35,378,1,0,0,0,0,0
2661,92,389,6,0,0,0,0,0
2662,141,344,-4,0,0,0,0,0
2663,16,312,30,0,0,0,0,0
2664,-120,269,-58,1198,0,0,0,0
2665,1,259,-20,0,0,0,0,0
2666,59,212,-42,0,0,0,0,0
2667,-57,191,-32,0,0,0,0,0
2668,-177,121,9,0,0,0,0,0
2669,64,79,-20,0,0,0,0,0
2670,55,25,-5,0,0,0,0,0
2671,-58,3,54,0,0,0,0,0
2672,34,-11,13,0,0,0,0,0
2673,128,-36,4,1215,0,0,0,0
2674,-45,-60,13,0,0,0,0,0
2675,169,-49,-23,0,0,0,0,0
2676,-42,-102,15,0,0,0,0,0
2677,-8,-121,3,0,0,0,0,0
2678,7,-162,-12,0,0,0,0,0
2679,240,-161,-29,0,0,0,0,0
2680,56,-143,3,0,0,0,0,0
2681,-64,-174,16,0,0,0,0,0
2682,-61,-181,-9,0,0,0,0,0
2683,20,-192,21,0,0,0,0,0
2684,18,-226,246,0,0,0,0,0
2685,-52,-253,-23,0,0,0,0,0
2686,60,-222,4,0,0,0,0,0
2687,-32,-255,-16,0,0,0,0,0
2688,-21,-282,-10,0,0,0,0,0
2689,-137,-277,-19,0,0,0,0,0
2690,-28,-231,5,0,0,0,0,0
2691,-16,-252,11,0,0,0,0,0
2692,-50,-279,-4,0,0,0,0,0
2693,-93,-271,-37,0,0,0,0,0
2694,37,-258,-26,0,0,0,0,0
2695,-129,-288,-12,0,0,0,0,0
2696,-35,-252,-11,0,0,0,0,0
2697,-114,-272,-37,0,0,0,0,0
2698,-60,-304,14,0,0,0,0,0
2699,-70,-338,22,0,0,0,0,0
2700,-115,-380,3,0,0,0,0,0
2701,-85,-442,12,0,0,0,0,0
2702,15,-420,-24,0,0,0,0,0
2703,-150,-525,21,0,0,0,0,0
2704,-21,-261,-2,0,0,0,0,0
2705,-109,-504,-19,0,0,0,0,0
2706,-41,-533,11,0,0,0,0,0
2707,-28,-538,18,0,0,0,0,0
2708,-61,-569,12,0,0,0,0,0
2709,-8,-558,-26,0,0,0,0,0
2710,-44,-560,-7,0,0,0,0,0
2711,-28,-559,42,0,0,0,0,0
2712,22,-552,-52,0,0,0,0,0
2713,-56,-591,-40,1224,0,0,0,0
2714,15,-565,-43,0,0,0,0,0
2715,-51,-587,5,0,0,0,0,0
2716,-75,-583,14,0,0,0,0,0
2717,-178,-593,4,0,0,0,0,0
2718,-48,-558,76,0,0,0,0,0
2719,-65,-584,51,0,0,0,0,0
2720,-135,-596,20,0,0,0,0,0
2721,-121,-578,45,0,0,0,0,0
2722,-114,-583,-13,0,0,0,0,0
2723,-88,-590,-3,0,0,0,0,0
2724,-69,-566,-60,0,0,0,0,0
2725,-43,-583,-58,0,0,0,0,0
2726,-55,-557,-8,0,0,0,0,0
2727,-21,-537,10,0,0,0,0,0
2728,-5,-522,61,0,0,0,0,0
2729,-98,-502,49,0,0,0,0,0
2730,-185,-413,18,0,0,0,0,0
2731,204,-383,-3,0,0,0,0,0
2732,94,-285,13,1205,0,0,0,0
2733,-39,-248,-21,0,0,0,0,0
2734,-119,-195,-47,0,0,0,0,0
2735,-1,-122,-26,0,0,0,0,0
2736,48,-63,-1,0,0,0,0,0
2737,3,13,-10,0,0,0,0,0
2738,37,44,0,0,0,0,0,0
2739,22,134,18,0,0,0,0,0
2740,9,187,53,0,0,0,0,0
2741,63,276,-17,0,0,0,0,0
2742,96,295,-14,1227,0,0,0,0
2743,134,278,36,0,0,0,0,0
2744,-15,264,-30,1234,0,0,0,0
2745,202,277,25,0,0,0,0,0
2746,-100,269,-12,836,0,0,0,0
2747,137,271,38,0,0,0,0,0
2748,4,287,19,789,0,0,0,0
2749,18,311,17,0,0,0,0,0
2750,26,290,2,856,0,0,0,0
2751,87,300,10,0,0,0,0,0
2752,134,308,11,791,0,0,0,0
2753,62,294,16,0,0,0,0,0
2754,-11,309,17,0,0,0,0,0
2755,-59,308,-2,0,0,0,0,0
2756,177,320,-7,0,0,0,0,0
2757,5,301,26,0,0,0,0,0
2758,85,321,15,0,0,0,0,0
2759,-20,309,31,0,0,0,0,0
2760,73,310,-2,0,0,0,0,0
2761,194,315,8,0,0,0,0,0
2762,10,301,32,0,0,0,0,0
2763,22,295,0,0,0,0,0,0
2764,116,313,12,0,0,0,0,0
2765,-6,295,15,0,0,0,0,0
2766,6,299,17,0,0,0,0,0
2767,111,335,-1,0,0,0,0,0
2768,35,289,20,0,0,0,0,0
2769,112,314,-16,0,0,0,0,0
2770,-20,291,39,0,0,0,0,0
2771,112,291,-20,0,0,0,0,0
2772,51,311,13,1192,0,0,0,0
2773,-47,297,-26,0,0,0,0,0
2774,-50,282,2,1194,0,0,0,0
2775,-154,304,-1,0,0,0,0,0
2776,111,300,-13,0,0,0,0,0
2777,-18,281,-10,0,0,0,0,0
2778,100,303,-23,0,0,0,0,0
2779,118,294,12,0,0,0,0,0
2780,12,276,26,0,0,0,0,0
2781,74,284,-8,1196,0,0,0,0
2782,5,203,18,0,0,0,0,0
2783,15,207,-37,0,0,0,0,0
2784,13,170,-4,0,0,0,0,0
2785,144,176,6,0,0,0,0,0
2786,87,159,-31,1216,0,0,0,0
2787,-30,167,-7,0,0,0,0,0
2788,93,152,27,862,0,0,0,0
2789,41,173,-14,0,0,0,0,0
2790,53,150,6,860,0,0,0,0
2791,-72,165,-24,0,0,0,0,0
2792,-9,164,2,860,0,0,0,0
2793,-112,148,6,0,0,0,0,0
2794,65,172,-3,0,0,0,0,0
2795,89,147,0,0,0,0,0,0
2796,-26,157,-47,0,0,0,0,0
2797,70,155,-15,0,0,0,0,0
2798,47,183,-28,0,0,0,0,0
2799,144,164,37,0,0,0,0,0
2800,-60,141,15,0,0,0,0,0
2801,-118,145,28,0,0,0,0,0
2802,-118,173,-3,0,0,0,0,0
2803,38,172,22,0,0,0,0,0
2804,39,188,-2,1203,0,0,0,0
2805,-18,151,-3,0,0,0,0,0
2806,157,181,12,0,0,0,0,0
2807,-49,163,-30,0,0,0,0,0
2808,22,166,-5,1201,0,0,0,0
2809,109,186,5,0,0,0,0,0
2810,62,149,36,0,0,0,0,0
2811,22,191,0,0,0,0,0,0
2812,-170,136,1,1224,0,0,0,0
2813,-17,174,-10,0,0,0,0,0
2814,-25,189,-17,885,0,0,0,0
2815,23,215,-40,0,0,0,0,0
2816,-16,154,-11,0,0,0,0,0
2817,-49,211,-44,0,0,0,0,0
2818,17,207,17,0,0,0,0,0
2819,64,240,8,0,0,0,0,0
2820,40,229,16,0,0,0,0,0
2821,1,207,40,0,0,0,0,0
2822,-66,241,-68,0,0,0,0,0
2823,180,257,-19,0,0,0,0,0
2824,-11,209,-23,0,0,0,0,0
2825,-27,242,-11,0,0,0,0,0
2826,-30,229,3,0,0,0,0,0
2827,33,247,20,0,0,0,0,0
2828,45,276,30,1230,0,0,0,0
2829,132,281,-2,0,0,0,0,0
2830,7,260,-22,0,0,0,0,0
2831,142,253,22,0,0,0,0,0
2832,-73,189,-9,0,0,0,0,0
2833,-15,128,-9,0,0,0,0,0
2834,-101,99,-13,0,0,0,0,0
2835,63,113,-38,0,0,0,0,0
2836,-13,98,1,0,0,0,0,0
2837,67,87,2,0,0,0,0,0
2838,-35,71,4,0,0,0,0,0
2839,-3,88,-27,0,0,0,0,0
2840,0,94,17,0,0,0,0,0
2841,67,79,-22,430,0,0,0,0
2842,22,75,5,0,0,0,0,0
2843,18,51,-9,881,0,0,0,0
2844,-11,51,-21,0,0,0,0,0
2845,14,54,-7,0,0,0,0,0
2846,-44,52,-49,0,0,0,0,0
2847,-65,49,-46,0,0,0,0,0
2848,-69,35,4,0,0,0,0,0
2849,-14,33,32,0,0,0,0,0
2850,17,67,-10,0,0,0,0,0
2851,-41,50,-5,0,0,0,0,0
2852,-3,31,21,490,0,0,0,0
2853,-50,55,-4,0,0,0,0,0
2854,104,47,19,1022,0,0,0,0
2855,-113,18,-7,0,0,0,0,0
2856,142,75,-1,0,0,0,0,0
2857,54,48,-4,0,0,0,0,0
2858,69,233,30,1035,0,0,0,0
2859,36,221,-1,0,0,0,0,0
2860,-18,203,-3,0,0,0,0,0
2861,-8,200,-3,0,0,0,0,0
2862,12,214,-9,0,0,0,0,0
2863,-15,192,16,0,0,0,0,0
2864,10,222,-11,0,0,0,0,0
2865,2,213,-9,0,0,0,0,0
2866,52,204,2,0,0,0,0,0
2867,22,215,4,0,0,0,0,0
2868,-19,206,-10,525,0,0,0,0
2869,2,206,-13,0,0,0,0,0
2870,27,199,0,0,0,0,0,0
2871,54,211,-7,0,0,0,0,0
2872,56,199,4,0,0,0,0,0
2873,11,187,0,0,0,0,0,0
2874,17,190,11,0,0,0,0,0
2875,34,188,0,0,0,0,0,0
2876,95,170,-5,0,0,0,0,0
2877,38,144,-7,0,0,0,0,0
2878,-252,152,-2,0,0,0,0,0
2879,31,117,10,0,0,0,0,0
2880,39,98,19,0,0,0,0,0
2881,115,156,-6,0,0,0,0,0
2882,48,164,9,0,0,0,0,0
2883,25,99,-18,0,0,0,0,0
2884,5,141,-20,0,0,0,0,0
2885,4,143,-15,0,0,0,0,0
2886,14,125,-4,0,0,0,0,0
2887,7,129,-14,0,0,0,0,0
2888,43,145,-14,0,0,0,0,0
2889,48,149,-5,0,0,0,0,0
2890,39,143,-9,553,0,0,0,0
2891,3,138,-24,0,0,0,0,0
2892,81,161,-8,367,0,0,0,0
2893,71,147,-4,0,0,0,0,0
2894,36,142,-16,0,0,0,0,0
2895,9,154,-8,0,0,0,0,0
2896,50,157,0,0,0,0,0,0
2897,28,162,13,0,0,0,0,0
2898,63,158,-17,0,0,0,0,0
2899,55,171,-5,0,0,0,0,0
2900,23,155,11,950,0,0,0,0
2901,20,162,15,0,0,0,0,0
2902,55,169,11,926,0,0,0,0
2903,40,151,20,0,0,0,0,0
2904,22,147,-2,0,0,0,0,0
2905,69,148,15,0,0,0,0,0
2906,24,152,-2,0,0,0,0,0
2907,30,94,-2,0,0,0,0,0
2908,9,42,-14,0,0,0,0,0
2909,-102,95,15,0,0,0,0,0
2910,-47,88,-5,0,0,0,0,0
2911,104,15,0,0,0,0,0,0
2912,4,35,-13,0,0,0,0,0
2913,43,56,-4,0,0,0,0,0
2914,11,36,12,0,0,0,0,0
2915,32,12,-8,0,0,0,0,0
2916,-12,26,-12,0,0,0,0,0
2917,-9,11,2,0,0,0,0,0
2918,14,1,6,0,0,0,0,0
2919,1,2,-6,0,0,0,0,0
2920,28,-11,2,0,0,0,0,0
2921,-13,-8,-2,0,0,0,0,0
2922,4,-7,0,0,0,0,0,0
2923,2,-9,-2,0,0,0,0,0
2924,252,-6,0,0,0,0,0,0
2925,0,-5,2,0,0,0,0,0
2926,-4,-10,0,0,0,0,0,0
2927,8,-5,-4,0,0,0,0,0
2928,17,-7,2,0,0,0,0,0
2929,12,-4,0,0,0,0,0,0
2930,-3,-9,-1,0,0,0,0,0
2931,0,-8,0,0,0,0,0,0
2932,1,-8,2,0,0,0,0,0
2933,3,-7,-2,0,0,0,0,0
2934,1,-7,-1,0,0,0,0,0
2935,3,-6,0,0,0,0,0,0
2936,3,-7,0,0,0,0,0,0
2937,1,-6,0,0,0,0,0,0
2938,4,-8,0,0,0,0,0,0
2939,2,-8,0,0,0,0,0,0
2940,1,-8,0,0,0,0,0,0
2941,4,-7,1,0,0,0,0,0
2942,4,-7,1,0,0,0,0,0
2943,1,-9,0,0,0,0,0,0
2944,2,-8,-1,0,0,0,0,0
2945,4,-7,0,0,0,0,0,0
2946,4,-8,1,0,0,0,0,0
2947,4,-6,-1,0,0,0,0,0
2948,2,-5,-1,0,0,0,0,0
2949,0,-6,0,0,0,0,0,0
2950,3,-6,0,0,0,0,0,0
2951,1,-9,-1,0,0,0,0,0
2952,3,-8,0,0,0,0,0,0
2953,5,-7,1,0,0,0,0,0
2954,4,-7,0,0,0,0,0,0
2955,0,-8,0,0,0,0,0,0
2956,2,-9,-1,0,0,0,0,0
2957,5,-8,-1,0,0,0,0,0
2958,2,-7,-1,0,0,0,0,0
2959,1,-9,0,0,0,0,0,0
2960,5,-7,-2,0,0,0,0,0
2961,3,-8,-1,0,0,0,0,0
2962,2,-5,1,0,0,0,0,0
2963,3,-8,-1,0,0,0,0,0
2964,2,-6,0,0,0,0,0,0
2965,5,-8,0,0,0,0,0,0
2966,1,-9,0,0,0,0,0,0
2967,2,-7,0,0,0,0,0,0
2968,5,-7,-1,0,0,0,0,0
2969,2,-7,0,0,0,0,0,0
2970,4,-8,-1,0,0,0,0,0
2971,2,-6,0,0,0,0,0,0
2972,2,-8,-2,0,0,0,0,0
2973,3,-8,0,0,0,0,0,0
2974,4,-8,-1,0,0,0,0,0
2975,1,-7,-1,0,0,0,0,0
2976,4,-6,-1,0,0,0,0,0
2977,1,-7,1,0,0,0,0,0
2978,1,-8,1,0,0,0,0,0
2979,-1,-6,-1,0,0,0,0,0
2980,4,-10,-1,0,0,0,0,0
2981,3,-8,-1,0,0,0,0,0
2982,2,-9,0,0,0,0,0,0
2983,5,-6,0,0,0,0,0,0
2984,2,-6,1,0,0,0,0,0
2985,2,-8,-1,0,0,0,0,0
2986,5,-8,0,0,0,0,0,0
2987,2,-8,-1,0,0,0,0,0
2988,1,-6,-1,0,0,0,0,0
2989,3,-7,-2,0,0,0,0,0
2990,3,-8,-1,0,0,0,0,0
2991,1,-7,-1,0,0,0,0,0
2992,3,-7,-1,0,0,0,0,0
2993,5,-10,-1,0,0,0,0,0
2994,2,-7,0,0,0,0,0,0
2995,4,-6,-1,0,0,0,0,0
2996,2,-9,0,0,0,0,0,0
2997,2,-7,0,0,0,0,0,0
2998,5,-8,0,0,0,0,0,0
2999,3,-7,-1,0,0,0,0,0
3000,4,-6,0,0,0,0,0,0
3001,3,-7,-256,0,0,0,0,0
3002,4,-8,-1,0,0,0,0,0
3003,4,-7,-1,0,0,0,0,0
3004,3,-7,0,0,0,0,0,0
3005,2,-6,0,0,0,0,0,0
3006,3,-9,-1,0,0,0,0,0
3007,2,-7,-1,0,0,0,0,0
3008,3,-8,-1,0,0,0,0,0
3009,3,-7,1,0,0,0,0,0
3010,3,-7,1,0,0,0,0,0
3011,1,-5,0,0,0,0,0,0
3012,3,-8,1,0,0,0,0,0
3013,4,-8,0,0,0,0,0,0
3014,2,-7,-2,0,0,0,0,0
3015,2,-8,-1,0,0,0,0,0
3016,1,-7,-1,0,0,0,0,0
3017,3,-6,-1,0,0,0,0,0
3018,2,-6,0,0,0,0,0,0
3019,1,-8,0,0,0,0,0,0
3020,2,-8,-1,0,0,0,0,0
3021,3,-8,-1,0,0,0,0,0
3022,3,-7,-1,0,0,0,0,0
3023,3,-7,-1,0,0,0,0,0
3024,1,-8,-3,0,0,0,0,0
3025,3,-8,1,0,0,0,0,0
3026,2,-8,-1,0,0,0,0,0
3027,2,-6,-1,0,0,0,0,0
3028,4,-7,1,0,0,0,0,0
3029,2,-7,-1,0,0,0,0,0
3030,3,-7,-1,0,0,0,0,0
3031,2,-8,0,0,0,0,0,0
3032,3,-7,1,0,0,0,0,0
3033,2,-7,0,0,0,0,0,0
3034,3,-6,0,0,0,0,0,0
3035,4,-8,0,0,0,0,0,0
3036,3,-7,0,0,0,0,0,0
3037,4,-7,0,0,0,0,0,0
3038,4,-8,0,0,0,0,0,0
3039,2,-7,0,0,0,0,0,0
3040,1,-7,0,0,0,0,0,0
3041,4,-7,0,0,0,0,0,0
3042,1,-7,-1,0,0,0,0,0
3043,3,-8,0,0,0,0,0,0
3044,2,-8,1,0,0,0,0,0
3045,3,-8,1,0,0,0,0,0
3046,1,-9,-256,0,0,0,0,0
3047,5,-7,-1,0,0,0,0,0
3048,3,-8,0,0,0,0,0,0
3049,0,-7,0,0,0,0,0,0
3050,1,-7,0,0,0,0,0,0
3051,3,-7,-1,0,0,0,0,0
3052,3,-8,0,0,0,0,0,0
3053,1,-7,0,0,0,0,0,0
3054,2,-7,-1,0,0,0,0,0
3055,0,-7,-1,0,0,0,0,0
3056,2,-6,-1,0,0,0,0,0
3057,4,-7,0,0,0,0,0,0
3058,1,-7,-1,0,0,0,0,0
3059,3,-5,-1,0,0,0,0,0
3060,4,-7,-1,0,0,0,0,0
3061,3,-6,-1,0,0,0,0,0
3062,3,-6,-1,0,0,0,0,0
3063,2,-7,1,0,0,0,0,0
3064,5,-8,-1,0,0,0,0,0
3065,3,-7,-1,0,0,0,0,0
3066,4,-8,-1,0,0,0,0,0
3067,4,-8,0,0,0,0,0,0
3068,4,-6,0,0,0,0,0,0
3069,4,-7,-1,0,0,0,0,0
3070,1,-8,0,0,0,0,0,0
3071,2,-7,0,0,0,0,0,0
3072,2,-7,0,0,0,0,0,0
3073,2,-6,0,0,0,0,0,0
3074,2,-8,0,0,0,0,0,0
3075,3,-8,0,0,0,0,0,0
3076,1,-8,-2,0,0,0,0,0
3077,3,-7,0,0,0,0,0,0
3078,4,-8,-2,0,0,0,0,0
3079,3,-6,0,0,0,0,0,0
3080,4,-8,-1,0,0,0,0,0
3081,4,-7,1,0,0,0,0,0
3082,0,-7,-1,0,0,0,0,0
3083,7,-8,-1,0,0,0,0,0
3084,5,-8,-1,0,0,0,0,0
3085,6,-6,-3,0,0,0,0,0
3086,8,-7,0,0,0,0,0,0
3087,5,-7,1,0,0,0,0,0
3088,5,-6,-1,0,0,0,0,0
3089,4,-8,1,0,0,0,0,0
3090,4,-9,0,0,0,0,0,0
3091,-1,-6,-1,0,0,0,0,0
3092,3,-7,0,0,0,0,0,0
3093,1,-7,-1,0,0,0,0,0
3094,-3,-8,0,0,0,0,0,0
3095,1,-7,0,0,0,0,0,0
3096,3,-8,-1,0,0,0,0,0
3097,3,-8,0,0,0,0,0,0
3098,2,-8,0,0,0,0,0,0
3099,2,-7,0,0,0,0,0,0
3100,2,-8,0,0,0,0,0,0
3101,4,-5,-2,0,0,0,0,0
3102,2,-8,0,0,0,0,0,0
3103,2,-7,0,0,0,0,0,0
3104,2,-6,-1,0,0,0,0,0
3105,3,-8,0,0,0,0,0,0
3106,3,-7,-2,0,0,0,0,0
3107,0,-8,0,0,0,0,0,0
3108,2,-7,1,0,0,0,0,0
3109,-1,-8,-1,0,0,0,0,0
