index,date,ACCEL_X,ACCEL_Y,ACCEL_Z,1,2,3,4,5
0,1762968053620,65238,8145,187,0,0,0,0,0
1,1762968053687,65173,8127,201,0,0,0,0,0
2,1762968053786,65270,8162,201,0,0,0,0,0
3,1762968053837,65220,8138,205,0,0,0,0,0
4,1762968053886,65203,8130,235,0,0,0,0,0
5,1762968053936,65220,8143,190,0,0,0,0,0
6,1762968054004,65247,8151,219,0,0,0,0,0
7,1762968054053,65246,8146,194,0,0,0,0,0
8,1762968054102,65196,8132,215,0,0,0,0,0
9,1762968054153,65204,8114,218,0,0,0,0,0
10,1762968054219,65246,8151,208,0,0,0,0,0
11,1762968054286,65245,8136,221,0,0,0,0,0
12,1762968054385,65213,8131,229,0,0,0,0,0
13,1762968054419,65220,8127,234,0,0,0,0,0
14,1762968054452,65250,8141,211,3.31,0,0,0,0
15,1762968054502,65250,8142,226,0,0,0,0,0
16,1762968054619,65209,8130,214,0,0,0,0,0
17,1762968054768,65247,8142,235,0,0,0,0,0
18,1762968054818,65218,8132,211,0,0,0,0,0
19,1762968054852,65232,8136,215,0,0,0,0,0
20,1762968054935,65242,8142,205,3.31,0,0,0,0
21,1762968054986,65230,8140,219,0,0,0,0,0
22,1762968055035,65218,8134,231,0,0,0,0,0
23,1762968055102,65232,8126,221,0,0,0,0,0
24,1762968055153,65238,8149,208,0,0,0,0,0
25,1762968055201,65231,8135,218,0,0,0,0,0
26,1762968055268,65226,8132,207,0,0,0,0,0
27,1762968055336,65229,8129,224,0,0,0,0,0
28,1762968055401,65234,8148,210,32570,0,0,0,0
29,1762968055452,65238,8142,220,0,0,0,0,0
30,1762968055502,65226,8128,213,0,0,0,0,0
31,1762968055585,65241,8148,224,0,0,0,0,0
32,1762968055636,65227,8146,216,0,0,0,0,0
33,1762968055685,65232,8130,220,0,0,0,0,0
34,1762968055785,65242,8137,210,0,0,0,0,0
35,1762968055851,65236,8138,217,3.32,0,0,0,0
36,1762968055918,65223,8135,216,0,0,0,0,0
37,1762968055952,65233,8137,220,0,0,0,0,0
38,1762968056068,65243,8142,217,0,0,0,0,0
39,1762968056135,65221,8140,216,0,0,0,0,0
40,1762968056168,65230,8132,220,0,0,0,0,0
41,1762968056251,65232,8135,219,0,0,0,0,0
42,1762968056368,65229,8132,212,0,0,0,0,0
43,1762968056401,65237,8148,216,0,0,0,0,0
44,1762968056434,65240,8140,208,0,0,0,0,0
45,1762968056484,65234,8120,223,0,0,0,0,0
46,1762968056700,65236,8125,221,0,0,0,0,0
47,1762968056801,65221,8145,208,0,0,0,0,0
48,1762968056834,65234,8152,199,0,0,0,0,0
49,1762968056900,65222,8110,237,0,0,0,0,0
50,1762968056950,65221,8138,220,0,0,0,0,0
51,1762968057018,65235,8148,217,0,0,0,0,0
52,1762968057067,65242,8127,226,0,0,0,0,0
53,1762968057134,65226,8147,213,0,0,0,0,0
54,1762968057184,65226,8147,211,0,0,0,0,0
55,1762968057367,65217,8142,210,0,0,0,0,0
56,1762968057417,65232,8138,213,0,0,0,0,0
57,1762968057467,65236,8133,218,0,0,0,0,0
58,1762968057584,65226,8130,219,0,0,0,0,0
59,1762968057700,65231,8150,218,0,0,0,0,0
60,1762968057717,65237,8133,218,0,0,0,0,0
61,1762968057800,65221,8140,219,0,0,0,0,0
62,1762968057833,65233,8146,214,0,0,0,0,0
63,1762968057899,65239,8148,200,0,0,0,0,0
64,1762968057966,65240,8127,175,0,0,0,0,0
65,1762968058016,65208,8120,225,0,0,0,0,0
66,1762968058067,65224,8138,233,0,0,0,0,0
67,1762968058133,65272,8048,235,0,0,0,0,0
68,1762968058266,65207,8201,152,0,0,0,0,0
69,1762968058333,65248,8088,274,0,0,0,0,0
70,1762968058382,65243,8100,250,0,0,0,0,0
71,1762968058467,65249,8166,204,0,0,0,0,0
72,1762968058483,65258,8123,263,0,0,0,0,0
73,1762968058733,65237,8125,234,0,0,0,0,0
74,1762968058799,65240,8113,230,0,0,0,0,0
75,1762968058899,65232,8156,208,0,0,0,0,0
76,1762968058965,65224,8116,233,0,0,0,0,0
77,1762968059032,65229,8130,226,3.32,0,0,0,0
78,1762968059215,65240,8130,222,0,0,0,0,0
79,1762968059332,65249,8148,209,0,0,0,0,0
80,1762968059398,65230,8125,228,0,0,0,0,0
81,1762968059432,65232,8136,226,0,0,0,0,0
82,1762968059498,65235,8132,211,0,0,0,0,0
83,1762968059715,65226,8144,206,0,0,0,0,0
84,1762968059765,65240,8121,220,0,0,0,0,0
85,1762968059831,65230,8140,214,0,0,0,0,0
86,1762968059898,65230,8133,209,0,0,0,0,0
87,1762968059981,65238,8142,222,0,0,0,0,0
88,1762968060148,65244,8140,212,0,0,0,0,0
89,1762968060215,65240,8144,211,0,0,0,0,0
90,1762968060314,65228,8131,208,0,0,0,0,0
91,1762968060448,65234,8138,215,0,0,0,0,0
92,1762968060547,65223,8129,216,0,0,0,0,0
93,1762968060564,65234,8141,223,0,0,0,0,0
94,1762968060631,65243,8141,217,0,0,0,0,0
95,1762968060664,65245,8127,221,0,0,0,0,0
96,1762968060914,65229,8131,214,0,0,0,0,0
97,1762968060964,65234,8140,233,0,0,0,0,0
98,1762968061014,65224,8140,216,0,0,0,0,0
99,1762968061080,65231,8125,210,0,0,0,0,0
100,1762968061131,65232,8147,212,0,0,0,0,0
101,1762968061197,65231,8142,210,0,0,0,0,0
102,1762968061264,65232,8138,212,0,0,0,0,0
103,1762968061330,65244,8137,228,3.32,0,0,0,0
104,1762968061380,65235,8150,218,0,0,0,0,0
105,1762968061430,65237,8143,214,0,0,0,0,0
106,1762968061514,65239,8130,222,0,0,0,0,0
107,1762968061646,65225,8137,216,0,0,0,0,0
108,1762968061696,65234,8138,213,0,0,0,0,0
109,1762968061797,65224,8139,229,33190,0,0,0,0
110,1762968061846,65224,8130,222,0,0,0,0,0
111,1762968061896,65241,8136,217,0,0,0,0,0
112,1762968062013,65225,8132,214,0,0,0,0,0
113,1762968062079,65231,8138,219,0,0,0,0,0
114,1762968062113,65237,8136,216,0,0,0,0,0
115,1762968062179,65238,8132,218,0,0,0,0,0
116,1762968062246,65228,8130,223,0,0,0,0,0
117,1762968062313,65225,8145,224,0,0,0,0,0
118,1762968062363,65236,8133,216,0,0,0,0,0
119,1762968062412,65236,8139,221,0,0,0,0,0
120,1762968062596,65238,8145,216,0,0,0,0,0
121,1762968062662,65240,8132,214,3.26,0,0,0,0
122,1762968062729,65231,8143,219,0,0,0,0,0
123,1762968062779,65237,8142,220,0,0,0,0,0
124,1762968062829,65232,8131,210,0,0,0,0,0
125,1762968062879,65230,8139,218,0,0,0,0,0
126,1762968062945,65232,8136,210,0,0,0,0,0
127,1762968062995,65238,8136,216,0,0,0,0,0
128,1762968063062,65240,8141,219,0,0,0,0,0
129,1762968063195,65230,8136,216,0,0,0,0,0
130,1762968063262,65240,8136,209,0,0,0,0,0
131,1762968063311,65236,8140,214,0,0,0,0,0
132,1762968063378,65228,8141,224,0,0,0,0,0
133,1762968063412,65221,8138,215,0,0,0,0,0
134,1762968063495,65233,8141,225,0,0,0,0,0
135,1762968063545,65237,8135,220,0,0,0,0,0
136,1762968063661,65230,8137,223,0,0,0,0,0
137,1762968063745,65239,8138,221,0,0,0,0,0
138,1762968063778,65238,8138,216,0,0,0,0,0
139,1762968063844,65238,8134,225,0,0,0,0,0
140,1762968063911,65230,8134,215,0,0,0,0,0
141,1762968063961,65232,8140,219,0,0,0,0,0
142,1762968064012,65231,8142,212,3.31,0,0,0,0
143,1762968064078,65235,8143,216,0,0,0,0,0
144,1762968064144,65236,8130,213,0,0,0,0,0
145,1762968064195,65235,8141,209,0,0,0,0,0
146,1762968064261,65230,8133,218,0,0,0,0,0
147,1762968064310,65234,8138,213,0,0,0,0,0
148,1762968064427,65234,8137,216,0,0,0,0,0
149,1762968064512,65231,8136,218,0,0,0,0,0
150,1762968064546,65234,8128,214,0,0,0,0,0
151,1762968064611,65236,8136,215,0,0,0,0,0
152,1762968064660,65240,8130,225,0,0,0,0,0
153,1762968064777,65236,8136,212,0,0,0,0,0
154,1762968064829,65234,8141,225,0,0,0,0,0
155,1762968064894,65230,8136,223,0,0,0,0,0
156,1762968064960,65229,8138,226,33190,0,0,0,0
157,1762968065044,65234,8135,224,0,0,0,0,0
158,1762968065093,65232,8136,222,0,0,0,0,0
159,1762968065160,65236,8138,223,0,0,0,0,0
160,1762968065211,65230,8144,218,0,0,0,0,0
161,1762968065277,65231,8126,220,0,0,0,0,0
162,1762968065327,65238,8137,216,0,0,0,0,0
163,1762968065410,65233,8136,218,3.26,0,0,0,0
164,1762968065477,65236,8146,218,0,0,0,0,0
165,1762968065510,65234,8130,222,0,0,0,0,0
166,1762968065593,65242,8139,213,0,0,0,0,0
167,1762968065627,65231,8135,221,0,0,0,0,0
168,1762968065709,65231,8134,215,0,0,0,0,0
169,1762968065743,65234,8137,216,0,0,0,0,0
170,1762968065876,65231,8136,219,0,0,0,0,0
171,1762968065943,65232,8136,212,0,0,0,0,0
172,1762968065993,65228,8137,223,0,0,0,0,0
173,1762968066043,65234,8130,222,0,0,0,0,0
174,1762968066095,65227,8136,217,0,0,0,0,0
175,1762968066159,65238,8138,214,0,0,0,0,0
176,1762968066209,65238,8137,214,0,0,0,0,0
177,1762968066276,65233,8141,217,0,0,0,0,0
178,1762968066377,65234,8136,225,0,0,0,0,0
179,1762968066459,65237,8136,223,0,0,0,0,0
180,1762968066492,65242,8134,216,0,0,0,0,0
181,1762968066609,65236,8138,215,0,0,0,0,0
182,1762968066692,65235,8130,224,0,0,0,0,0
183,1762968066726,65232,8129,215,0,0,0,0,0
184,1762968066809,65228,8135,211,0,0,0,0,0
185,1762968066876,65232,8142,217,0,0,0,0,0
186,1762968066925,65230,8136,212,0,0,0,0,0
187,1762968066976,65233,8138,224,0,0,0,0,0
188,1762968067025,65233,8142,223,0,0,0,0,0
189,1762968067093,65228,8132,213,0,0,0,0,0
190,1762968067141,65238,8134,216,0,0,0,0,0
191,1762968067275,65228,8140,219,0,0,0,0,0
192,1762968067342,65230,8141,219,0,0,0,0,0
193,1762968067374,65228,8131,218,0,0,0,0,0
194,1762968067491,65236,8140,214,0,0,0,0,0
195,1762968067574,65233,8134,214,0,0,0,0,0
196,1762968067608,65230,8136,221,0,0,0,0,0
197,1762968067726,65233,8133,223,0,0,0,0,0
198,1762968067775,65233,8136,219,0,0,0,0,0
199,1762968067825,65229,8142,220,0,0,0,0,0
200,1762968067875,65236,8133,217,0,0,0,0,0
201,1762968067925,65231,8137,220,0,0,0,0,0
202,1762968068042,65230,8137,219,0,0,0,0,0
203,1762968068109,65231,8140,212,0,0,0,0,0
204,1762968068158,65235,8132,219,0,0,0,0,0
205,1762968068274,65230,8140,215,0,0,0,0,0
206,1762968068341,65228,8136,218,0,0,0,0,0
207,1762968068393,65236,8144,218,0,0,0,0,0
208,1762968068458,65233,8139,216,0,0,0,0,0
209,1762968068508,65228,8141,215,0,0,0,0,0
210,1762968068575,65235,8129,212,3.28,0,0,0,0
211,1762968068658,65232,8135,217,0,0,0,0,0
212,1762968068692,65233,8136,218,0,0,0,0,0
213,1762968068758,65235,8143,212,0,0,0,0,0
214,1762968068807,65230,8138,207,0,0,0,0,0
215,1762968068874,65228,8131,210,0,0,0,0,0
216,1762968068908,65234,8133,223,0,0,0,0,0
217,1762968068991,65236,8139,215,0,0,0,0,0
218,1762968069040,65232,8138,216,3.32,0,0,0,0
219,1762968069124,65229,8134,206,0,0,0,0,0
220,1762968069175,65226,8137,215,0,0,0,0,0
221,1762968069240,65233,8131,210,0,0,0,0,0
222,1762968069290,65238,8141,220,0,0,0,0,0
223,1762968069340,65232,8136,222,0,0,0,0,0
224,1762968069406,65233,8148,217,0,0,0,0,0
225,1762968069458,65237,8137,220,0,0,0,0,0
226,1762968069541,65235,8134,216,0,0,0,0,0
227,1762968069573,65228,8137,216,0,0,0,0,0
228,1762968069656,65232,8140,223,0,0,0,0,0
229,1762968069706,65234,8136,219,0,0,0,0,0
230,1762968069773,65240,8138,220,0,0,0,0,0
231,1762968069807,65235,8136,218,0,0,0,0,0
232,1762968069924,65231,8139,220,0,0,0,0,0
233,1762968070006,65230,8132,217,0,0,0,0,0
234,1762968070057,65239,8137,212,0,0,0,0,0
235,1762968070123,65233,8136,212,0,0,0,0,0
236,1762968070173,65236,8143,222,0,0,0,0,0
237,1762968070223,65234,8141,221,0,0,0,0,0
238,1762968070306,65238,8136,220,0,0,0,0,0
239,1762968070357,65237,8140,214,0,0,0,0,0
240,1762968070423,65238,8134,218,0,0,0,0,0
241,1762968070473,65231,8133,213,0,0,0,0,0
242,1762968070557,65234,8136,213,0,0,0,0,0
243,1762968070590,65234,8138,219,0,0,0,0,0
244,1762968070655,65232,8138,216,0,0,0,0,0
245,1762968070706,65236,8135,214,0,0,0,0,0
246,1762968070772,65230,8140,218,0,0,0,0,0
247,1762968070823,65238,8133,216,0,0,0,0,0
248,1762968070888,65232,8140,214,0,0,0,0,0
249,1762968070956,65234,8133,215,0,0,0,0,0
250,1762968071005,65240,8139,225,0,0,0,0,0
251,1762968071055,65233,8141,212,0,0,0,0,0
252,1762968071123,65229,8135,216,0,0,0,0,0
253,1762968071172,65242,8140,217,0,0,0,0,0
254,1762968071223,65230,8139,216,0,0,0,0,0
255,1762968071289,65230,8136,214,0,0,0,0,0
256,1762968071356,65228,8140,208,0,0,0,0,0
257,1762968071423,65228,8136,220,0,0,0,0,0
258,1762968071455,65230,8136,210,0,0,0,0,0
259,1762968071523,65230,8132,226,0,0,0,0,0
260,1762968071572,65241,8138,216,0,0,0,0,0
261,1762968071639,65227,8137,216,0,0,0,0,0
262,1762968071672,65232,8142,217,0,0,0,0,0
263,1762968071756,65230,8136,218,0,0,0,0,0
264,1762968071822,65235,8140,219,0,0,0,0,0
265,1762968071871,65228,8138,225,0,0,0,0,0
266,1762968071921,65234,8138,219,0,0,0,0,0
267,1762968071987,65242,8139,220,0,0,0,0,0
268,1762968072038,65241,8138,214,0,0,0,0,0
269,1762968072088,65230,8136,219,0,0,0,0,0
270,1762968072154,65235,8146,203,0,0,0,0,0
271,1762968072221,65238,8137,213,3.28,0,0,0,0
272,1762968072288,65232,8135,218,0,0,0,0,0
273,1762968072321,65236,8132,215,0,0,0,0,0
274,1762968072387,65235,8138,225,0,0,0,0,0
275,1762968072437,65228,8136,221,0,0,0,0,0
276,1762968072505,65232,8136,217,0,0,0,0,0
277,1762968072538,65232,8137,217,0,0,0,0,0
278,1762968072604,65232,8127,216,0,0,0,0,0
279,1762968072654,65236,8140,216,0,0,0,0,0
280,1762968072721,65232,8137,214,0,0,0,0,0
281,1762968072787,65229,8132,210,0,0,0,0,0
282,1762968072838,65229,8139,212,0,0,0,0,0
283,1762968072870,65232,8134,215,0,0,0,0,0
284,1762968072955,65230,8139,218,0,0,0,0,0
285,1762968072988,65226,8133,222,0,0,0,0,0
286,1762968073071,65232,8141,216,0,0,0,0,0
287,1762968073103,65233,8137,214,0,0,0,0,0
288,1762968073187,65238,8137,223,0,0,0,0,0
289,1762968073236,65236,8134,224,0,0,0,0,0
290,1762968073303,65234,8143,216,0,0,0,0,0
291,1762968073337,65232,8136,215,0,0,0,0,0
292,1762968073420,65224,8140,220,0,0,0,0,0
293,1762968073454,65232,8138,220,0,0,0,0,0
294,1762968073538,65232,8132,215,0,0,0,0,0
295,1762968073604,65232,8134,220,3.31,0,0,0,0
296,1762968073737,65233,8137,222,0,0,0,0,0
297,1762968073770,65231,8142,218,0,0,0,0,0
298,1762968073821,65235,8137,214,0,0,0,0,0
299,1762968073853,65236,8136,214,0,0,0,0,0
300,1762968073920,65242,8132,216,0,0,0,0,0
301,1762968073969,65235,8142,222,0,0,0,0,0
302,1762968074035,65235,8139,215,0,0,0,0,0
303,1762968074086,65232,8138,217,0,0,0,0,0
304,1762968074154,65236,8138,217,0,0,0,0,0
305,1762968074187,65230,8139,220,0,0,0,0,0
306,1762968074286,65232,8141,216,0,0,0,0,0
307,1762968074336,65235,8138,220,0,0,0,0,0
308,1762968074419,65234,8131,215,0,0,0,0,0
309,1762968074536,65232,8136,220,0,0,0,0,0
310,1762968074636,65232,8138,218,0,0,0,0,0
311,1762968074653,65244,8132,212,0,0,0,0,0
312,1762968074721,65241,8130,214,0,0,0,0,0
313,1762968074754,65244,8134,218,0,0,0,0,0
314,1762968074820,65234,8142,216,0,0,0,0,0
315,1762968074853,65231,8140,218,0,0,0,0,0
316,1762968074918,65236,8140,218,0,0,0,0,0
317,1762968074985,65235,8139,218,33190,0,0,0,0
318,1762968075069,65234,8138,216,0,0,0,0,0
319,1762968075137,65225,8138,218,0,0,0,0,0
320,1762968075202,65234,8136,215,0,0,0,0,0
321,1762968075252,65231,8140,212,0,0,0,0,0
322,1762968075286,65231,8135,218,0,0,0,0,0
323,1762968075352,65234,8136,204,0,0,0,0,0
324,1762968075403,65236,8134,220,3.32,0,0,0,0
325,1762968075469,65229,8141,211,0,0,0,0,0
326,1762968075503,65229,8142,217,0,0,0,0,0
327,1762968075602,65233,8135,212,0,0,0,0,0
328,1762968075669,65240,8136,222,0,0,0,0,0
329,1762968075835,65227,8142,212,0,0,0,0,0
330,1762968075901,65230,8141,213,0,0,0,0,0
331,1762968075935,65232,8132,216,0,0,0,0,0
332,1762968076003,65234,8134,213,0,0,0,0,0
333,1762968076052,65236,8132,217,0,0,0,0,0
334,1762968076101,65226,8134,222,0,0,0,0,0
335,1762968076168,65233,8130,212,0,0,0,0,0
336,1762968076201,65228,8136,219,0,0,0,0,0
337,1762968076267,65236,8139,218,0,0,0,0,0
338,1762968076302,65239,8136,213,3.32,0,0,0,0
339,1762968076385,65232,8135,209,0,0,0,0,0
340,1762968076417,65226,8137,221,0,0,0,0,0
341,1762968076484,65226,8135,219,0,0,0,0,0
342,1762968076518,65230,8136,212,0,0,0,0,0
343,1762968076633,65234,8140,212,0,0,0,0,0
344,1762968076700,65238,8138,213,0,0,0,0,0
345,1762968076734,65231,8136,215,0,0,0,0,0
346,1762968076867,65228,8141,213,0,0,0,0,0
347,1762968076933,65232,8144,210,0,0,0,0,0
348,1762968076967,65230,8134,214,0,0,0,0,0
349,1762968077033,65230,8136,208,0,0,0,0,0
350,1762968077084,65234,8133,215,0,0,0,0,0
351,1762968077184,65229,8142,220,0,0,0,0,0
352,1762968077267,65239,8139,218,0,0,0,0,0
353,1762968077318,65243,8134,212,0,0,0,0,0
354,1762968077368,65235,8135,210,0,0,0,0,0
355,1762968077416,65238,8135,212,0,0,0,0,0
356,1762968077485,65240,8134,214,0,0,0,0,0
357,1762968077516,65234,8140,217,0,0,0,0,0
358,1762968077583,65230,8139,218,0,0,0,0,0
359,1762968077617,65234,8126,224,0,0,0,0,0
360,1762968077749,65236,8140,216,3.32,0,0,0,0
361,1762968077799,65237,8137,214,0,0,0,0,0
362,1762968077849,65232,8140,209,0,0,0,0,0
363,1762968077917,65232,8135,224,0,0,0,0,0
364,1762968077950,65237,8133,214,0,0,0,0,0
365,1762968078033,65237,8134,216,0,0,0,0,0
366,1762968078066,65235,8134,216,0,0,0,0,0
367,1762968078133,65226,8139,214,0,0,0,0,0
368,1762968078199,65232,8142,214,0,0,0,0,0
369,1762968078249,65226,8137,212,0,0,0,0,0
370,1762968078299,65226,8141,222,0,0,0,0,0
371,1762968078366,65237,8133,220,0,0,0,0,0
372,1762968078415,65230,8138,211,0,0,0,0,0
373,1762968078466,65235,8134,213,0,0,0,0,0
374,1762968078498,65231,8133,208,0,0,0,0,0
375,1762968078582,65239,8139,219,0,0,0,0,0
376,1762968078616,65231,8137,216,33190,0,0,0,0
377,1762968078682,65237,8144,210,0,0,0,0,0
378,1762968078716,65230,8136,220,0,0,0,0,0
379,1762968078798,65234,8140,221,0,0,0,0,0
380,1762968078833,65233,8132,221,0,0,0,0,0
381,1762968078932,65234,8138,218,0,0,0,0,0
382,1762968079015,65233,8137,218,0,0,0,0,0
383,1762968079065,65234,8133,215,3.32,0,0,0,0
384,1762968079132,65234,8143,212,0,0,0,0,0
385,1762968079165,65233,8138,210,0,0,0,0,0
386,1762968079231,65233,8131,215,0,0,0,0,0
387,1762968079265,65240,8130,222,0,0,0,0,0
388,1762968079382,65230,8140,222,0,0,0,0,0
389,1762968079448,65238,8142,212,0,0,0,0,0
390,1762968079481,65238,8140,218,3.31,0,0,0,0
391,1762968079582,65234,8136,218,0,0,0,0,0
392,1762968079616,65233,8139,214,0,0,0,0,0
393,1762968079682,65225,8126,226,0,0,0,0,0
394,1762968079715,65237,8145,221,0,0,0,0,0
395,1762968079782,65239,8141,212,0,0,0,0,0
396,1762968079815,65235,8132,214,0,0,0,0,0
397,1762968079881,65238,8140,226,0,0,0,0,0
398,1762968079914,65233,8143,215,0,0,0,0,0
399,1762968080015,65236,8134,211,0,0,0,0,0
400,1762968080048,65232,8135,215,0,0,0,0,0
401,1762968080116,65232,8137,218,0,0,0,0,0
402,1762968080164,65234,8137,210,0,0,0,0,0
403,1762968080231,65231,8137,219,0,0,0,0,0
404,1762968080264,65230,8140,217,0,0,0,0,0
405,1762968080364,65228,8141,212,0,0,0,0,0
406,1762968080448,65230,8138,229,0,0,0,0,0
407,1762968080482,65226,8140,214,0,0,0,0,0
408,1762968080547,65241,8132,214,0,0,0,0,0
409,1762968080581,65230,8133,218,0,0,0,0,0
410,1762968080680,65231,8136,214,0,0,0,0,0
411,1762968080796,65231,8136,214,0,0,0,0,0
412,1762968080864,65238,8132,212,3.28,0,0,0,0
413,1762968080913,65232,8137,212,0,0,0,0,0
414,1762968080981,65229,8135,213,0,0,0,0,0
415,1762968081030,65236,8137,220,0,0,0,0,0
416,1762968081080,65238,8132,218,0,0,0,0,0
417,1762968081130,65235,8140,222,0,0,0,0,0
418,1762968081197,65238,8133,218,0,0,0,0,0
419,1762968081231,65240,8136,214,0,0,0,0,0
420,1762968081296,65226,8140,209,0,0,0,0,0
421,1762968081347,65234,8138,211,33191,0,0,0,0
422,1762968081414,65233,8132,221,0,0,0,0,0
423,1762968081446,65235,8132,212,0,0,0,0,0
424,1762968081514,65234,8142,220,0,0,0,0,0
425,1762968081547,65240,8140,224,0,0,0,0,0
426,1762968081613,65229,8138,219,0,0,0,0,0
427,1762968081648,65232,8134,213,0,0,0,0,0
428,1762968081846,65234,8138,216,0,0,0,0,0
429,1762968081879,65236,8140,213,0,0,0,0,0
430,1762968081979,65233,8139,226,0,0,0,0,0
431,1762968082029,65227,8134,212,0,0,0,0,0
432,1762968082079,65227,8142,216,0,0,0,0,0
433,1762968082130,65238,8137,217,0,0,0,0,0
434,1762968082246,65236,8131,215,0,0,0,0,0
435,1762968082312,65227,8134,210,0,0,0,0,0
436,1762968082362,65233,8136,220,0,0,0,0,0
437,1762968082429,65228,8141,218,0,0,0,0,0
438,1762968082762,65234,8144,220,0,0,0,0,0
439,1762968082812,65240,8136,212,0,0,0,0,0
440,1762968082863,65237,8136,223,0,0,0,0,0
441,1762968082896,65234,8132,218,0,0,0,0,0
442,1762968082980,65233,8135,212,0,0,0,0,0
443,1762968083113,65233,8138,207,0,0,0,0,0
444,1762968083178,65230,8136,212,0,0,0,0,0
445,1762968083345,65238,8138,216,0,0,0,0,0
446,1762968083446,65232,8134,222,0,0,0,0,0
447,1762968083644,65229,8136,217,0,0,0,0,0
448,1762968083845,65230,8137,210,0,0,0,0,0
449,1762968083945,65234,8137,219,0,0,0,0,0
450,1762968083995,65233,8130,216,0,0,0,0,0
451,1762968084128,65232,8136,212,0,0,0,0,0
452,1762968084195,65240,8139,222,0,0,0,0,0
453,1762968084245,65233,8140,216,0,0,0,0,0
454,1762968084328,65237,8139,216,0,0,0,0,0
455,1762968084378,65228,8137,223,0,0,0,0,0
456,1762968084412,65238,8136,208,0,0,0,0,0
457,1762968084478,65234,8131,208,0,0,0,0,0
458,1762968084528,65233,8138,213,33191,0,0,0,0
459,1762968084611,65233,8138,216,0,0,0,0,0
460,1762968084646,65224,8139,217,0,0,0,0,0
461,1762968084711,65242,8138,210,0,0,0,0,0
462,1762968084760,65227,8135,220,0,0,0,0,0
463,1762968084844,65232,8143,221,0,0,0,0,0
464,1762968084960,65230,8136,218,0,0,0,0,0
465,1762968085010,65226,8131,218,0,0,0,0,0
466,1762968085077,65240,8141,219,0,0,0,0,0
467,1762968085109,65238,8134,217,0,0,0,0,0
468,1762968085243,65236,8133,226,0,0,0,0,0
469,1762968085293,65232,8138,216,0,0,0,0,0
470,1762968085360,65232,8132,214,0,0,0,0,0
471,1762968085410,65231,8137,212,3.28,0,0,0,0
472,1762968085526,65230,8141,219,0,0,0,0,0
473,1762968085610,65235,8143,217,0,0,0,0,0
474,1762968085644,65236,8138,217,0,0,0,0,0
475,1762968085760,65240,8130,206,0,0,0,0,0
476,1762968085843,65229,8134,219,0,0,0,0,0
477,1762968085943,65232,8133,222,0,0,0,0,0
478,1762968086011,65227,8137,224,0,0,0,0,0
479,1762968086143,65231,8142,224,0,0,0,0,0
480,1762968086177,65227,8140,216,0,0,0,0,0
481,1762968086242,65233,8135,211,0,0,0,0,0
482,1762968086309,65232,8140,215,0,0,0,0,0
483,1762968086442,65226,8140,218,0,0,0,0,0
484,1762968086509,65232,8144,218,0,0,0,0,0
485,1762968086559,65237,8135,220,0,0,0,0,0
486,1762968086626,65234,8139,220,0,0,0,0,0
487,1762968086742,65240,8140,228,0,0,0,0,0
488,1762968086875,65230,8135,219,0,0,0,0,0
489,1762968086992,65234,8136,217,0,0,0,0,0
490,1762968087058,65227,8143,210,0,0,0,0,0
491,1762968087109,65239,8130,212,0,0,0,0,0
492,1762968087225,65233,8135,211,0,0,0,0,0
493,1762968087308,65230,8125,222,0,0,0,0,0
494,1762968087408,65238,8136,216,0,0,0,0,0
495,1762968087541,65230,8138,214,0,0,0,0,0
496,1762968087609,65238,8134,216,0,0,0,0,0
497,1762968087658,65234,8139,210,0,0,0,0,0
498,1762968087726,65236,8132,220,33191,0,0,0,0
499,1762968087791,65232,8138,215,0,0,0,0,0
500,1762968087841,65236,8132,214,0,0,0,0,0
501,1762968087957,65232,8133,211,0,0,0,0,0
502,1762968088024,65234,8140,209,0,0,0,0,0
503,1762968088192,65235,8132,205,0,0,0,0,0
504,1762968088259,65231,8126,220,0,0,0,0,0
505,1762968088325,65232,8129,219,0,0,0,0,0
506,1762968088408,65234,8138,221,0,0,0,0,0
507,1762968088457,65241,8136,212,0,0,0,0,0
508,1762968088509,65226,8134,225,0,0,0,0,0
509,1762968088558,65232,8140,212,0,0,0,0,0
510,1762968088641,65228,8136,214,33191,0,0,0,0
511,1762968088707,65231,8140,212,0,0,0,0,0
512,1762968088741,65238,8133,216,0,0,0,0,0
513,1762968088809,65232,8136,224,0,0,0,0,0
514,1762968088857,65241,8138,217,0,0,0,0,0
515,1762968088925,65230,8138,209,0,0,0,0,0
516,1762968088973,65228,8137,217,0,0,0,0,0
517,1762968089041,65234,8136,212,0,0,0,0,0
518,1762968089124,65230,8139,210,0,0,0,0,0
519,1762968089156,65231,8139,211,0,0,0,0,0
520,1762968089223,65230,8132,210,0,0,0,0,0
521,1762968089273,65239,8134,222,0,0,0,0,0
522,1762968089356,65244,8145,217,0,0,0,0,0
523,1762968089389,65227,8142,209,0,0,0,0,0
524,1762968089523,65238,8133,220,32757,0,0,0,0
525,1762968089590,65241,8137,212,0,0,0,0,0
526,1762968089624,65230,8136,211,0,0,0,0,0
527,1762968089689,65233,8145,219,0,0,0,0,0
528,1762968089756,65233,8137,213,0,0,0,0,0
529,1762968089807,65232,8138,219,0,0,0,0,0
530,1762968089873,65235,8139,218,0,0,0,0,0
531,1762968089923,65229,8135,218,0,0,0,0,0
532,1762968090023,65236,8139,215,0,0,0,0,0
533,1762968090056,65236,8139,219,0,0,0,0,0
534,1762968090123,65234,8140,220,0,0,0,0,0
535,1762968090173,65234,8139,214,0,0,0,0,0
536,1762968090239,65232,8137,217,0,0,0,0,0
537,1762968090323,65238,8138,217,0,0,0,0,0
538,1762968090355,65241,8138,212,0,0,0,0,0
539,1762968090422,65233,8140,216,0,0,0,0,0
540,1762968090489,65236,8142,212,0,0,0,0,0
541,1762968090605,65238,8134,217,0,0,0,0,0
542,1762968090688,65228,8139,218,0,0,0,0,0
543,1762968090722,65233,8134,208,0,0,0,0,0
544,1762968090789,65238,8134,215,0,0,0,0,0
545,1762968090838,65237,8136,215,0,0,0,0,0
546,1762968090922,65234,8140,209,33191,0,0,0,0
547,1762968090955,65231,8141,214,0,0,0,0,0
548,1762968091005,65236,8139,221,0,0,0,0,0
549,1762968091071,65238,8137,210,0,0,0,0,0
550,1762968091139,65234,8146,215,0,0,0,0,0
551,1762968091188,65227,8135,213,0,0,0,0,0
552,1762968091238,65238,8139,221,0,0,0,0,0
553,1762968091305,65232,8134,214,0,0,0,0,0
554,1762968091455,65233,8138,214,0,0,0,0,0
555,1762968091473,65231,8138,214,0,0,0,0,0
556,1762968091556,65242,8141,217,0,0,0,0,0
557,1762968091588,65234,8137,220,0,0,0,0,0
558,1762968091704,65232,8138,212,0,0,0,0,0
559,1762968091721,65236,8137,214,0,0,0,0,0
560,1762968091787,65233,8138,211,0,0,0,0,0
561,1762968091855,65236,8141,215,0,0,0,0,0
562,1762968091904,65237,8135,231,0,0,0,0,0
563,1762968091954,65239,8142,205,0,0,0,0,0
564,1762968092004,65236,8138,221,0,0,0,0,0
565,1762968092087,65234,8136,216,0,0,0,0,0
566,1762968092121,65232,8139,220,0,0,0,0,0
567,1762968092204,65231,8138,214,0,0,0,0,0
568,1762968092237,65230,8138,220,3.28,0,0,0,0
569,1762968092354,65232,8138,220,0,0,0,0,0
570,1762968092370,65233,8143,214,0,0,0,0,0
571,1762968092437,65236,8135,217,0,0,0,0,0
572,1762968092471,65230,8133,216,0,0,0,0,0
573,1762968092554,65234,8129,216,0,0,0,0,0
574,1762968092604,65231,8134,211,0,0,0,0,0
575,1762968092670,65234,8128,215,0,0,0,0,0
576,1762968092787,65240,8138,223,0,0,0,0,0
577,1762968092903,65233,8140,212,0,0,0,0,0
578,1762968092971,65234,8147,216,0,0,0,0,0
579,1762968093020,65241,8130,210,0,0,0,0,0
580,1762968093136,65238,8136,210,0,0,0,0,0
581,1762968093220,65236,8126,211,0,0,0,0,0
582,1762968093286,65233,8135,217,0,0,0,0,0
583,1762968093337,65234,8141,208,0,0,0,0,0
584,1762968093386,65232,8142,216,0,0,0,0,0
585,1762968093437,65242,8133,212,0,0,0,0,0
586,1762968093520,65218,8138,219,0,0,0,0,0
587,1762968093554,65229,8140,210,0,0,0,0,0
588,1762968093670,65238,8136,208,0,0,0,0,0
589,1762968093703,65238,8138,213,0,0,0,0,0
590,1762968093769,65228,8134,212,0,0,0,0,0
591,1762968093804,65228,8138,214,0,0,0,0,0
592,1762968093870,65232,8141,214,0,0,0,0,0
593,1762968093919,65232,8145,206,0,0,0,0,0
594,1762968093986,65235,8135,221,0,0,0,0,0
595,1762968094036,65228,8138,216,0,0,0,0,0
596,1762968094102,65233,8136,210,33192,0,0,0,0
597,1762968094219,65238,8136,222,0,0,0,0,0
598,1762968094302,65229,8136,210,0,0,0,0,0
599,1762968094335,65236,8135,208,0,0,0,0,0
600,1762968094468,65232,8143,214,0,0,0,0,0
601,1762968094535,65234,8145,222,3.28,0,0,0,0
602,1762968094602,65237,8138,210,0,0,0,0,0
603,1762968094735,65226,8136,205,0,0,0,0,0
604,1762968094769,65236,8137,220,0,0,0,0,0
605,1762968094835,65233,8136,215,0,0,0,0,0
606,1762968094884,65238,8138,227,0,0,0,0,0
607,1762968094936,65233,8135,211,0,0,0,0,0
608,1762968095002,65230,8135,222,3.32,0,0,0,0
609,1762968095085,65234,8133,218,0,0,0,0,0
610,1762968095118,65238,8134,216,0,0,0,0,0
611,1762968095185,65236,8144,222,0,0,0,0,0
612,1762968095236,65244,8137,214,0,0,0,0,0
613,1762968095301,65236,8138,213,0,0,0,0,0
614,1762968095351,65232,8144,215,0,0,0,0,0
615,1762968095418,65234,8134,217,0,0,0,0,0
616,1762968095501,65226,8132,213,0,0,0,0,0
617,1762968095535,65231,8139,215,0,0,0,0,0
618,1762968095636,65233,8135,215,0,0,0,0,0
619,1762968095668,65230,8134,217,0,0,0,0,0
620,1762968095751,65229,8134,220,0,0,0,0,0
621,1762968095785,65229,8141,222,0,0,0,0,0
622,1762968095851,65228,8134,218,0,0,0,0,0
623,1762968095969,65238,8136,215,0,0,0,0,0
624,1762968096035,65236,8136,213,0,0,0,0,0
625,1762968096084,65234,8132,214,0,0,0,0,0
626,1762968096151,65234,8135,210,0,0,0,0,0
627,1762968096201,65222,8138,219,0,0,0,0,0
628,1762968096267,65226,8138,216,0,0,0,0,0
629,1762968096317,65233,8134,218,0,0,0,0,0
630,1762968096400,65234,8136,218,0,0,0,0,0
631,1762968096451,65237,8135,219,0,0,0,0,0
632,1762968096517,65240,8136,214,0,0,0,0,0
633,1762968096551,65229,8140,222,0,0,0,0,0
634,1762968096635,65226,8139,219,0,0,0,0,0
635,1762968096684,65235,8136,216,0,0,0,0,0
636,1762968096734,65238,8130,211,0,0,0,0,0
637,1762968096800,65238,8134,216,0,0,0,0,0
638,1762968096852,65235,8140,212,0,0,0,0,0
639,1762968096933,65232,8140,210,0,0,0,0,0
640,1762968096967,65231,8134,213,0,0,0,0,0
641,1762968097033,65234,8139,214,0,0,0,0,0
642,1762968097083,65234,8141,216,0,0,0,0,0
643,1762968097166,65226,8136,220,0,0,0,0,0
644,1762968097199,65237,8138,222,0,0,0,0,0
645,1762968097300,65234,8139,224,33191,0,0,0,0
646,1762968097334,65239,8136,220,0,0,0,0,0
647,1762968097399,65224,8138,223,0,0,0,0,0
648,1762968097467,65240,8133,214,0,0,0,0,0
649,1762968097517,65231,8136,212,0,0,0,0,0
650,1762968097599,65238,8140,222,0,0,0,0,0
651,1762968097634,65233,8130,214,0,0,0,0,0
652,1762968097718,65230,8136,217,0,0,0,0,0
653,1762968097767,65240,8135,221,0,0,0,0,0
654,1762968097883,65239,8131,218,0,0,0,0,0
655,1762968097950,65228,8140,206,0,0,0,0,0
656,1762968097999,65229,8137,215,0,0,0,0,0
657,1762968098050,65228,8133,221,0,0,0,0,0
658,1762968098116,65230,8138,212,0,0,0,0,0
659,1762968098166,65234,8142,226,3.32,0,0,0,0
660,1762968098299,65232,8133,220,0,0,0,0,0
661,1762968098383,65231,8138,221,0,0,0,0,0
662,1762968098400,65234,8139,213,0,0,0,0,0
663,1762968098499,65235,8133,212,0,0,0,0,0
664,1762968098516,65228,8137,213,0,0,0,0,0
665,1762968098599,65235,8134,211,0,0,0,0,0
666,1762968098666,65235,8141,211,0,0,0,0,0
667,1762968098716,65237,8138,223,0,0,0,0,0
668,1762968098765,65235,8132,218,0,0,0,0,0
669,1762968098815,65236,8134,220,0,0,0,0,0
670,1762968098899,65236,8134,216,0,0,0,0,0
671,1762968098949,65239,8142,216,0,0,0,0,0
672,1762968099016,65238,8136,216,0,0,0,0,0
673,1762968099065,65229,8134,211,0,0,0,0,0
674,1762968099149,65238,8137,220,0,0,0,0,0
675,1762968099182,65230,8138,219,0,0,0,0,0
676,1762968099265,65235,8138,217,0,0,0,0,0
677,1762968099298,65232,8141,210,0,0,0,0,0
678,1762968099365,65224,8138,218,0,0,0,0,0
679,1762968099416,65236,8138,225,0,0,0,0,0
680,1762968099482,65231,8139,212,0,0,0,0,0
681,1762968099582,65234,8133,216,0,0,0,0,0
682,1762968099615,65232,8131,215,0,0,0,0,0
683,1762968099732,65228,8139,218,0,0,0,0,0
684,1762968099814,65232,8141,217,0,0,0,0,0
685,1762968099847,65229,8142,217,0,0,0,0,0
686,1762968099915,65232,8145,216,0,0,0,0,0
687,1762968099948,65234,8141,209,0,0,0,0,0
688,1762968100047,65235,8142,211,0,0,0,0,0
689,1762968100099,65240,8136,220,0,0,0,0,0
690,1762968100147,65247,8143,215,0,0,0,0,0
691,1762968100214,65230,8139,214,0,0,0,0,0
692,1762968100265,65226,8134,219,0,0,0,0,0
693,1762968100364,65234,8138,223,0,0,0,0,0
694,1762968100398,65235,8137,220,0,0,0,0,0
695,1762968100481,65232,8135,216,3.26,0,0,0,0
696,1762968100531,65232,8131,222,0,0,0,0,0
697,1762968100597,65232,8132,217,0,0,0,0,0
698,1762968100648,65229,8139,216,0,0,0,0,0
699,1762968100714,65238,8137,218,0,0,0,0,0
700,1762968100764,65232,8135,213,0,0,0,0,0
701,1762968100814,65236,8142,219,0,0,0,0,0
702,1762968100881,65225,8140,216,0,0,0,0,0
703,1762968100930,65236,8130,217,33191,0,0,0,0
704,1762968100997,65236,8126,210,0,0,0,0,0
705,1762968101047,65229,8128,209,0,0,0,0,0
706,1762968101114,65236,8140,212,0,0,0,0,0
707,1762968101163,65232,8141,215,0,0,0,0,0
708,1762968101246,65235,8136,208,0,0,0,0,0
709,1762968101263,65236,8134,217,0,0,0,0,0
710,1762968101363,65226,8140,219,0,0,0,0,0
711,1762968101414,65233,8137,208,0,0,0,0,0
712,1762968101463,65238,8140,221,0,0,0,0,0
713,1762968101513,65230,8137,213,0,0,0,0,0
714,1762968101580,65242,8134,217,0,0,0,0,0
715,1762968101630,65238,8139,213,0,0,0,0,0
716,1762968101696,65233,8145,213,0,0,0,0,0
717,1762968101780,65232,8135,216,0,0,0,0,0
718,1762968101913,65228,8132,220,0,0,0,0,0
719,1762968101996,65226,8133,213,0,0,0,0,0
720,1762968102029,65228,8124,212,0,0,0,0,0
721,1762968102112,65230,8134,222,0,0,0,0,0
722,1762968102146,65237,8130,217,0,0,0,0,0
723,1762968102229,65230,8135,223,0,0,0,0,0
724,1762968102296,65228,8130,216,0,0,0,0,0
725,1762968102347,65228,8131,221,0,0,0,0,0
726,1762968102412,65228,8133,208,0,0,0,0,0
727,1762968102463,65228,8132,216,0,0,0,0,0
728,1762968102529,65230,8142,221,0,0,0,0,0
729,1762968102578,65236,8139,224,0,0,0,0,0
730,1762968102628,65230,8141,211,0,0,0,0,0
731,1762968102695,65229,8141,213,0,0,0,0,0
732,1762968102795,65231,8137,215,0,0,0,0,0
733,1762968102845,65230,8138,208,0,0,0,0,0
734,1762968102878,65228,8134,211,0,0,0,0,0
735,1762968102912,65234,8137,220,0,0,0,0,0
736,1762968102994,65229,8132,215,0,0,0,0,0
737,1762968103028,65225,8143,214,0,0,0,0,0
738,1762968103111,65231,8138,214,0,0,0,0,0
739,1762968103146,65234,8136,216,0,0,0,0,0
740,1762968103245,65242,8142,212,0,0,0,0,0
741,1762968103278,65228,8130,220,0,0,0,0,0
742,1762968103344,65232,8144,215,0,0,0,0,0
743,1762968103394,65238,8141,224,0,0,0,0,0
744,1762968103444,65240,8140,207,0,0,0,0,0
745,1762968103511,65234,8140,210,0,0,0,0,0
746,1762968103561,65228,8139,222,0,0,0,0,0
747,1762968103644,65235,8138,211,0,0,0,0,0
748,1762968103711,65228,8136,210,0,0,0,0,0
749,1762968103795,65223,8140,217,0,0,0,0,0
750,1762968103894,65234,8136,221,0,0,0,0,0
751,1762968103927,65237,8142,222,0,0,0,0,0
752,1762968103994,65238,8135,212,0,0,0,0,0
753,1762968104027,65233,8137,220,0,0,0,0,0
754,1762968104127,65233,8137,212,3.32,0,0,0,0
755,1762968104177,65234,8140,217,0,0,0,0,0
756,1762968104211,65239,8142,217,0,0,0,0,0
757,1762968104294,65235,8136,220,0,0,0,0,0
758,1762968104327,65233,8140,213,0,0,0,0,0
759,1762968104410,65232,8138,212,0,0,0,0,0
760,1762968104444,65234,8134,212,0,0,0,0,0
761,1762968104528,65244,8139,204,0,0,0,0,0
762,1762968104577,65230,8132,210,33192,0,0,0,0
763,1762968104644,65233,8138,216,0,0,0,0,0
764,1762968104693,65235,8140,215,0,0,0,0,0
765,1762968104777,65233,8133,218,0,0,0,0,0
766,1762968104809,65235,8133,215,0,0,0,0,0
767,1762968104893,65228,8131,215,0,0,0,0,0
768,1762968104927,65228,8140,226,0,0,0,0,0
769,1762968105043,65237,8142,212,0,0,0,0,0
770,1762968105093,65229,8139,216,0,0,0,0,0
771,1762968105161,65232,8137,208,0,0,0,0,0
772,1762968105210,65234,8133,216,0,0,0,0,0
773,1762968105276,65239,8133,218,0,0,0,0,0
774,1762968105326,65235,8135,211,0,0,0,0,0
775,1762968105410,65218,8131,216,0,0,0,0,0
776,1762968105443,65229,8140,216,0,0,0,0,0
777,1762968105627,65236,8140,217,0,0,0,0,0
778,1762968105776,65228,8139,220,0,0,0,0,0
779,1762968105861,65232,8137,214,0,0,0,0,0
780,1762968105993,65229,8132,208,0,0,0,0,0
781,1762968106110,65230,8139,215,0,0,0,0,0
782,1762968106159,65232,8132,200,0,0,0,0,0
783,1762968106209,65228,8136,218,0,0,0,0,0
784,1762968106292,65236,8138,206,0,0,0,0,0
785,1762968106326,65226,8133,217,0,0,0,0,0
786,1762968106426,65233,8142,216,0,0,0,0,0
787,1762968106510,65238,8137,217,0,0,0,0,0
788,1762968106577,65238,8135,210,0,0,0,0,0
789,1762968106626,65234,8136,214,0,0,0,0,0
790,1762968106675,65236,8140,211,0,0,0,0,0
791,1762968106743,65229,8133,219,0,0,0,0,0
792,1762968106808,65235,8134,214,0,0,0,0,0
793,1762968106926,65231,8136,222,0,0,0,0,0
794,1762968106960,65237,8132,213,0,0,0,0,0
795,1762968107043,65231,8136,218,0,0,0,0,0
796,1762968107092,65229,8141,216,0,0,0,0,0
797,1762968107192,65234,8131,214,0,0,0,0,0
798,1762968107258,65229,8131,219,0,0,0,0,0
799,1762968107409,65232,8140,222,0,0,0,0,0
800,1762968107442,65229,8144,219,0,0,0,0,0
801,1762968107558,65226,8134,214,0,0,0,0,0
802,1762968107658,65228,8136,217,0,0,0,0,0
803,1762968107674,65230,8132,218,0,0,0,0,0
804,1762968107775,65231,8140,214,0,0,0,0,0
805,1762968107857,65234,8136,227,0,0,0,0,0
806,1762968107908,65234,8133,220,0,0,0,0,0
807,1762968107958,65237,8140,211,0,0,0,0,0
808,1762968108007,65230,8132,220,0,0,0,0,0
809,1762968108109,65231,8138,224,0,0,0,0,0
810,1762968108158,65236,8134,223,0,0,0,0,0
811,1762968108242,65231,8141,211,0,0,0,0,0
812,1762968108290,65236,8138,214,0,0,0,0,0
813,1762968108490,65231,8135,220,0,0,0,0,0
814,1762968108508,65230,8138,216,0,0,0,0,0
815,1762968108574,65236,8132,220,0,0,0,0,0
816,1762968108624,65233,8129,211,0,0,0,0,0
817,1762968108857,65244,8134,224,0,0,0,0,0
818,1762968108940,65233,8136,216,0,0,0,0,0
819,1762968109141,65238,8142,210,0,0,0,0,0
820,1762968109423,65242,8134,217,0,0,0,0,0
821,1762968109773,65240,8134,213,0,0,0,0,0
822,1762968109972,65235,8137,213,0,0,0,0,0
823,1762968110039,65229,8138,212,0,0,0,0,0
824,1762968110123,65238,8140,211,0,0,0,0,0
825,1762968110156,65234,8136,204,0,0,0,0,0
826,1762968110273,65237,8132,225,0,0,0,0,0
827,1762968110324,65228,8134,208,0,0,0,0,0
828,1762968110372,65236,8138,212,0,0,0,0,0
829,1762968110456,65227,8133,221,0,0,0,0,0
830,1762968110506,65236,8138,211,33144,0,0,0,0
831,1762968111055,65236,8140,218,0,0,0,0,0
832,1762968111222,65232,8135,217,0,0,0,0,0
833,1762968111255,65229,8136,214,0,0,0,0,0
834,1762968111655,65240,8132,225,0,0,0,0,0
835,1762968112538,65234,8140,222,0,0,0,0,0
836,1762968112687,65228,8130,213,0,0,0,0,0
837,1762968112771,65231,8140,211,0,0,0,0,0
838,1762968112937,65234,8138,221,0,0,0,0,0
839,1762968113037,65226,8130,216,0,0,0,0,0
840,1762968113103,65232,8137,222,0,0,0,0,0
841,1762968113137,65244,8130,213,0,0,0,0,0
842,1762968113204,65240,8130,215,3.31,0,0,0,0
843,1762968113254,65225,8131,217,0,0,0,0,0
844,1762968113370,65237,8137,210,0,0,0,0,0
845,1762968113471,65228,8136,224,0,0,0,0,0
846,1762968113536,65226,8134,212,0,0,0,0,0
847,1762968113570,65236,8135,216,0,0,0,0,0
848,1762968113654,65234,8136,219,0,0,0,0,0
849,1762968113753,65234,8136,219,33193,0,0,0,0
850,1762968113804,65235,8128,220,0,0,0,0,0
851,1762968113853,65232,8139,213,0,0,0,0,0
852,1762968113903,65225,8134,218,0,0,0,0,0
853,1762968113936,65241,8136,214,0,0,0,0,0
854,1762968114004,65241,8140,206,0,0,0,0,0
855,1762968114053,65234,8142,214,0,0,0,0,0
856,1762968114169,65228,8135,213,0,0,0,0,0
857,1762968114236,65229,8139,215,0,0,0,0,0
858,1762968114270,65230,8140,222,0,0,0,0,0
859,1762968114336,65231,8140,222,0,0,0,0,0
860,1762968114386,65238,8141,223,0,0,0,0,0
861,1762968114486,65231,8136,224,0,0,0,0,0
862,1762968114553,65232,8133,216,0,0,0,0,0
863,1762968114619,65236,8129,223,0,0,0,0,0
864,1762968114652,65238,8138,212,0,0,0,0,0
865,1762968114719,65229,8134,209,0,0,0,0,0
866,1762968114786,65229,8138,217,0,0,0,0,0
867,1762968114818,65236,8139,220,0,0,0,0,0
868,1762968114902,65243,8139,210,0,0,0,0,0
869,1762968114918,65242,8130,215,0,0,0,0,0
870,1762968114985,65234,8137,210,0,0,0,0,0
871,1762968115035,65235,8129,214,33139,0,0,0,0
872,1762968115102,65237,8136,216,0,0,0,0,0
873,1762968115136,65232,8141,218,0,0,0,0,0
874,1762968115219,65240,8136,216,0,0,0,0,0
875,1762968115235,65234,8128,218,0,0,0,0,0
876,1762968115318,65232,8135,208,0,0,0,0,0
877,1762968115352,65237,8136,208,0,0,0,0,0
878,1762968115434,65234,8145,220,0,0,0,0,0
879,1762968115451,65226,8133,220,0,0,0,0,0
880,1762968115552,65236,8131,216,0,0,0,0,0
881,1762968115568,65234,8143,216,0,0,0,0,0
882,1762968115651,65227,8131,216,0,0,0,0,0
883,1762968115669,65231,8132,214,0,0,0,0,0
884,1762968115768,65235,8134,214,0,0,0,0,0
885,1762968115784,65233,8131,216,0,0,0,0,0
886,1762968115867,65238,8135,216,0,0,0,0,0
887,1762968115884,65232,8135,214,0,0,0,0,0
888,1762968115985,65232,8142,217,0,0,0,0,0
889,1762968116017,65226,8144,210,0,0,0,0,0
890,1762968116084,65238,8140,224,0,0,0,0,0
891,1762968116118,65232,8133,217,0,0,0,0,0
892,1762968116201,65237,8136,214,0,0,0,0,0
893,1762968116217,65232,8135,216,0,0,0,0,0
894,1762968116284,65227,8138,218,0,0,0,0,0
895,1762968116317,65233,8140,216,0,0,0,0,0
896,1762968116451,65234,8138,217,0,0,0,0,0
897,1762968116467,65238,8135,228,0,0,0,0,0
898,1762968116517,65238,8138,220,0,0,0,0,0
899,1762968116550,65240,8136,218,0,0,0,0,0
900,1762968116634,65232,8134,214,0,0,0,0,0
901,1762968116667,65234,8140,212,0,0,0,0,0
902,1762968116751,65232,8135,216,0,0,0,0,0
903,1762968116784,65239,8135,210,0,0,0,0,0
904,1762968116851,65231,8136,222,0,0,0,0,0
905,1762968116901,65232,8133,225,0,0,0,0,0
906,1762968117000,65234,8138,213,0,0,0,0,0
907,1762968117101,65234,8133,218,0,0,0,0,0
908,1762968117134,65236,8140,211,0,0,0,0,0
909,1762968117183,65224,8135,207,0,0,0,0,0
910,1762968117200,65236,8133,209,0,0,0,0,0
911,1762968117332,65234,8134,218,33192,0,0,0,0
912,1762968117434,65230,8138,214,0,0,0,0,0
913,1762968117450,65229,8144,212,0,0,0,0,0
914,1762968117501,65240,8139,220,0,0,0,0,0
915,1762968117550,65226,8139,212,0,0,0,0,0
916,1762968117649,65230,8132,210,0,0,0,0,0
917,1762968117716,65237,8140,209,0,0,0,0,0
918,1762968117766,65232,8131,211,3.28,0,0,0,0
919,1762968117833,65230,8132,222,0,0,0,0,0
920,1762968117882,65230,8135,212,0,0,0,0,0
921,1762968117933,65235,8135,211,0,0,0,0,0
922,1762968117966,65231,8137,218,0,0,0,0,0
923,1762968118033,65232,8136,214,0,0,0,0,0
924,1762968118083,65235,8130,220,0,0,0,0,0
925,1762968118134,65242,8134,215,0,0,0,0,0
926,1762968118199,65232,8135,214,0,0,0,0,0
927,1762968118249,65220,8130,210,0,0,0,0,0
928,1762968118299,65256,8141,216,0,0,0,0,0
929,1762968118349,65243,8142,222,0,0,0,0,0
930,1762968118449,65208,8134,218,0,0,0,0,0
931,1762968118465,65208,8126,212,0,0,0,0,0
932,1762968118568,65256,8141,211,0,0,0,0,0
933,1762968118683,65207,8124,204,3.31,0,0,0,0
934,1762968118732,65250,8143,221,0,0,0,0,0
935,1762968118800,65260,8141,206,0,0,0,0,0
936,1762968118849,65212,8129,227,0,0,0,0,0
937,1762968118900,65212,8134,205,0,0,0,0,0
938,1762968118949,65265,8149,228,0,0,0,0,0
939,1762968119000,65230,8140,215,0,0,0,0,0
940,1762968119065,65212,8130,228,0,0,0,0,0
941,1762968119199,65259,8141,228,0,0,0,0,0
942,1762968119316,65208,8128,226,0,0,0,0,0
943,1762968119498,65236,8131,222,0,0,0,0,0
944,1762968119532,65226,8138,199,0,0,0,0,0
945,1762968119631,65218,8134,216,0,0,0,0,0
946,1762968119683,65265,8139,200,0,0,0,0,0
947,1762968119731,65211,8129,232,0,0,0,0,0
948,1762968119782,65220,8130,193,0,0,0,0,0
949,1762968119849,65245,8150,218,1,0,0,0,0
950,1762968119915,65244,8135,203,0,0,0,0,0
951,1762968119948,65210,8130,223,0,0,0,0,0
952,1762968120014,65200,8126,234,0,0,0,0,0
953,1762968120064,65295,8170,236,0,0,0,0,0
954,1762968120147,65240,8146,202,0,0,0,0,0
955,1762968120181,65191,8132,231,0,0,0,0,0
956,1762968120264,65254,8135,212,0,0,0,0,0
957,1762968120314,65256,8132,229,0,0,0,0,0
958,1762968120397,65206,8139,218,0,0,0,0,0
959,1762968120430,65208,8128,207,0,0,0,0,0
960,1762968120497,65252,8150,232,32731,0,0,0,0
961,1762968120563,65257,8145,213,0,0,0,0,0
962,1762968120614,65206,8122,221,0,0,0,0,0
963,1762968120664,65212,8132,220,0,0,0,0,0
964,1762968120714,65261,8141,226,0,0,0,0,0
965,1762968120830,65220,8136,220,0,0,0,0,0
966,1762968120881,65221,8126,208,0,0,0,0,0
967,1762968120947,65256,8154,212,3.27,0,0,0,0
968,1762968121030,65235,8136,215,0,0,0,0,0
969,1762968121064,65225,8130,216,0,0,0,0,0
970,1762968121147,65226,8132,216,0,0,0,0,0
971,1762968121180,65245,8136,205,0,0,0,0,0
972,1762968121263,65231,8141,211,0,0,0,0,0
973,1762968121296,65217,8130,216,0,0,0,0,0
974,1762968121381,65227,8131,215,0,0,0,0,0
975,1762968121447,65248,8144,217,0,0,0,0,0
976,1762968121479,65223,8138,213,0,0,0,0,0
977,1762968121564,65221,8129,214,0,0,0,0,0
978,1762968121680,65244,8136,217,0,0,0,0,0
979,1762968121713,65236,8138,219,0,0,0,0,0
980,1762968121831,65236,8136,213,0,0,0,0,0
981,1762968121929,65240,8140,213,0,0,0,0,0
982,1762968121946,65226,8140,216,0,0,0,0,0
983,1762968122029,65226,8130,209,0,0,0,0,0
984,1762968122063,65247,8135,212,0,0,0,0,0
985,1762968122146,65241,8140,218,0,0,0,0,0
986,1762968122196,65225,8122,219,0,0,0,0,0
987,1762968122247,65234,8131,220,0,0,0,0,0
988,1762968122312,65236,8140,217,0,0,0,0,0
989,1762968122379,65224,8140,211,0,0,0,0,0
990,1762968122445,65223,8136,216,0,0,0,0,0
991,1762968122496,65240,8129,220,0,0,0,0,0
992,1762968122579,65243,8132,209,0,0,0,0,0
993,1762968122612,65235,8138,216,0,0,0,0,0
994,1762968122712,65226,8128,209,0,0,0,0,0
995,1762968122845,65232,8132,220,0,0,0,0,0
996,1762968122913,65228,8128,215,0,0,0,0,0
997,1762968122929,65238,8136,216,0,0,0,0,0
998,1762968123028,65236,8141,217,0,0,0,0,0
999,1762968123095,65232,8129,208,0,0,0,0,0
1000,1762968123145,65236,8133,213,0,0,0,0,0
1001,1762968123228,65242,8132,217,3.32,0,0,0,0
1002,1762968123262,65232,8131,214,0,0,0,0,0
1003,1762968123345,65232,8133,222,0,0,0,0,0
1004,1762968123378,65234,8138,215,0,0,0,0,0
1005,1762968123495,65239,8128,217,0,0,0,0,0
1006,1762968123563,65231,8144,210,0,0,0,0,0
1007,1762968123594,65230,8133,206,0,0,0,0,0
1008,1762968123678,65240,8132,214,0,0,0,0,0
1009,1762968123761,65230,8137,218,0,0,0,0,0
1010,1762968123845,65229,8137,213,0,0,0,0,0
1011,1762968123862,65236,8133,212,0,0,0,0,0
1012,1762968123912,65234,8134,216,0,0,0,0,0
1013,1762968123961,65235,8132,206,0,0,0,0,0
1014,1762968124027,65235,8136,212,0,0,0,0,0
1015,1762968124078,65245,8133,207,0,0,0,0,0
1016,1762968124145,65241,8137,220,3.26,0,0,0,0
1017,1762968124229,65224,8134,216,0,0,0,0,0
1018,1762968124262,65227,8135,216,0,0,0,0,0
1019,1762968124328,65234,8136,216,0,0,0,0,0
1020,1762968124377,65234,8141,218,1,0,0,0,0
1021,1762968124445,65230,8138,213,0,0,0,0,0
1022,1762968124477,65226,8136,216,0,0,0,0,0
1023,1762968124545,65238,8142,220,0,0,0,0,0
1024,1762968124611,65238,8141,212,0,0,0,0,0
1025,1762968124677,65236,8136,222,0,0,0,0,0
1026,1762968124744,65232,8134,210,0,0,0,0,0
1027,1762968124794,65237,8140,216,0,0,0,0,0
1028,1762968124861,65230,8136,212,0,0,0,0,0
1029,1762968124912,65230,8136,214,0,0,0,0,0
1030,1762968124960,65236,8140,224,0,0,0,0,0
1031,1762968125010,65232,8133,215,0,0,0,0,0
1032,1762968125094,65233,8136,206,0,0,0,0,0
1033,1762968125127,65228,8131,209,0,0,0,0,0
1034,1762968125211,65235,8132,212,0,0,0,0,0
1035,1762968125243,65240,8132,212,0,0,0,0,0
1036,1762968125328,65237,8137,216,0,0,0,0,0
1037,1762968125361,65230,8134,210,0,0,0,0,0
1038,1762968125478,65231,8136,213,0,0,0,0,0
1039,1762968125561,65235,8140,214,0,0,0,0,0
1040,1762968125661,65224,8137,208,0,0,0,0,0
1041,1762968125793,65237,8140,212,0,0,0,0,0
1042,1762968125909,65232,8135,214,0,0,0,0,0
1043,1762968125992,65220,8138,205,0,0,0,0,0
1044,1762968126059,65230,8137,218,0,0,0,0,0
1045,1762968126109,65232,8133,224,0,0,0,0,0
1046,1762968126177,65226,8138,214,0,0,0,0,0
1047,1762968126209,65223,8152,209,0,0,0,0,0
1048,1762968126293,65234,8120,213,0,0,0,0,0
1049,1762968126327,65238,8131,224,0,0,0,0,0
1050,1762968126426,65231,8150,212,0,0,0,0,0
1051,1762968126576,65239,8137,222,0,0,0,0,0
1052,1762968126676,65225,8139,208,0,0,0,0,0
1053,1762968126709,65230,8126,216,0,0,0,0,0
1054,1762968126760,65232,8142,212,0,0,0,0,0
1055,1762968126794,65232,8146,213,0,0,0,0,0
1056,1762968126878,65236,8124,218,3.27,0,0,0,0
1057,1762968126993,65240,8146,212,0,0,0,0,0
1058,1762968127044,65305,8119,273,0,0,0,0,0
1059,1762968127110,65272,8160,137,1,0,0,0,0
1060,1762968127161,65236,8125,142,0,0,0,0,0
1061,1762968127210,65246,8154,260,0,0,0,0,0
1062,1762968127277,65224,8131,239,0,0,0,0,0
1063,1762968127376,65241,8151,211,3.32,0,0,0,0
1064,1762968127460,65224,8132,210,0,0,0,0,0
1065,1762968127525,65244,8131,218,0,0,0,0,0
1066,1762968127592,65180,8140,268,0,0,0,0,0
1067,1762968127643,65222,8104,173,0,0,0,0,0
1068,1762968127693,65269,8139,170,0,0,0,0,0
1069,1762968127742,65251,8134,176,0,0,0,0,0
1070,1762968127858,65233,8101,160,0,0,0,0,0
1071,1762968127925,65339,8097,65126,0,0,0,0,0
1072,1762968127992,65246,8129,264,0,0,0,0,0
1073,1762968128058,65233,8128,213,0,0,0,0,0
1074,1762968128108,65222,8134,216,0,0,0,0,0
1075,1762968128159,65237,8137,219,0,0,0,0,0
1076,1762968128459,65242,8140,215,0,0,0,0,0
1077,1762968128642,65244,8138,200,0,0,0,0,0
1078,1762968128774,65235,8144,201,0,0,0,0,0
1079,1762968128858,65236,8134,224,0,0,0,0,0
1080,1762968128874,65238,8135,218,0,0,0,0,0
1081,1762968128958,65238,8127,207,0,0,0,0,0
1082,1762968129007,65232,8138,205,0,0,0,0,0
1083,1762968129058,65237,8141,211,0,0,0,0,0
1084,1762968129124,65228,8127,232,0,0,0,0,0
1085,1762968129191,65237,8132,212,0,0,0,0,0
1086,1762968129258,65242,8147,212,0,0,0,0,0
1087,1762968129308,65227,8131,216,0,0,0,0,0
1088,1762968129373,65216,8133,200,0,0,0,0,0
1089,1762968129441,65250,8141,218,0,0,0,0,0
1090,1762968129507,65241,8142,208,0,0,0,0,0
1091,1762968129624,65227,8130,211,0,0,0,0,0
1092,1762968129673,65246,8142,213,0,0,0,0,0
1093,1762968129774,65239,8132,211,0,0,0,0,0
1094,1762968129856,65240,8138,220,1,0,0,0,0
1095,1762968129957,65240,8127,200,0,0,0,0,0
1096,1762968130042,65231,8134,205,0,0,0,0,0
1097,1762968130158,65235,8132,207,0,0,0,0,0
1098,1762968130208,65232,8139,207,0,0,0,0,0
1099,1762968130275,65226,8134,211,0,0,0,0,0
1100,1762968130341,65230,8136,203,0,0,0,0,0
1101,1762968130424,65248,8138,206,0,0,0,0,0
1102,1762968130458,65234,8140,198,0,0,0,0,0
1103,1762968130507,65224,8137,212,3.28,0,0,0,0
1104,1762968130705,65233,8135,211,0,0,0,0,0
1105,1762968130823,65238,8132,214,0,0,0,0,0
1106,1762968130873,65244,8135,213,0,0,0,0,0
1107,1762968130922,65224,8136,203,0,0,0,0,0
1108,1762968131006,65227,8124,209,0,0,0,0,0
1109,1762968131055,65231,8129,207,0,0,0,0,0
1110,1762968131089,65246,8140,218,0,0,0,0,0
1111,1762968131155,65224,8135,213,0,0,0,0,0
1112,1762968131206,65230,8128,218,0,0,0,0,0
1113,1762968131272,65236,8135,204,0,0,0,0,0
1114,1762968131322,65242,8134,206,0,0,0,0,0
1115,1762968131472,65228,8137,214,0,0,0,0,0
1116,1762968131557,65224,8134,210,0,0,0,0,0
1117,1762968131623,65230,8131,213,0,0,0,0,0
1118,1762968131689,65230,8144,224,0,0,0,0,0
1119,1762968131822,65237,8128,209,0,0,0,0,0
1120,1762968131938,65240,8140,214,0,0,0,0,0
1121,1762968132038,65244,8135,212,0,0,0,0,0
1122,1762968132088,65236,8141,188,0,0,0,0,0
1123,1762968132205,65254,8154,206,0,0,0,0,0
1124,1762968132405,65222,8126,203,0,0,0,0,0
1125,1762968132488,65251,8146,205,0,0,0,0,0
1126,1762968132739,65243,8124,228,3.26,0,0,0,0
1127,1762968132756,65240,8137,204,0,0,0,0,0
1128,1762968132854,65217,8117,208,0,0,0,0,0
1129,1762968132971,65234,8128,216,0,0,0,0,0
1130,1762968133038,65224,8145,216,0,0,0,0,0
1131,1762968133088,65230,8129,217,0,0,0,0,0
1132,1762968133271,65214,8134,208,0,0,0,0,0
1133,1762968133455,65231,8135,208,0,0,0,0,0
1134,1762968133571,65244,8138,208,0,0,0,0,0
1135,1762968133722,65230,8138,210,0,0,0,0,0
1136,1762968133789,65236,8134,216,0,0,0,0,0
1137,1762968133971,65230,8144,208,0,0,0,0,0
1138,1762968134037,65231,8137,211,0,0,0,0,0
1139,1762968134137,65230,8133,206,0,0,0,0,0
1140,1762968134203,65233,8131,211,0,0,0,0,0
1141,1762968134370,65228,8140,214,3.27,0,0,0,0
1142,1762968134487,65243,8131,204,0,0,0,0,0
1143,1762968134554,65238,8146,208,0,0,0,0,0
1144,1762968134602,65230,8137,218,0,0,0,0,0
1145,1762968134688,65234,8138,209,0,0,0,0,0
1146,1762968135087,65234,8139,206,0,0,0,0,0
1147,1762968135119,65228,8140,212,0,0,0,0,0
1148,1762968135220,65236,8134,222,3.32,0,0,0,0
1149,1762968135252,65229,8142,210,0,0,0,0,0
1150,1762968135369,65235,8140,213,0,0,0,0,0
1151,1762968135435,65235,8134,212,0,0,0,0,0
1152,1762968135536,65228,8131,214,0,0,0,0,0
1153,1762968135602,65235,8144,214,0,0,0,0,0
1154,1762968135720,65239,8137,208,0,0,0,0,0
1155,1762968135836,65233,8135,209,0,0,0,0,0
1156,1762968135902,65239,8140,213,0,0,0,0,0
1157,1762968135953,65235,8138,221,0,0,0,0,0
1158,1762968136069,65231,8129,210,0,0,0,0,0
1159,1762968136202,65230,8138,204,0,0,0,0,0
1160,1762968137934,65235,8140,208,0,0,0,0,0
1161,1762968138000,65244,8137,212,0,0,0,0,0
1162,1762968138084,65234,8140,213,0,0,0,0,0
1163,1762968138117,65230,8132,216,0,0,0,0,0
1164,1762968138217,65236,8136,208,0,0,0,0,0
1165,1762968138267,65230,8137,212,0,0,0,0,0
1166,1762968138317,65233,8145,208,0,0,0,0,0
1167,1762968138401,65232,8130,218,1,0,0,0,0
1168,1762968138466,65226,8133,210,0,0,0,0,0
1169,1762968138551,65236,8132,210,0,0,0,0,0
1170,1762968138633,65232,8135,211,0,0,0,0,0
1171,1762968138718,65232,8137,214,0,0,0,0,0
1172,1762968138784,65235,8136,210,0,0,0,0,0
1173,1762968138851,65226,8138,208,0,0,0,0,0
1174,1762968138900,65233,8137,205,0,0,0,0,0
1175,1762968138982,65241,8139,207,3.32,0,0,0,0
1176,1762968138999,65238,8136,218,0,0,0,0,0
1177,1762968139083,65229,8140,218,0,0,0,0,0
1178,1762968139116,65242,8140,208,0,0,0,0,0
1179,1762968139199,65228,8134,216,0,0,0,0,0
1180,1762968139232,65230,8135,219,0,0,0,0,0
1181,1762968139299,65225,8136,214,0,0,0,0,0
1182,1762968139349,65233,8137,203,0,0,0,0,0
1183,1762968139433,65236,8136,212,33188,0,0,0,0
1184,1762968139498,65232,8135,211,0,0,0,0,0
1185,1762968139549,65236,8132,216,0,0,0,0,0
1186,1762968139616,65238,8134,210,0,0,0,0,0
1187,1762968139717,65235,8136,216,1,0,0,0,0
1188,1762968139766,65226,8136,212,0,0,0,0,0
1189,1762968139817,65235,8138,209,0,0,0,0,0
1190,1762968139898,65237,8138,205,0,0,0,0,0
1191,1762968139982,65235,8132,214,0,0,0,0,0
1192,1762968140066,65238,8139,215,0,0,0,0,0
1193,1762968140099,65236,8126,210,0,0,0,0,0
1194,1762968140182,65228,8142,207,0,0,0,0,0
1195,1762968140250,65237,8138,209,0,0,0,0,0
1196,1762968140298,65241,8137,210,0,0,0,0,0
1197,1762968140348,65229,8134,217,0,0,0,0,0
1198,1762968140415,65232,8131,212,0,0,0,0,0
1199,1762968140481,65235,8133,206,0,0,0,0,0
1200,1762968140532,65227,8133,210,0,0,0,0,0
1201,1762968140615,65228,8135,213,0,0,0,0,0
1202,1762968140665,65237,8142,219,0,0,0,0,0
1203,1762968140782,65241,8134,213,0,0,0,0,0
1204,1762968140832,65233,8130,214,0,0,0,0,0
1205,1762968140882,65242,8134,215,0,0,0,0,0
1206,1762968140915,65234,8132,210,0,0,0,0,0
1207,1762968140998,65230,8135,215,0,0,0,0,0
1208,1762968141064,65238,8136,208,0,0,0,0,0
1209,1762968141114,65238,8136,214,0,0,0,0,0
1210,1762968141181,65236,8133,212,0,0,0,0,0
1211,1762968141214,65235,8134,206,0,0,0,0,0
1212,1762968141280,65240,8145,208,0,0,0,0,0
1213,1762968141347,65239,8133,210,0,0,0,0,0
1214,1762968141397,65231,8132,198,0,0,0,0,0
1215,1762968141515,65234,8141,207,0,0,0,0,0
1216,1762968141564,65234,8138,209,0,0,0,0,0
1217,1762968141631,65234,8136,214,0,0,0,0,0
1218,1762968141664,65232,8132,200,0,0,0,0,0
1219,1762968141763,65230,8132,209,0,0,0,0,0
1220,1762968141780,65241,8130,211,0,0,0,0,0
1221,1762968141847,65234,8130,218,0,0,0,0,0
1222,1762968141897,65233,8146,208,0,0,0,0,0
1223,1762968141947,65238,8136,214,0,0,0,0,0
1224,1762968142013,65246,8132,212,0,0,0,0,0
1225,1762968142080,65233,8144,224,0,0,0,0,0
1226,1762968142114,65230,8132,214,0,0,0,0,0
1227,1762968142164,65234,8131,212,0,0,0,0,0
1228,1762968142215,65237,8135,218,0,0,0,0,0
1229,1762968142280,65234,8136,212,0,0,0,0,0
1230,1762968142330,65231,8132,216,0,0,0,0,0
1231,1762968142380,65226,8127,214,0,0,0,0,0
1232,1762968142447,65245,8138,208,0,0,0,0,0
1233,1762968142497,65229,8133,212,0,0,0,0,0
1234,1762968142547,65230,8133,204,0,0,0,0,0
1235,1762968142630,65224,8130,218,0,0,0,0,0
1236,1762968142679,65250,8133,212,0,0,0,0,0
1237,1762968142779,65242,8146,203,33189,0,0,0,0
1238,1762968142830,65223,8135,208,0,0,0,0,0
1239,1762968142863,65236,8137,216,0,0,0,0,0
1240,1762968142914,65241,8134,213,0,0,0,0,0
1241,1762968142947,65232,8138,210,1,0,0,0,0
1242,1762968143014,65236,8131,212,0,0,0,0,0
1243,1762968143045,65234,8134,216,0,0,0,0,0
1244,1762968143112,65242,8148,209,0,0,0,0,0
1245,1762968143179,65226,8141,214,3.32,0,0,0,0
1246,1762968143246,65234,8137,215,0,0,0,0,0
1247,1762968143280,65228,8135,214,0,0,0,0,0
1248,1762968143363,65236,8130,212,0,0,0,0,0
1249,1762968143397,65236,8134,210,1,0,0,0,0
1250,1762968143463,65226,8138,215,0,0,0,0,0
1251,1762968143513,65232,8143,218,0,0,0,0,0
1252,1762968143580,65232,8128,210,0,0,0,0,0
1253,1762968143629,65236,8138,212,0,0,0,0,0
1254,1762968143712,65226,8137,218,0,0,0,0,0
1255,1762968143730,65232,8137,218,0,0,0,0,0
1256,1762968143830,65234,8135,211,0,0,0,0,0
1257,1762968143846,65238,8130,216,0,0,0,0,0
1258,1762968143945,65234,8131,204,0,0,0,0,0
1259,1762968143995,65236,8136,205,0,0,0,0,0
1260,1762968144045,65244,8135,216,0,0,0,0,0
1261,1762968144095,65235,8142,204,0,0,0,0,0
1262,1762968144145,65238,8128,206,0,0,0,0,0
1263,1762968144212,65237,8134,209,0,0,0,0,0
1264,1762968144262,65238,8135,210,0,0,0,0,0
1265,1762968144311,65226,8136,217,0,0,0,0,0
1266,1762968144379,65240,8140,218,0,0,0,0,0
1267,1762968144445,65228,8137,212,0,0,0,0,0
1268,1762968144495,65235,8134,218,0,0,0,0,0
1269,1762968144562,65224,8134,220,0,0,0,0,0
1270,1762968144629,65229,8139,215,0,0,0,0,0
1271,1762968144712,65237,8136,214,0,0,0,0,0
1272,1762968144778,65234,8136,210,0,0,0,0,0
1273,1762968144828,65236,8130,218,0,0,0,0,0
1274,1762968144929,65240,8146,207,0,0,0,0,0
1275,1762968144994,65234,8133,225,0,0,0,0,0
1276,1762968145045,65226,8140,211,0,0,0,0,0
1277,1762968145094,65223,8145,215,0,0,0,0,0
1278,1762968145145,65236,8136,222,0,0,0,0,0
1279,1762968145261,65232,8132,211,0,0,0,0,0
1280,1762968145327,65231,8126,218,0,0,0,0,0
1281,1762968145394,65237,8132,216,0,0,0,0,0
1282,1762968145445,65235,8143,212,0,0,0,0,0
1283,1762968145511,65234,8130,212,0,0,0,0,0
1284,1762968145561,65229,8128,210,0,0,0,0,0
1285,1762968145627,65230,8136,204,0,0,0,0,0
1286,1762968145678,65233,8134,208,0,0,0,0,0
1287,1762968145811,65232,8136,215,33189,0,0,0,0
1288,1762968145877,65228,8134,212,0,0,0,0,0
1289,1762968145894,65236,8131,209,0,0,0,0,0
1290,1762968145927,65231,8139,206,0,0,0,0,0
1291,1762968145960,65225,8140,209,1,0,0,0,0
1292,1762968146027,65238,8134,215,0,0,0,0,0
1293,1762968146076,65236,8140,212,0,0,0,0,0
1294,1762968146127,65232,8132,206,0,0,0,0,0
1295,1762968146178,65237,8142,208,0,0,0,0,0
1296,1762968146227,65237,8129,212,0,0,0,0,0
1297,1762968146276,65237,8138,212,0,0,0,0,0
1298,1762968146344,65231,8135,207,0,0,0,0,0
1299,1762968146378,65235,8131,212,0,0,0,0,0
1300,1762968146544,65231,8133,202,0,0,0,0,0
1301,1762968146577,65239,8133,214,0,0,0,0,0
1302,1762968146776,65232,8132,206,0,0,0,0,0
1303,1762968146811,65238,8131,219,0,0,0,0,0
1304,1762968146844,65231,8129,213,0,0,0,0,0
1305,1762968146894,65241,8134,216,0,0,0,0,0
1306,1762968146961,65237,8154,198,0,0,0,0,0
1307,1762968146994,65239,8159,200,0,0,0,0,0
1308,1762968147048,65234,8122,216,0,0,0,0,0
1309,1762968147110,65224,8148,216,0,0,0,0,0
1310,1762968147160,65243,8129,211,0,0,0,0,0
1311,1762968147225,65252,8123,218,0,0,0,0,0
1312,1762968147275,65214,8143,208,0,0,0,0,0
1313,1762968147344,65232,8148,210,0,0,0,0,0
1314,1762968147393,65236,8128,214,0,0,0,0,0
1315,1762968147459,65235,8146,218,0,0,0,0,0
1316,1762968147493,65227,8136,206,0,0,0,0,0
1317,1762968147559,65226,8140,212,0,0,0,0,0
1318,1762968147575,65238,8146,211,0,0,0,0,0
1319,1762968147776,65236,8134,212,0,0,0,0,0
1320,1762968147893,65244,8140,208,0,0,0,0,0
1321,1762968147960,65227,8142,216,0,0,0,0,0
1322,1762968147992,65236,8132,215,0,0,0,0,0
1323,1762968148042,65238,8128,217,0,0,0,0,0
1324,1762968148093,65238,8141,211,0,0,0,0,0
1325,1762968148142,65228,8133,209,0,0,0,0,0
1326,1762968148209,65230,8128,206,0,0,0,0,0
1327,1762968148275,65233,8142,211,0,0,0,0,0
1328,1762968148326,65238,8137,208,0,0,0,0,0
1329,1762968148375,65238,8135,211,0,0,0,0,0
1330,1762968148443,65222,8137,203,0,0,0,0,0
1331,1762968148475,65234,8131,215,0,0,0,0,0
1332,1762968148558,65234,8138,218,0,0,0,0,0
1333,1762968148576,65238,8132,212,0,0,0,0,0
1334,1762968148675,65227,8130,218,0,0,0,0,0
1335,1762968148709,65225,8135,211,0,0,0,0,0
1336,1762968148842,65248,8141,203,0,0,0,0,0
1337,1762968148892,65236,8136,214,0,0,0,0,0
1338,1762968148941,65236,8135,212,0,0,0,0,0
1339,1762968149008,65225,8138,204,0,0,0,0,0
1340,1762968149075,65233,8132,218,0,0,0,0,0
1341,1762968149109,65232,8138,201,0,0,0,0,0
1342,1762968149192,65240,8135,216,0,0,0,0,0
1343,1762968149226,65232,8134,209,0,0,0,0,0
1344,1762968149309,65227,8129,206,0,0,0,0,0
1345,1762968149358,65239,8137,215,0,0,0,0,0
1346,1762968149425,65238,8134,207,0,0,0,0,0
1347,1762968149459,65228,8130,208,33188,0,0,0,0
1348,1762968149524,65225,8130,204,0,0,0,0,0
1349,1762968149558,65233,8128,214,0,0,0,0,0
1350,1762968149691,65237,8140,213,0,0,0,0,0
1351,1762968149741,65224,8136,204,1,0,0,0,0
1352,1762968149824,65237,8134,212,0,0,0,0,0
1353,1762968149974,65231,8132,219,0,0,0,0,0
1354,1762968150024,65233,8135,220,0,0,0,0,0
1355,1762968150091,65232,8135,218,0,0,0,0,0
1356,1762968150140,65232,8134,212,0,0,0,0,0
1357,1762968150190,65230,8132,203,0,0,0,0,0
1358,1762968150257,65228,8135,211,0,0,0,0,0
1359,1762968150306,65240,8134,214,0,0,0,0,0
1360,1762968150356,65233,8131,215,0,0,0,0,0
1361,1762968150440,65232,8138,218,0,0,0,0,0
1362,1762968150490,65245,8138,217,0,0,0,0,0
1363,1762968150574,65240,8136,212,0,0,0,0,0
1364,1762968150607,65235,8142,214,0,0,0,0,0
1365,1762968150724,65234,8133,210,0,0,0,0,0
1366,1762968150807,65236,8139,212,0,0,0,0,0
1367,1762968150841,65229,8139,204,0,0,0,0,0
1368,1762968150925,65229,8137,216,0,0,0,0,0
1369,1762968150974,65230,8136,209,0,0,0,0,0
1370,1762968151026,65233,8130,214,0,0,0,0,0
1371,1762968151073,65234,8133,211,0,0,0,0,0
1372,1762968151140,65228,8129,212,0,0,0,0,0
1373,1762968151189,65235,8137,210,0,0,0,0,0
1374,1762968151240,65234,8136,210,0,0,0,0,0
1375,1762968151289,65237,8140,215,0,0,0,0,0
1376,1762968151356,65232,8131,212,0,0,0,0,0
1377,1762968151406,65238,8132,212,0,0,0,0,0
1378,1762968151456,65235,8137,214,0,0,0,0,0
1379,1762968151525,65233,8134,214,0,0,0,0,0
1380,1762968151590,65232,8134,221,0,0,0,0,0
1381,1762968151706,65237,8140,214,0,0,0,0,0
1382,1762968151757,65237,8142,213,0,0,0,0,0
1383,1762968151856,65229,8130,205,0,0,0,0,0
1384,1762968151906,65235,8134,211,0,0,0,0,0
1385,1762968151989,65234,8130,215,0,0,0,0,0
1386,1762968152023,65238,8133,213,0,0,0,0,0
1387,1762968152072,65234,8128,212,0,0,0,0,0
1388,1762968152122,65236,8136,210,0,0,0,0,0
1389,1762968152172,65231,8138,214,1,0,0,0,0
1390,1762968152222,65233,8136,211,0,0,0,0,0
1391,1762968152272,65230,8132,221,0,0,0,0,0
1392,1762968152322,65234,8130,214,0,0,0,0,0
1393,1762968152388,65236,8134,206,0,0,0,0,0
1394,1762968152422,65232,8134,217,0,0,0,0,0
1395,1762968152704,65234,8135,213,0,0,0,0,0
1396,1762968152754,65242,8135,210,0,0,0,0,0
1397,1762968152822,65238,8137,215,33189,0,0,0,0
1398,1762968152855,65241,8132,219,0,0,0,0,0
1399,1762968152905,65231,8138,214,0,0,0,0,0
1400,1762968152956,65231,8134,214,1,0,0,0,0
1401,1762968153054,65230,8138,211,0,0,0,0,0
1402,1762968153138,65221,8132,205,0,0,0,0,0
1403,1762968153187,65234,8134,217,3.32,0,0,0,0
1404,1762968153238,65238,8134,208,0,0,0,0,0
1405,1762968153288,65231,8135,215,0,0,0,0,0
1406,1762968153355,65241,8135,217,0,0,0,0,0
1407,1762968153404,65243,8133,214,0,0,0,0,0
1408,1762968153472,65233,8136,210,0,0,0,0,0
1409,1762968153588,65234,8135,212,0,0,0,0,0
1410,1762968153638,65235,8136,219,0,0,0,0,0
1411,1762968153671,65238,8137,207,0,0,0,0,0
1412,1762968153738,65235,8137,205,0,0,0,0,0
1413,1762968153773,65239,8133,213,0,0,0,0,0
1414,1762968153872,65244,8139,206,0,0,0,0,0
1415,1762968153937,65230,8135,217,0,0,0,0,0
1416,1762968153970,65237,8140,207,3.27,0,0,0,0
1417,1762968154038,65232,8138,209,0,0,0,0,0
1418,1762968154087,65229,8133,210,0,0,0,0,0
1419,1762968154155,65224,8136,214,0,0,0,0,0
1420,1762968154270,65228,8133,206,0,0,0,0,0
1421,1762968154321,65243,8136,218,0,0,0,0,0
1422,1762968154405,65236,8137,199,0,0,0,0,0
1423,1762968154487,65235,8137,212,0,0,0,0,0
1424,1762968154537,65241,8140,214,0,0,0,0,0
1425,1762968154803,65238,8136,215,0,0,0,0,0
1426,1762968154853,65231,8134,215,0,0,0,0,0
1427,1762968154886,65238,8136,203,0,0,0,0,0
1428,1762968154919,65232,8135,210,0,0,0,0,0
1429,1762968154953,65235,8137,216,0,0,0,0,0
1430,1762968155003,65237,8133,214,0,0,0,0,0
1431,1762968155119,65241,8140,212,0,0,0,0,0
1432,1762968155170,65237,8129,208,0,0,0,0,0
1433,1762968155270,65236,8140,214,3.32,0,0,0,0
1434,1762968155304,65230,8134,213,0,0,0,0,0
1435,1762968155370,65230,8131,206,0,0,0,0,0
1436,1762968155437,65234,8144,213,0,0,0,0,0
1437,1762968155487,65240,8136,214,1,0,0,0,0
1438,1762968155540,65230,8140,209,0,0,0,0,0
1439,1762968155686,65240,8139,210,0,0,0,0,0
1440,1762968155819,65230,8142,214,33189,0,0,0,0
1441,1762968155869,65235,8138,214,0,0,0,0,0
1442,1762968155902,65234,8139,214,0,0,0,0,0
1443,1762968156054,65236,8137,212,0,0,0,0,0
1444,1762968156152,65233,8137,209,0,0,0,0,0
1445,1762968156219,65234,8132,211,0,0,0,0,0
1446,1762968156270,65240,8135,208,0,0,0,0,0
1447,1762968156336,65238,8137,212,0,0,0,0,0
1448,1762968156536,65230,8136,211,0,0,0,0,0
1449,1762968156570,65235,8137,206,0,0,0,0,0
1450,1762968156668,65229,8139,216,0,0,0,0,0
1451,1762968156718,65228,8138,218,0,0,0,0,0
1452,1762968156901,65227,8135,216,0,0,0,0,0
1453,1762968156985,65228,8132,210,0,0,0,0,0
1454,1762968157018,65231,8136,217,0,0,0,0,0
1455,1762968157252,65235,8139,214,0,0,0,0,0
1456,1762968157320,65244,8138,212,0,0,0,0,0
1457,1762968157369,65241,8139,211,0,0,0,0,0
1458,1762968157436,65232,8127,214,0,0,0,0,0
1459,1762968157818,65232,8134,214,0,0,0,0,0
1460,1762968157885,65240,8150,204,0,0,0,0,0
1461,1762968157954,65235,8135,216,0,0,0,0,0
1462,1762968158018,65235,8134,209,0,0,0,0,0
1463,1762968158085,65232,8133,218,0,0,0,0,0
1464,1762968158183,65238,8133,213,3.31,0,0,0,0
1465,1762968158318,65232,8138,207,0,0,0,0,0
1466,1762968158385,65236,8142,218,0,0,0,0,0
1467,1762968158484,65229,8131,214,0,0,0,0,0
1468,1762968158550,65233,8132,211,0,0,0,0,0
1469,1762968158601,65230,8135,219,0,0,0,0,0
1470,1762968158767,65242,8141,221,0,0,0,0,0
1471,1762968158834,65235,8133,206,0,0,0,0,0
1472,1762968159050,65235,8136,214,3.32,0,0,0,0
1473,1762968159101,65243,8143,209,0,0,0,0,0
1474,1762968159184,65230,8134,210,0,0,0,0,0
1475,1762968159250,65238,8128,210,1,0,0,0,0
1476,1762968159304,65227,8132,206,0,0,0,0,0
1477,1762968159433,65230,8139,202,0,0,0,0,0
1478,1762968159483,65234,8141,213,0,0,0,0,0
1479,1762968159549,65236,8136,222,0,0,0,0,0
1480,1762968159782,65243,8134,213,0,0,0,0,0
1481,1762968159916,65234,8134,210,0,0,0,0,0
1482,1762968159966,65229,8136,218,0,0,0,0,0
1483,1762968160049,65234,8132,214,0,0,0,0,0
1484,1762968160100,65229,8133,213,0,0,0,0,0
1485,1762968160216,65238,8140,208,0,0,0,0,0
1486,1762968160367,65235,8138,215,0,0,0,0,0
1487,1762968160416,65235,8143,213,0,0,0,0,0
1488,1762968160683,65240,8134,209,0,0,0,0,0
1489,1762968161065,65232,8140,214,0,0,0,0,0
1490,1762968161365,65238,8142,209,0,0,0,0,0
1491,1762968161481,65237,8134,214,0,0,0,0,0
1492,1762968161598,65239,8135,212,0,0,0,0,0
1493,1762968161715,65240,8138,209,0,0,0,0,0
1494,1762968161814,65235,8146,213,0,0,0,0,0
1495,1762968161848,65234,8142,209,0,0,0,0,0
1496,1762968162880,65236,8130,207,0,0,0,0,0
1497,1762968163181,65236,8142,206,0,0,0,0,0
1498,1762968163247,65232,8136,218,0,0,0,0,0
1499,1762968163280,65230,8134,209,0,0,0,0,0
1500,1762968163347,65237,8138,210,0,0,0,0,0
1501,1762968163400,65231,8136,213,0,0,0,0,0
1502,1762968163479,65230,8136,202,0,0,0,0,0
1503,1762968163514,65234,8138,216,0,0,0,0,0
1504,1762968163596,65230,8136,218,0,0,0,0,0
1505,1762968163629,65240,8146,210,0,0,0,0,0
1506,1762968163714,65228,8138,208,0,0,0,0,0
1507,1762968163746,65224,8138,210,0,0,0,0,0
1508,1762968163862,65237,8132,212,0,0,0,0,0
1509,1762968163913,65227,8130,203,0,0,0,0,0
1510,1762968163979,65242,8136,218,0,0,0,0,0
1511,1762968164095,65236,8134,213,0,0,0,0,0
1512,1762968164129,65229,8134,211,0,0,0,0,0
1513,1762968164179,65234,8132,209,0,0,0,0,0
1514,1762968164230,65238,8137,211,0,0,0,0,0
1515,1762968164279,65238,8140,207,0,0,0,0,0
1516,1762968164329,65231,8141,210,0,0,0,0,0
1517,1762968164396,65235,8142,214,0,0,0,0,0
1518,1762968164447,65235,8137,213,0,0,0,0,0
1519,1762968164512,65234,8135,206,0,0,0,0,0
1520,1762968164578,65227,8139,210,0,0,0,0,0
1521,1762968164629,65230,8138,215,0,0,0,0,0
1522,1762968164746,65231,8135,216,0,0,0,0,0
1523,1762968164845,65233,8140,213,0,0,0,0,0
1524,1762968164862,65231,8137,212,0,0,0,0,0
1525,1762968164945,65225,8138,211,0,0,0,0,0
1526,1762968165012,65233,8134,202,0,0,0,0,0
1527,1762968165061,65232,8128,204,0,0,0,0,0
1528,1762968165111,65236,8140,214,0,0,0,0,0
1529,1762968165162,65231,8134,209,0,0,0,0,0
1530,1762968165212,65235,8137,215,0,0,0,0,0
1531,1762968165295,65237,8139,210,3.26,0,0,0,0
1532,1762968165344,65234,8135,214,0,0,0,0,0
1533,1762968165393,65228,8133,214,0,0,0,0,0
1534,1762968165461,65235,8136,212,0,0,0,0,0
1535,1762968165512,65229,8133,210,1,0,0,0,0
1536,1762968165594,65237,8142,206,0,0,0,0,0
1537,1762968165628,65226,8136,210,0,0,0,0,0
1538,1762968165728,65236,8139,213,0,0,0,0,0
1539,1762968165794,65235,8140,210,0,0,0,0,0
1540,1762968165862,65240,8133,202,0,0,0,0,0
1541,1762968165995,65230,8133,212,0,0,0,0,0
1542,1762968166061,65237,8142,220,0,0,0,0,0
1543,1762968166094,65236,8136,210,0,0,0,0,0
1544,1762968166150,65232,8134,213,0,0,0,0,0
1545,1762968166210,65234,8128,206,0,0,0,0,0
1546,1762968166261,65230,8135,216,0,0,0,0,0
1547,1762968166311,65228,8136,206,0,0,0,0,0
1548,1762968166376,65224,8136,211,0,0,0,0,0
1549,1762968166426,65242,8129,215,0,0,0,0,0
1550,1762968166476,65244,8142,204,0,0,0,0,0
1551,1762968166560,65234,8137,218,0,0,0,0,0
1552,1762968166610,65227,8142,216,0,0,0,0,0
1553,1762968166694,65238,8137,207,0,0,0,0,0
1554,1762968166811,65236,8143,210,0,0,0,0,0
1555,1762968166827,65231,8139,204,0,0,0,0,0
1556,1762968166961,65222,8140,217,0,0,0,0,0
1557,1762968166977,65234,8137,215,0,0,0,0,0
1558,1762968167060,65239,8137,202,0,0,0,0,0
1559,1762968167109,65230,8134,208,0,0,0,0,0
1560,1762968167143,65232,8137,215,0,0,0,0,0
1561,1762968167226,65234,8130,212,0,0,0,0,0
1562,1762968167260,65231,8134,218,0,0,0,0,0
1563,1762968167327,65235,8137,209,0,0,0,0,0
1564,1762968167377,65239,8133,213,0,0,0,0,0
1565,1762968167443,65237,8138,211,0,0,0,0,0
1566,1762968167477,65230,8138,206,0,0,0,0,0
1567,1762968167559,65243,8135,214,0,0,0,0,0
1568,1762968167592,65234,8132,215,0,0,0,0,0
1569,1762968167692,65236,8146,207,0,0,0,0,0
1570,1762968167726,65239,8142,210,0,0,0,0,0
1571,1762968167826,65234,8133,210,0,0,0,0,0
1572,1762968167876,65239,8140,211,0,0,0,0,0
1573,1762968167909,65230,8140,212,0,0,0,0,0
1574,1762968167992,65236,8136,207,0,0,0,0,0
1575,1762968168042,65243,8137,210,1,0,0,0,0
1576,1762968168093,65232,8137,209,0,0,0,0,0
1577,1762968168143,65240,8139,211,0,0,0,0,0
1578,1762968168208,65238,8137,205,0,0,0,0,0
1579,1762968168258,65235,8144,213,0,0,0,0,0
1580,1762968168325,65233,8135,221,0,0,0,0,0
1581,1762968168375,65233,8134,203,0,0,0,0,0
1582,1762968168459,65232,8139,208,0,0,0,0,0
1583,1762968168492,65234,8138,214,0,0,0,0,0
1584,1762968168576,65240,8139,217,0,0,0,0,0
1585,1762968168610,65226,8131,203,0,0,0,0,0
1586,1762968168675,65239,8138,208,0,0,0,0,0
1587,1762968168725,65234,8136,208,0,0,0,0,0
1588,1762968168794,65234,8136,211,0,0,0,0,0
1589,1762968168858,65231,8130,211,0,0,0,0,0
1590,1762968168976,65236,8136,206,0,0,0,0,0
1591,1762968169059,65223,8136,208,3.32,0,0,0,0
1592,1762968169141,65232,8143,204,0,0,0,0,0
1593,1762968169225,65241,8137,204,0,0,0,0,0
1594,1762968169258,65228,8133,210,1,0,0,0,0
1595,1762968169341,65237,8135,212,0,0,0,0,0
1596,1762968169391,65228,8140,207,0,0,0,0,0
1597,1762968169524,65230,8139,213,0,0,0,0,0
1598,1762968169624,65240,8132,206,0,0,0,0,0
1599,1762968169641,65241,8134,205,0,0,0,0,0
1600,1762968169724,65238,8136,204,0,0,0,0,0
1601,1762968169757,65235,8134,206,0,0,0,0,0
1602,1762968169858,65232,8137,218,0,0,0,0,0
1603,1762968169957,65236,8136,209,0,0,0,0,0
1604,1762968169974,65239,8132,208,0,0,0,0,0
1605,1762968170041,65235,8137,206,0,0,0,0,0
1606,1762968170075,65238,8136,210,0,0,0,0,0
1607,1762968170158,65233,8129,212,0,0,0,0,0
1608,1762968170209,65230,8134,214,0,0,0,0,0
1609,1762968170273,65239,8140,207,0,0,0,0,0
1610,1762968170340,65237,8135,210,0,0,0,0,0
1611,1762968170407,65230,8138,210,0,0,0,0,0
1612,1762968170490,65234,8132,215,0,0,0,0,0
1613,1762968170624,65232,8135,205,0,0,0,0,0
1614,1762968170675,65232,8135,203,0,0,0,0,0
1615,1762968170740,65233,8139,210,0,0,0,0,0
1616,1762968170841,65238,8135,212,3.32,0,0,0,0
1617,1762968170874,65229,8140,215,0,0,0,0,0
1618,1762968170891,65236,8140,218,0,0,0,0,0
1619,1762968170908,65232,8133,204,0,0,0,0,0
1620,1762968170990,65242,8132,209,0,0,0,0,0
1621,1762968171024,65230,8138,216,0,0,0,0,0
1622,1762968171107,65233,8132,210,0,0,0,0,0
1623,1762968171140,65235,8138,212,0,0,0,0,0
1624,1762968171207,65232,8130,201,0,0,0,0,0
1625,1762968171256,65239,8136,213,0,0,0,0,0
1626,1762968171324,65229,8137,214,0,0,0,0,0
1627,1762968171374,65230,8138,210,0,0,0,0,0
1628,1762968171506,65239,8147,210,0,0,0,0,0
1629,1762968171556,65239,8132,216,0,0,0,0,0
1630,1762968171673,65232,8135,215,33189,0,0,0,0
1631,1762968171722,65234,8141,218,0,0,0,0,0
1632,1762968171756,65227,8142,213,0,0,0,0,0
1633,1762968171807,65234,8130,211,0,0,0,0,0
1634,1762968172008,65239,8136,205,33189,0,0,0,0
1635,1762968172073,65235,8143,215,0,0,0,0,0
1636,1762968172139,65231,8140,207,0,0,0,0,0
1637,1762968172190,65236,8135,213,0,0,0,0,0
1638,1762968172240,65238,8130,212,0,0,0,0,0
1639,1762968172306,65232,8142,213,0,0,0,0,0
1640,1762968172355,65233,8138,212,0,0,0,0,0
1641,1762968172472,65230,8135,213,0,0,0,0,0
1642,1762968172522,65233,8132,210,0,0,0,0,0
1643,1762968172589,65240,8134,212,0,0,0,0,0
1644,1762968172640,65240,8128,207,0,0,0,0,0
1645,1762968172739,65236,8127,216,0,0,0,0,0
1646,1762968172839,65236,8134,213,0,0,0,0,0
1647,1762968172943,65240,8136,206,0,0,0,0,0
1648,1762968172974,65234,8131,206,0,0,0,0,0
1649,1762968173055,65233,8139,207,0,0,0,0,0
1650,1762968173088,65235,8138,213,0,0,0,0,0
1651,1762968173155,65230,8133,208,0,0,0,0,0
1652,1762968173205,65242,8140,207,0,0,0,0,0
1653,1762968173288,65236,8134,209,0,0,0,0,0
1654,1762968173339,65237,8136,212,0,0,0,0,0
1655,1762968173405,65234,8139,211,0,0,0,0,0
1656,1762968173439,65236,8140,225,0,0,0,0,0
1657,1762968173522,65238,8142,220,0,0,0,0,0
1658,1762968173605,65238,8142,215,0,0,0,0,0
1659,1762968173641,65240,8138,218,0,0,0,0,0
1660,1762968173721,65236,8142,205,0,0,0,0,0
1661,1762968173754,65236,8130,212,0,0,0,0,0
1662,1762968173822,65235,8138,204,0,0,0,0,0
1663,1762968173888,65229,8137,207,0,0,0,0,0
1664,1762968173939,65230,8131,214,0,0,0,0,0
1665,1762968174006,65234,8133,214,0,0,0,0,0
1666,1762968174088,65233,8134,206,0,0,0,0,0
1667,1762968174172,65238,8139,213,0,0,0,0,0
1668,1762968174205,65239,8138,214,0,0,0,0,0
1669,1762968174288,65239,8133,213,1,0,0,0,0
1670,1762968174338,65236,8140,208,0,0,0,0,0
1671,1762968174403,65232,8134,215,0,0,0,0,0
1672,1762968174453,65237,8135,213,0,0,0,0,0
1673,1762968174586,65236,8128,206,0,0,0,0,0
1674,1762968174620,65234,8138,216,0,0,0,0,0
1675,1762968174686,65230,8136,217,0,0,0,0,0
1676,1762968174736,65240,8136,209,0,0,0,0,0
1677,1762968174819,65236,8138,212,0,0,0,0,0
1678,1762968174869,65239,8138,220,0,0,0,0,0
1679,1762968174920,65237,8135,210,0,0,0,0,0
1680,1762968174952,65233,8138,216,0,0,0,0,0
1681,1762968175036,65234,8134,215,0,0,0,0,0
1682,1762968175070,65236,8140,213,0,0,0,0,0
1683,1762968175153,65227,8135,208,0,0,0,0,0
1684,1762968175186,65237,8138,215,0,0,0,0,0
1685,1762968175269,65230,8136,209,0,0,0,0,0
1686,1762968175321,65240,8134,211,0,0,0,0,0
1687,1762968175387,65226,8130,212,0,0,0,0,0
1688,1762968175437,65236,8139,214,0,0,0,0,0
1689,1762968175620,65234,8134,211,0,0,0,0,0
1690,1762968175704,65233,8139,209,0,0,0,0,0
1691,1762968175819,65233,8132,211,0,0,0,0,0
1692,1762968175836,65243,8139,210,0,0,0,0,0
1693,1762968175919,65234,8136,213,0,0,0,0,0
1694,1762968175952,65240,8140,216,0,0,0,0,0
1695,1762968176034,65230,8139,214,0,0,0,0,0
1696,1762968176069,65234,8132,205,0,0,0,0,0
1697,1762968176152,65241,8141,212,0,0,0,0,0
1698,1762968176185,65228,8136,210,0,0,0,0,0
1699,1762968176252,65239,8137,217,0,0,0,0,0
1700,1762968176302,65230,8132,212,0,0,0,0,0
1701,1762968176369,65232,8135,212,0,0,0,0,0
1702,1762968176401,65241,8131,216,0,0,0,0,0
1703,1762968176485,65232,8137,217,0,0,0,0,0
1704,1762968176518,65230,8132,202,0,0,0,0,0
1705,1762968176601,65238,8138,212,0,0,0,0,0
1706,1762968176669,65230,8136,214,0,0,0,0,0
1707,1762968176718,65244,8130,210,0,0,0,0,0
1708,1762968176768,65233,8134,210,0,0,0,0,0
1709,1762968176818,65242,8137,212,0,0,0,0,0
1710,1762968176902,65227,8141,201,0,0,0,0,0
1711,1762968176935,65231,8138,216,0,0,0,0,0
1712,1762968177035,65236,8142,214,0,0,0,0,0
1713,1762968177070,65234,8136,205,0,0,0,0,0
1714,1762968177134,65226,8135,214,0,0,0,0,0
1715,1762968177184,65231,8138,204,0,0,0,0,0
1716,1762968177250,65240,8141,210,0,0,0,0,0
1717,1762968177318,65239,8134,211,0,0,0,0,0
1718,1762968177367,65230,8138,215,0,0,0,0,0
1719,1762968177419,65232,8140,211,0,0,0,0,0
1720,1762968177468,65233,8139,207,0,0,0,0,0
1721,1762968177517,65232,8134,202,0,0,0,0,0
1722,1762968177584,65231,8141,200,0,0,0,0,0
1723,1762968177651,65236,8138,206,0,0,0,0,0
1724,1762968177701,65238,8134,211,0,0,0,0,0
1725,1762968177767,65235,8143,211,0,0,0,0,0
1726,1762968177869,65233,8136,213,0,0,0,0,0
1727,1762968177985,65231,8134,212,0,0,0,0,0
1728,1762968178035,65228,8128,212,1,0,0,0,0
1729,1762968178084,65238,8137,216,0,0,0,0,0
1730,1762968178134,65235,8136,213,0,0,0,0,0
1731,1762968178201,65235,8120,208,0,0,0,0,0
1732,1762968178267,65236,8136,218,3.32,0,0,0,0
1733,1762968178384,65226,8137,214,0,0,0,0,0
1734,1762968178434,65232,8136,220,0,0,0,0,0
1735,1762968178482,65244,8133,202,0,0,0,0,0
1736,1762968178549,65234,8136,219,0,0,0,0,0
1737,1762968178583,65244,8139,214,0,0,0,0,0
1738,1762968178633,65228,8138,216,0,0,0,0,0
1739,1762968178700,65226,8140,208,0,0,0,0,0
1740,1762968178750,65241,8136,210,0,0,0,0,0
1741,1762968178833,65236,8137,218,0,0,0,0,0
1742,1762968178866,65232,8142,211,0,0,0,0,0
1743,1762968178916,65238,8133,200,0,0,0,0,0
1744,1762968178967,65236,8134,208,0,0,0,0,0
1745,1762968179033,65235,8132,213,0,0,0,0,0
1746,1762968179101,65233,8140,211,0,0,0,0,0
1747,1762968179217,65234,8142,210,0,0,0,0,0
1748,1762968179251,65234,8132,213,0,0,0,0,0
1749,1762968179316,65233,8135,214,0,0,0,0,0
1750,1762968179366,65229,8131,209,0,0,0,0,0
1751,1762968179416,65236,8140,210,0,0,0,0,0
1752,1762968179467,65236,8141,210,0,0,0,0,0
1753,1762968179633,65239,8141,222,0,0,0,0,0
1754,1762968179733,65236,8139,222,0,0,0,0,0
1755,1762968179766,65235,8128,208,0,0,0,0,0
1756,1762968179848,65230,8134,204,0,0,0,0,0
1757,1762968179915,65232,8132,208,0,0,0,0,0
1758,1762968179948,65227,8136,216,0,0,0,0,0
1759,1762968180049,65231,8136,211,0,0,0,0,0
1760,1762968180098,65228,8131,210,0,0,0,0,0
1761,1762968180148,65234,8134,212,0,0,0,0,0
1762,1762968180331,65237,8136,214,3.32,0,0,0,0
1763,1762968180398,65233,8134,209,0,0,0,0,0
1764,1762968180449,65235,8132,215,0,0,0,0,0
1765,1762968180498,65233,8142,217,0,0,0,0,0
1766,1762968180615,65266,8138,230,0,0,0,0,0
1767,1762968180799,65228,8144,187,0,0,0,0,0
1768,1762968180932,65230,8133,217,33189,0,0,0,0
1769,1762968180973,65219,8134,197,0,0,0,0,0
1770,1762968181000,65213,8118,224,0,0,0,0,0
1771,1762968181000,65230,8132,217,0,0,0,0,0
1772,1762968181015,65250,8147,216,1,0,0,0,0
1773,1762968181117,65218,8122,227,0,0,0,0,0
1774,1762968181215,65233,8162,203,0,0,0,0,0
1775,1762968181281,65254,8131,218,0,0,0,0,0
1776,1762968181330,65245,8142,229,0,0,0,0,0
1777,1762968181382,65228,8132,201,0,0,0,0,0
1778,1762968181431,65216,8121,218,0,0,0,0,0
1779,1762968181499,65242,8144,203,0,0,0,0,0
1780,1762968181582,65239,8129,213,0,0,0,0,0
1781,1762968181647,65219,8136,213,0,0,0,0,0
1782,1762968181698,65227,8131,210,0,0,0,0,0
1783,1762968181781,65254,8144,207,0,0,0,0,0
1784,1762968181814,65234,8133,204,0,0,0,0,0
1785,1762968181880,65222,8134,206,0,0,0,0,0
1786,1762968181915,65228,8142,203,0,0,0,0,0
1787,1762968182014,65245,8130,213,0,0,0,0,0
1788,1762968182064,65250,8142,216,0,0,0,0,0
1789,1762968182314,65235,8132,200,0,0,0,0,0
1790,1762968182346,65230,8132,206,0,0,0,0,0
1791,1762968182414,65232,8132,206,0,0,0,0,0
1792,1762968182447,65246,8135,212,0,0,0,0,0
1793,1762968182563,65230,8132,204,0,0,0,0,0
1794,1762968182664,65241,8141,209,0,0,0,0,0
1795,1762968182864,65212,8132,214,0,0,0,0,0
1796,1762968182880,65230,8135,211,0,0,0,0,0
1797,1762968182964,65244,8132,210,0,0,0,0,0
1798,1762968182997,65258,8138,209,0,0,0,0,0
1799,1762968183064,65229,8132,207,0,0,0,0,0
1800,1762968183164,65238,8140,205,0,0,0,0,0
1801,1762968183213,65255,8136,210,0,0,0,0,0
1802,1762968183330,65213,8135,213,0,0,0,0,0
1803,1762968183397,65238,8132,213,0,0,0,0,0
1804,1762968183429,65253,8142,203,0,0,0,0,0
1805,1762968183496,65244,8136,200,0,0,0,0,0
1806,1762968183630,65239,8138,206,0,0,0,0,0
1807,1762968183745,65251,8138,201,0,0,0,0,0
1808,1762968183779,65236,8134,211,0,0,0,0,0
1809,1762968183880,65246,8141,211,0,0,0,0,0
1810,1762968183929,65252,8139,207,0,0,0,0,0
1811,1762968184012,65226,8128,212,0,0,0,0,0
1812,1762968184095,65223,8128,212,3.26,0,0,0,0
1813,1762968184145,65242,8136,212,0,0,0,0,0
1814,1762968184196,65232,8140,210,0,0,0,0,0
1815,1762968184279,65223,8138,216,0,0,0,0,0
1816,1762968184330,65234,8142,210,1,0,0,0,0
1817,1762968184397,65234,8130,208,0,0,0,0,0
1818,1762968184429,65227,8142,204,0,0,0,0,0
1819,1762968184612,65246,8134,206,0,0,0,0,0
1820,1762968184662,65232,8143,208,0,0,0,0,0
1821,1762968184779,65238,8134,216,0,0,0,0,0
1822,1762968184795,65240,8136,209,0,0,0,0,0
1823,1762968184864,65237,8143,208,0,0,0,0,0
1824,1762968185578,65240,8136,217,0,0,0,0,0
1825,1762968185679,65229,8136,207,0,0,0,0,0
1826,1762968186595,65274,8156,206,0,0,0,0,0
1827,1762968188577,65240,8140,213,0,0,0,0,0
1828,1762968188611,65227,8132,212,0,0,0,0,0
1829,1762968188693,65222,8132,208,0,0,0,0,0
1830,1762968188726,65237,8140,218,0,0,0,0,0
1831,1762968188825,65245,8138,214,0,0,0,0,0
1832,1762968188892,65220,8136,212,0,0,0,0,0
1833,1762968188925,65236,8136,204,0,0,0,0,0
1834,1762968188992,65239,8138,210,0,0,0,0,0
1835,1762968189026,65231,8139,208,0,0,0,0,0
1836,1762968189109,65228,8133,208,0,0,0,0,0
1837,1762968189159,65236,8136,205,0,0,0,0,0
1838,1762968189226,65238,8140,202,0,0,0,0,0
1839,1762968189259,65231,8136,208,0,0,0,0,0
1840,1762968189341,65227,8132,209,0,0,0,0,0
1841,1762968189374,65233,8127,207,0,0,0,0,0
1842,1762968189425,65241,8143,209,0,0,0,0,0
1843,1762968189475,65245,8142,206,0,0,0,0,0
1844,1762968189574,65224,8136,208,0,0,0,0,0
1845,1762968189642,65230,8141,201,0,0,0,0,0
1846,1762968189726,65239,8132,214,0,0,0,0,0
1847,1762968189744,65233,8134,215,0,0,0,0,0
1848,1762968189808,65229,8135,210,0,0,0,0,0
1849,1762968189857,65242,8137,210,0,0,0,0,0
1850,1762968189975,65233,8138,210,0,0,0,0,0
1851,1762968190007,65230,8130,206,0,0,0,0,0
1852,1762968190074,65235,8139,213,0,0,0,0,0
1853,1762968190124,65228,8137,214,0,0,0,0,0
1854,1762968190173,65236,8130,208,0,0,0,0,0
1855,1762968190224,65245,8138,213,0,0,0,0,0
1856,1762968190291,65244,8136,206,0,0,0,0,0
1857,1762968190358,65225,8130,230,33190,0,0,0,0
1858,1762968190424,65231,8143,199,0,0,0,0,0
1859,1762968190475,65241,8136,212,0,0,0,0,0
1860,1762968190590,65222,8127,219,1,0,0,0,0
1861,1762968190639,65241,8147,204,0,0,0,0,0
1862,1762968190691,65253,8145,204,0,0,0,0,0
1863,1762968190756,65232,8134,210,0,0,0,0,0
1864,1762968190823,65232,8138,206,3.32,0,0,0,0
1865,1762968190890,65222,8139,208,0,0,0,0,0
1866,1762968190923,65249,8144,212,0,0,0,0,0
1867,1762968191007,65226,8122,206,0,0,0,0,0
1868,1762968191040,65206,8142,226,1,0,0,0,0
1869,1762968191108,65232,8095,195,0,0,0,0,0
1870,1762968191156,65247,8148,226,0,0,0,0,0
1871,1762968191225,65221,8134,211,0,0,0,0,0
1872,1762968191274,65216,8118,208,0,0,0,0,0
1873,1762968191340,65234,8128,202,0,0,0,0,0
1874,1762968191406,65258,8145,207,0,0,0,0,0
1875,1762968191475,65236,8118,217,0,0,0,0,0
1876,1762968191507,65206,8134,221,0,0,0,0,0
1877,1762968191589,65230,8120,215,0,0,0,0,0
1878,1762968191656,65248,8136,202,0,0,0,0,0
1879,1762968191690,65231,8140,216,0,0,0,0,0
1880,1762968191758,65220,8137,212,0,0,0,0,0
1881,1762968191822,65234,8139,210,0,0,0,0,0
1882,1762968191873,65228,8140,213,0,0,0,0,0
1883,1762968191922,65246,8144,210,0,0,0,0,0
1884,1762968191989,65226,8132,208,0,0,0,0,0
1885,1762968192024,65218,8150,204,3.31,0,0,0,0
1886,1762968192106,65281,8176,218,0,0,0,0,0
1887,1762968192155,65278,8122,190,0,0,0,0,0
1888,1762968192222,65170,8198,206,0,0,0,0,0
1889,1762968192305,65180,8244,140,0,0,0,0,0
1890,1762968192339,65270,8062,275,0,0,0,0,0
1891,1762968192423,65254,8078,247,0,0,0,0,0
1892,1762968192456,65199,8179,161,0,0,0,0,0
1893,1762968192540,65232,8166,173,0,0,0,0,0
1894,1762968192573,65266,8114,224,0,0,0,0,0
1895,1762968192655,65225,8164,179,0,0,0,0,0
1896,1762968192689,65238,8100,212,0,0,0,0,0
1897,1762968192855,65214,8084,231,0,0,0,0,0
1898,1762968192989,65237,8162,187,0,0,0,0,0
1899,1762968193054,65222,8131,220,0,0,0,0,0
1900,1762968193106,65254,8120,213,0,0,0,0,0
1901,1762968193155,65212,8149,195,0,0,0,0,0
1902,1762968193205,65219,8161,191,0,0,0,0,0
1903,1762968193255,65260,8143,214,0,0,0,0,0
1904,1762968193321,65242,8123,222,0,0,0,0,0
1905,1762968193405,65208,8142,206,0,0,0,0,0
1906,1762968193454,65228,8150,196,0,0,0,0,0
1907,1762968193537,65247,8141,204,0,0,0,0,0
1908,1762968193570,65234,8128,218,0,0,0,0,0
1909,1762968193637,65214,8131,220,0,0,0,0,0
1910,1762968193704,65247,8137,204,0,0,0,0,0
1911,1762968193754,65251,8126,210,0,0,0,0,0
1912,1762968193804,65234,8140,210,0,0,0,0,0
1913,1762968193871,65227,8140,202,0,0,0,0,0
1914,1762968193956,65242,8128,212,0,0,0,0,0
1915,1762968194004,65245,8138,212,0,0,0,0,0
1916,1762968194053,65232,8140,208,0,0,0,0,0
1917,1762968194103,65233,8139,208,3.31,0,0,0,0
1918,1762968194171,65240,8134,211,0,0,0,0,0
1919,1762968194203,65239,8145,209,0,0,0,0,0
1920,1762968194287,65235,8138,209,0,0,0,0,0
1921,1762968194322,65221,8126,209,1,0,0,0,0
1922,1762968194404,65235,8145,212,0,0,0,0,0
1923,1762968194438,65233,8144,218,0,0,0,0,0
1924,1762968194520,65234,8141,207,0,0,0,0,0
1925,1762968194586,65237,8130,209,0,0,0,0,0
1926,1762968194637,65241,8140,206,0,0,0,0,0
1927,1762968194703,65244,8133,216,0,0,0,0,0
1928,1762968194772,65224,8136,217,0,0,0,0,0
1929,1762968194887,65246,8138,208,0,0,0,0,0
1930,1762968194920,65236,8136,208,0,0,0,0,0
1931,1762968194971,65226,8138,208,0,0,0,0,0
1932,1762968195037,65233,8131,211,0,0,0,0,0
1933,1762968195103,65246,8136,208,0,0,0,0,0
1934,1762968195153,65225,8144,207,0,0,0,0,0
1935,1762968195204,65229,8138,216,0,0,0,0,0
1936,1762968195254,65232,8131,215,0,0,0,0,0
1937,1762968195304,65244,8138,217,0,0,0,0,0
1938,1762968195403,65228,8133,208,0,0,0,0,0
1939,1762968195453,65223,8130,213,0,0,0,0,0
1940,1762968195520,65232,8134,225,0,0,0,0,0
1941,1762968195569,65232,8136,208,0,0,0,0,0
1942,1762968195619,65231,8128,210,0,0,0,0,0
1943,1762968195737,65229,8133,215,0,0,0,0,0
1944,1762968195804,65238,8142,210,0,0,0,0,0
1945,1762968195953,65237,8140,212,0,0,0,0,0
1946,1762968196003,65237,8140,209,0,0,0,0,0
1947,1762968196120,65236,8136,216,0,0,0,0,0
1948,1762968196169,65248,8139,212,0,0,0,0,0
1949,1762968196236,65233,8140,208,0,0,0,0,0
1950,1762968196285,65236,8140,206,0,0,0,0,0
1951,1762968196352,65236,8139,211,0,0,0,0,0
1952,1762968196386,65241,8137,209,0,0,0,0,0
1953,1762968196452,65232,8137,213,0,0,0,0,0
1954,1762968196503,65232,8136,213,0,0,0,0,0
1955,1762968196585,65231,8137,211,0,0,0,0,0
1956,1762968196636,65233,8136,210,0,0,0,0,0
1957,1762968196736,65228,8135,222,0,0,0,0,0
1958,1762968196768,65237,8139,223,0,0,0,0,0
1959,1762968196835,65234,8144,211,0,0,0,0,0
1960,1762968196852,65240,8138,202,1,0,0,0,0
1961,1762968196951,65228,8130,214,0,0,0,0,0
1962,1762968196968,65232,8136,204,0,0,0,0,0
1963,1762968197068,65240,8140,214,0,0,0,0,0
1964,1762968197101,65240,8129,214,3.32,0,0,0,0
1965,1762968197152,65232,8132,206,0,0,0,0,0
1966,1762968197185,65229,8139,214,0,0,0,0,0
1967,1762968197319,65238,8137,206,0,0,0,0,0
1968,1762968197419,65236,8130,211,0,0,0,0,0
1969,1762968197486,65235,8134,212,0,0,0,0,0
1970,1762968197535,65242,8136,210,0,0,0,0,0
1971,1762968197601,65230,8139,204,0,0,0,0,0
1972,1762968197651,65232,8134,207,0,0,0,0,0
1973,1762968197733,65236,8131,207,0,0,0,0,0
1974,1762968197750,65230,8138,210,0,0,0,0,0
1975,1762968197836,65230,8136,222,0,0,0,0,0
1976,1762968197918,65234,8135,204,0,0,0,0,0
1977,1762968197968,65237,8139,206,0,0,0,0,0
1978,1762968198017,65234,8134,215,0,0,0,0,0
1979,1762968198067,65238,8132,215,0,0,0,0,0
1980,1762968198135,65230,8134,213,0,0,0,0,0
1981,1762968198167,65235,8138,218,0,0,0,0,0
1982,1762968198234,65231,8135,211,0,0,0,0,0
1983,1762968198284,65236,8142,211,0,0,0,0,0
1984,1762968198384,65238,8136,215,0,0,0,0,0
1985,1762968198417,65236,8137,218,0,0,0,0,0
1986,1762968198484,65229,8133,214,0,0,0,0,0
1987,1762968198534,65240,8140,210,0,0,0,0,0
1988,1762968198601,65235,8137,209,0,0,0,0,0
1989,1762968198667,65240,8136,206,0,0,0,0,0
1990,1762968198718,65231,8140,211,0,0,0,0,0
1991,1762968198867,65236,8133,206,0,0,0,0,0
1992,1762968198949,65239,8134,210,0,0,0,0,0
1993,1762968199016,65232,8130,207,0,0,0,0,0
1994,1762968199049,65232,8132,210,0,0,0,0,0
1995,1762968199184,65233,8137,213,0,0,0,0,0
1996,1762968199250,65232,8130,210,0,0,0,0,0
1997,1762968199300,65239,8140,212,0,0,0,0,0
1998,1762968199367,65236,8131,214,0,0,0,0,0
1999,1762968199416,65232,8135,218,0,0,0,0,0
2000,1762968199467,65235,8134,214,0,0,0,0,0
2001,1762968199534,65245,8136,210,0,0,0,0,0
2002,1762968199616,65234,8139,218,0,0,0,0,0
2003,1762968199700,65234,8137,207,0,0,0,0,0
2004,1762968199733,65235,8134,211,0,0,0,0,0
2005,1762968199816,65231,8142,227,0,0,0,0,0
2006,1762968199849,65214,8107,201,0,0,0,0,0
2007,1762968199932,65217,8126,206,0,0,0,0,0
2008,1762968199966,65230,8146,198,0,0,0,0,0
2009,1762968200032,65256,8132,232,0,0,0,0,0
2010,1762968200065,65210,8161,181,0,0,0,0,0
2011,1762968200149,65228,8152,201,0,0,0,0,0
2012,1762968200165,65230,8137,194,0,0,0,0,0
2013,1762968200249,65240,8142,194,0,0,0,0,0
2014,1762968200282,65236,8138,203,0,0,0,0,0
2015,1762968200348,65228,8116,198,0,0,0,0,0
2016,1762968200416,65226,8134,214,0,0,0,0,0
2017,1762968200499,65240,8132,207,0,0,0,0,0
2018,1762968200548,65231,8133,208,0,0,0,0,0
2019,1762968200615,65232,8136,208,0,0,0,0,0
2020,1762968200715,65239,8140,211,0,0,0,0,0
2021,1762968200783,65231,8136,205,0,0,0,0,0
2022,1762968200898,65235,8128,206,0,0,0,0,0
2023,1762968200967,65239,8134,207,0,0,0,0,0
2024,1762968200982,65238,8136,209,0,0,0,0,0
2025,1762968200998,65234,8142,209,0,0,0,0,0
2026,1762968201032,65228,8128,214,0,0,0,0,0
2027,1762968201115,65238,8140,219,0,0,0,0,0
2028,1762968201148,65234,8139,208,0,0,0,0,0
2029,1762968201214,65232,8134,208,0,0,0,0,0
2030,1762968201248,65219,8145,208,0,0,0,0,0
2031,1762968201331,65231,8126,209,0,0,0,0,0
2032,1762968201365,65239,8132,208,0,0,0,0,0
2033,1762968201447,65237,8157,204,0,0,0,0,0
2034,1762968201481,65238,8136,216,0,0,0,0,0
2035,1762968201547,65229,8138,215,0,0,0,0,0
2036,1762968201581,65219,8146,225,0,0,0,0,0
2037,1762968201681,65227,8136,209,0,0,0,0,0
2038,1762968201731,65228,8120,228,0,0,0,0,0
2039,1762968201798,65228,8142,219,0,0,0,0,0
2040,1762968201831,65231,8146,198,0,0,0,0,0
2041,1762968201947,65238,8124,216,0,0,0,0,0
2042,1762968201981,65235,8147,185,0,0,0,0,0
2043,1762968202049,65243,8125,218,0,0,0,0,0
2044,1762968202133,65236,8139,216,0,0,0,0,0
2045,1762968202199,65229,8134,211,0,0,0,0,0
2046,1762968202248,65238,8127,212,0,0,0,0,0
2047,1762968202349,65228,8133,208,0,0,0,0,0
2048,1762968202431,65234,8138,207,0,0,0,0,0
2049,1762968202465,65240,8128,215,0,0,0,0,0
2050,1762968202547,65231,8141,209,0,0,0,0,0
2051,1762968202597,65234,8139,209,0,0,0,0,0
2052,1762968202680,65238,8124,208,0,0,0,0,0
2053,1762968202798,65224,8142,202,0,0,0,0,0
2054,1762968202863,65239,8131,219,0,0,0,0,0
2055,1762968203031,65229,8136,218,33190,0,0,0,0
2056,1762968203080,65231,8137,219,0,0,0,0,0
2057,1762968203097,65236,8136,208,0,0,0,0,0
2058,1762968203131,65237,8139,216,0,0,0,0,0
2059,1762968203131,65231,8132,218,0,0,0,0,0
2060,1762968203247,65230,8140,217,0,0,0,0,0
2061,1762968203331,65236,8138,210,0,0,0,0,0
2062,1762968203381,65241,8130,210,0,0,0,0,0
2063,1762968203448,65228,8131,210,0,0,0,0,0
2064,1762968203496,65228,8137,210,0,0,0,0,0
2065,1762968203547,65234,8135,224,0,0,0,0,0
2066,1762968203613,65237,8134,210,0,0,0,0,0
2067,1762968203662,65232,8130,218,0,0,0,0,0
2068,1762968203730,65231,8132,210,0,0,0,0,0
2069,1762968203812,65239,8142,206,0,0,0,0,0
2070,1762968203846,65227,8140,210,0,0,0,0,0
2071,1762968203896,65236,8140,196,0,0,0,0,0
2072,1762968203979,65222,8128,212,0,0,0,0,0
2073,1762968204013,65231,8138,213,0,0,0,0,0
2074,1762968204080,65234,8132,206,0,0,0,0,0
2075,1762968204145,65234,8137,208,0,0,0,0,0
2076,1762968204212,65233,8132,214,0,0,0,0,0
2077,1762968204263,65234,8136,219,0,0,0,0,0
2078,1762968204312,65231,8133,214,0,0,0,0,0
2079,1762968204378,65228,8131,220,0,0,0,0,0
2080,1762968204429,65230,8138,211,0,0,0,0,0
2081,1762968204495,65235,8134,212,0,0,0,0,0
2082,1762968204528,65238,8141,211,0,0,0,0,0
2083,1762968204628,65234,8136,212,0,0,0,0,0
2084,1762968204711,65227,8128,210,0,0,0,0,0
2085,1762968204779,65230,8135,205,0,0,0,0,0
2086,1762968204829,65223,8136,203,0,0,0,0,0
2087,1762968204928,65234,8137,212,0,0,0,0,0
2088,1762968204996,65234,8138,215,0,0,0,0,0
2089,1762968205028,65229,8136,214,0,0,0,0,0
2090,1762968205061,65239,8141,202,0,0,0,0,0
2091,1762968205111,65235,8133,215,0,0,0,0,0
2092,1762968205194,65234,8130,218,0,0,0,0,0
2093,1762968205228,65232,8128,212,0,0,0,0,0
2094,1762968205294,65232,8136,212,0,0,0,0,0
2095,1762968205327,65244,8134,208,0,0,0,0,0
2096,1762968205460,65230,8130,206,0,0,0,0,0
2097,1762968205528,65234,8134,214,0,0,0,0,0
2098,1762968205612,65237,8137,211,0,0,0,0,0
2099,1762968205663,65231,8136,214,0,0,0,0,0
2100,1762968205795,65240,8142,206,0,0,0,0,0
2101,1762968205977,65236,8141,208,0,0,0,0,0
2102,1762968206045,65216,8130,210,0,0,0,0,0
2103,1762968206095,65246,8137,216,0,0,0,0,0
2104,1762968206177,65234,8128,221,0,0,0,0,0
2105,1762968206194,65224,8137,201,0,0,0,0,0
2106,1762968206278,65216,8130,207,0,0,0,0,0
2107,1762968206311,65251,8140,204,0,0,0,0,0
2108,1762968206395,65234,8141,201,0,0,0,0,0
2109,1762968206428,65226,8128,214,0,0,0,0,0
2110,1762968206510,65231,8145,212,0,0,0,0,0
2111,1762968206545,65236,8131,205,0,0,0,0,0
2112,1762968206611,65245,8142,219,0,0,0,0,0
2113,1762968206693,65224,8128,215,0,0,0,0,0
2114,1762968206777,65241,8139,204,0,0,0,0,0
2115,1762968206844,65230,8134,207,0,0,0,0,0
2116,1762968206911,65234,8128,206,0,0,0,0,0
2117,1762968206978,65233,8140,212,0,0,0,0,0
2118,1762968206993,65230,8129,206,0,0,0,0,0
2119,1762968207043,65236,8134,206,0,0,0,0,0
2120,1762968207093,65232,8136,202,3.31,0,0,0,0
2121,1762968207160,65237,8137,217,0,0,0,0,0
2122,1762968207194,65237,8128,213,0,0,0,0,0
2123,1762968207277,65228,8138,213,0,0,0,0,0
2124,1762968207327,65234,8144,208,1,0,0,0,0
2125,1762968207393,65242,8132,219,0,0,0,0,0
2126,1762968207427,65225,8141,208,0,0,0,0,0
2127,1762968207509,65241,8133,205,0,0,0,0,0
2128,1762968207544,65241,8132,206,0,0,0,0,0
2129,1762968207611,65234,8130,210,0,0,0,0,0
2130,1762968207660,65234,8130,206,0,0,0,0,0
2131,1762968207775,65231,8127,205,0,0,0,0,0
2132,1762968207976,65226,8137,214,0,0,0,0,0
2133,1762968208026,65228,8134,204,0,0,0,0,0
2134,1762968208092,65244,8130,209,0,0,0,0,0
2135,1762968208258,65232,8138,210,0,0,0,0,0
2136,1762968208309,65233,8143,208,0,0,0,0,0
2137,1762968208392,65240,8132,212,0,0,0,0,0
2138,1762968208541,65226,8136,210,0,0,0,0,0
2139,1762968208592,65256,8138,211,0,0,0,0,0
2140,1762968208643,65229,8137,218,0,0,0,0,0
2141,1762968208826,65245,8136,218,0,0,0,0,0
2142,1762968208859,65249,8134,200,0,0,0,0,0
2143,1762968208942,65215,8132,198,0,0,0,0,0
2144,1762968208958,65242,8134,208,0,0,0,0,0
2145,1762968209024,65241,8141,206,0,0,0,0,0
2146,1762968209074,65236,8133,218,0,0,0,0,0
2147,1762968209208,65247,8138,219,0,0,0,0,0
2148,1762968209258,65246,8138,202,0,0,0,0,0
2149,1762968209392,65224,8137,210,1,0,0,0,0
2150,1762968209441,65232,8130,211,0,0,0,0,0
2151,1762968209491,65248,8141,210,0,0,0,0,0
2152,1762968209541,65230,8133,219,0,0,0,0,0
2153,1762968209642,65223,8138,213,3.32,0,0,0,0
2154,1762968209941,65228,8142,204,1,0,0,0,0
2155,1762968210023,65238,8133,205,0,0,0,0,0
2156,1762968210140,65245,8141,205,0,0,0,0,0
2157,1762968210507,65236,8130,212,0,0,0,0,0
2158,1762968212006,65236,8142,214,0,0,0,0,0
2159,1762968212788,65239,8138,214,0,0,0,0,0
2160,1762968212823,65229,8146,208,0,0,0,0,0
2161,1762968213022,65230,8132,215,0,0,0,0,0
2162,1762968213122,65226,8138,211,0,0,0,0,0
2163,1762968213554,65230,8138,212,0,0,0,0,0
2164,1762968213841,65222,8138,212,0,0,0,0,0
2165,1762968213937,65242,8137,197,0,0,0,0,0
2166,1762968214004,65233,8102,230,0,0,0,0,0
2167,1762968214037,65240,7944,205,0,0,0,0,0
2168,1762968214070,65246,8160,207,0,0,0,0,0
2169,1762968214120,65238,8090,236,0,0,0,0,0
2170,1762968214187,65230,8120,234,0,0,0,0,0
2171,1762968214221,65236,8161,181,0,0,0,0,0
2172,1762968214304,65244,8107,212,0,0,0,0,0
2173,1762968214337,65219,8146,200,0,0,0,0,0
2174,1762968214420,65228,8169,184,0,0,0,0,0
2175,1762968214453,65245,8102,232,0,0,0,0,0
2176,1762968214520,65234,8115,226,0,0,0,0,0
2177,1762968214570,65238,8152,202,0,0,0,0,0
2178,1762968214653,65241,8156,194,0,0,0,0,0
2179,1762968214703,65249,8112,224,0,0,0,0,0
2180,1762968214786,65222,8154,208,0,0,0,0,0
2181,1762968214820,65238,8151,199,0,0,0,0,0
2182,1762968214922,65236,8146,218,0,0,0,0,0
2183,1762968215004,65233,8140,204,0,0,0,0,0
2184,1762968215020,65239,8129,218,0,0,0,0,0
2185,1762968215086,65226,8150,207,0,0,0,0,0
2186,1762968215136,65231,8141,211,0,0,0,0,0
2187,1762968215206,65240,8126,220,0,0,0,0,0
2188,1762968215253,65235,8136,210,0,0,0,0,0
2189,1762968215302,65249,8131,210,0,0,0,0,0
2190,1762968215353,65238,8130,206,0,0,0,0,0
2191,1762968215453,65237,8141,206,33191,0,0,0,0
2192,1762968215520,65236,8136,212,0,0,0,0,0
2193,1762968215603,65239,8134,218,0,0,0,0,0
2194,1762968215652,65236,8133,208,1,0,0,0,0
2195,1762968215686,65238,8132,213,0,0,0,0,0
2196,1762968215786,65237,8136,210,0,0,0,0,0
2197,1762968215819,65237,8138,216,0,0,0,0,0
2198,1762968215918,65235,8141,218,3.26,0,0,0,0
2199,1762968215952,65228,8135,205,0,0,0,0,0
2200,1762968216002,65224,8141,206,0,0,0,0,0
2201,1762968216035,65216,8148,205,0,0,0,0,0
2202,1762968216119,65223,8150,204,0,0,0,0,0
2203,1762968216202,65224,8139,214,0,0,0,0,0
2204,1762968216219,65232,8125,230,0,0,0,0,0
2205,1762968216285,65224,8144,221,0,0,0,0,0
2206,1762968216319,65242,8136,226,0,0,0,0,0
2207,1762968216386,65251,8140,219,0,0,0,0,0
2208,1762968216419,65228,8138,200,0,0,0,0,0
2209,1762968216501,65232,8137,208,0,0,0,0,0
2210,1762968216536,65223,8164,230,0,0,0,0,0
2211,1762968216586,65244,8141,197,0,0,0,0,0
2212,1762968216652,65242,8142,209,0,0,0,0,0
2213,1762968216734,65243,8145,214,0,0,0,0,0
2214,1762968216801,65238,8136,215,0,0,0,0,0
2215,1762968216919,65238,8136,215,0,0,0,0,0
2216,1762968216968,65244,8124,221,0,0,0,0,0
2217,1762968217002,65242,8145,221,0,0,0,0,0
2218,1762968217019,65234,8137,225,0,0,0,0,0
2219,1762968217151,65232,8142,214,0,0,0,0,0
2220,1762968217201,65228,8137,215,0,0,0,0,0
2221,1762968217251,65233,8128,212,0,0,0,0,0
2222,1762968217301,65236,8138,222,0,0,0,0,0
2223,1762968217351,65236,8131,208,0,0,0,0,0
2224,1762968217485,65235,8135,210,0,0,0,0,0
2225,1762968217534,65234,8138,206,0,0,0,0,0
2226,1762968217567,65233,8132,210,0,0,0,0,0
2227,1762968217635,65226,8144,208,0,0,0,0,0
2228,1762968217667,65229,8134,214,0,0,0,0,0
2229,1762968217735,65232,8136,202,0,0,0,0,0
2230,1762968217784,65242,8142,217,0,0,0,0,0
2231,1762968217835,65240,8135,215,0,0,0,0,0
2232,1762968217868,65241,8138,214,0,0,0,0,0
2233,1762968217967,65229,8141,216,0,0,0,0,0
2234,1762968218017,65237,8136,218,0,0,0,0,0
2235,1762968218083,65224,8137,209,0,0,0,0,0
2236,1762968218117,65240,8132,208,0,0,0,0,0
2237,1762968218184,65234,8132,212,0,0,0,0,0
2238,1762968218200,65233,8136,202,0,0,0,0,0
2239,1762968218317,65230,8141,210,0,0,0,0,0
2240,1762968218350,65242,8141,213,0,0,0,0,0
2241,1762968218401,65238,8136,211,0,0,0,0,0
2242,1762968218433,65243,8133,205,0,0,0,0,0
2243,1762968218517,65237,8138,210,0,0,0,0,0
2244,1762968218551,65235,8138,224,0,0,0,0,0
2245,1762968218635,65238,8136,206,0,0,0,0,0
2246,1762968218684,65230,8135,212,0,0,0,0,0
2247,1762968218784,65228,8136,209,0,0,0,0,0
2248,1762968218800,65246,8135,211,0,0,0,0,0
2249,1762968218916,65236,8132,202,0,0,0,0,0
2250,1762968218951,65240,8132,212,0,0,0,0,0
2251,1762968219050,65229,8135,214,0,0,0,0,0
2252,1762968219066,65228,8136,208,0,0,0,0,0
2253,1762968219167,65232,8130,218,0,0,0,0,0
2254,1762968219250,65228,8142,216,0,0,0,0,0
2255,1762968219283,65219,8138,202,0,0,0,0,0
2256,1762968219350,65234,8137,201,0,0,0,0,0
2257,1762968219399,65235,8140,209,0,0,0,0,0
2258,1762968219517,65235,8132,219,0,0,0,0,0
2259,1762968219566,65230,8130,208,0,0,0,0,0
2260,1762968219616,65240,8140,210,3.31,0,0,0,0
2261,1762968219683,65230,8138,208,0,0,0,0,0
2262,1762968219767,65233,8138,214,0,0,0,0,0
2263,1762968219866,65236,8139,214,0,0,0,0,0
2264,1762968219932,65230,8134,211,0,0,0,0,0
2265,1762968220032,65234,8134,210,0,0,0,0,0
2266,1762968220065,65230,8138,212,0,0,0,0,0
2267,1762968220082,65237,8128,211,0,0,0,0,0
2268,1762968220116,65234,8143,212,0,0,0,0,0
2269,1762968220167,65236,8140,218,0,0,0,0,0
2270,1762968220232,65239,8120,216,0,0,0,0,0
2271,1762968220349,65243,8141,212,0,0,0,0,0
2272,1762968220415,65239,8144,199,3.31,0,0,0,0
2273,1762968220548,65234,8133,217,0,0,0,0,0
2274,1762968220582,65230,8124,202,0,0,0,0,0
2275,1762968220616,65236,8137,198,0,0,0,0,0
2276,1762968220649,65238,8127,212,0,0,0,0,0
2277,1762968220732,65243,8138,214,0,0,0,0,0
2278,1762968220783,65228,8136,210,0,0,0,0,0
2279,1762968220848,65234,8130,206,0,0,0,0,0
2280,1762968220898,65230,8143,204,0,0,0,0,0
2281,1762968221015,65234,8126,206,0,0,0,0,0
2282,1762968221082,65234,8140,201,0,0,0,0,0
2283,1762968221132,65235,8128,210,0,0,0,0,0
2284,1762968221181,65234,8136,213,1,0,0,0,0
2285,1762968221315,65234,8136,215,0,0,0,0,0
2286,1762968221381,65234,8134,204,0,0,0,0,0
2287,1762968221432,65241,8128,205,0,0,0,0,0
2288,1762968221514,65242,8137,208,0,0,0,0,0
2289,1762968221548,65233,8134,205,0,0,0,0,0
2290,1762968221582,65238,8134,210,0,0,0,0,0
2291,1762968221631,65235,8141,208,0,0,0,0,0
2292,1762968221781,65238,8139,214,0,0,0,0,0
2293,1762968221814,65232,8134,204,0,0,0,0,0
2294,1762968221897,65243,8137,210,0,0,0,0,0
2295,1762968221931,65238,8131,208,0,0,0,0,0
2296,1762968222081,65238,8132,215,0,0,0,0,0
2297,1762968222098,65226,8137,213,0,0,0,0,0
2298,1762968222214,65223,8137,204,3.31,0,0,0,0
2299,1762968222363,65235,8138,208,0,0,0,0,0
2300,1762968222464,65242,8142,215,0,0,0,0,0
2301,1762968222514,65241,8128,207,0,0,0,0,0
2302,1762968222580,65238,8136,210,0,0,0,0,0
2303,1762968222648,65229,8136,214,0,0,0,0,0
2304,1762968222814,65234,8134,208,0,0,0,0,0
2305,1762968222914,65234,8140,206,0,0,0,0,0
2306,1762968222963,65236,8128,210,0,0,0,0,0
2307,1762968223013,65231,8136,210,0,0,0,0,0
2308,1762968223147,65229,8140,215,0,0,0,0,0
2309,1762968223246,65233,8140,207,0,0,0,0,0
2310,1762968223280,65236,8133,198,0,0,0,0,0
2311,1762968223348,65234,8142,207,0,0,0,0,0
2312,1762968223364,65237,8134,214,0,0,0,0,0
2313,1762968223447,65237,8140,208,0,0,0,0,0
2314,1762968223512,65228,8124,210,0,0,0,0,0
2315,1762968223629,65238,8127,217,0,0,0,0,0
2316,1762968223680,65232,8133,207,0,0,0,0,0
2317,1762968223779,65238,8138,214,0,0,0,0,0
2318,1762968223929,65248,8134,214,0,0,0,0,0
2319,1762968223980,65236,8125,209,0,0,0,0,0
2320,1762968224046,65235,8127,221,0,0,0,0,0
2321,1762968224079,65226,8130,214,0,0,0,0,0
2322,1762968224112,65235,8144,205,0,0,0,0,0
2323,1762968224246,65233,8144,206,3.32,0,0,0,0
2324,1762968224345,65222,8125,214,0,0,0,0,0
2325,1762968224396,65236,8128,213,0,0,0,0,0
2326,1762968224429,65248,8148,210,0,0,0,0,0
2327,1762968224479,65236,8130,212,0,0,0,0,0
2328,1762968224513,65237,8150,208,0,0,0,0,0
2329,1762968224579,65241,8126,210,0,0,0,0,0
2330,1762968224596,65236,8126,218,0,0,0,0,0
2331,1762968224729,65237,8135,206,0,0,0,0,0
2332,1762968224812,65236,8138,205,0,0,0,0,0
2333,1762968224911,65240,8133,205,0,0,0,0,0
2334,1762968224962,65236,8129,214,0,0,0,0,0
2335,1762968225012,65230,8134,212,0,0,0,0,0
2336,1762968225094,65230,8136,218,0,0,0,0,0
2337,1762968225162,65229,8136,212,0,0,0,0,0
2338,1762968225261,65233,8136,218,0,0,0,0,0
2339,1762968225311,65239,8126,212,0,0,0,0,0
2340,1762968225361,65240,8149,206,0,0,0,0,0
2341,1762968225412,65237,8138,207,0,0,0,0,0
2342,1762968225445,65242,8132,206,0,0,0,0,0
2343,1762968225595,65235,8132,216,0,0,0,0,0
2344,1762968225645,65229,8133,206,0,0,0,0,0
2345,1762968225728,65239,8135,208,0,0,0,0,0
2346,1762968225811,65233,8138,215,0,0,0,0,0
2347,1762968225845,65234,8133,205,0,0,0,0,0
2348,1762968225928,65240,8138,212,3.26,0,0,0,0
2349,1762968226011,65244,8131,212,0,0,0,0,0
2350,1762968226095,65234,8135,204,0,0,0,0,0
2351,1762968226127,65235,8140,203,1,0,0,0,0
2352,1762968226210,65234,8132,208,0,0,0,0,0
2353,1762968226227,65240,8129,220,0,0,0,0,0
2354,1762968226311,65232,8134,212,0,0,0,0,0
2355,1762968226344,65240,8132,213,0,0,0,0,0
2356,1762968226410,65234,8141,216,0,0,0,0,0
2357,1762968226462,65233,8140,202,0,0,0,0,0
2358,1762968226527,65234,8126,212,0,0,0,0,0
2359,1762968226577,65236,8142,209,0,0,0,0,0
2360,1762968226644,65240,8142,206,0,0,0,0,0
2361,1762968226759,65234,8139,218,0,0,0,0,0
2362,1762968226810,65231,8132,215,0,0,0,0,0
2363,1762968226860,65240,8135,206,0,0,0,0,0
2364,1762968226943,65234,8132,206,0,0,0,0,0
2365,1762968226993,65243,8137,210,0,0,0,0,0
2366,1762968227026,65230,8135,208,0,0,0,0,0
2367,1762968227076,65232,8134,211,0,0,0,0,0
2368,1762968227110,65233,8138,205,0,0,0,0,0
2369,1762968227193,65232,8134,212,0,0,0,0,0
2370,1762968227259,65228,8135,210,0,0,0,0,0
2371,1762968227310,65241,8134,209,0,0,0,0,0
2372,1762968227360,65231,8136,206,0,0,0,0,0
2373,1762968227426,65226,8143,207,0,0,0,0,0
2374,1762968227492,65242,8133,205,0,0,0,0,0
2375,1762968227543,65238,8135,208,0,0,0,0,0
2376,1762968227593,65235,8137,206,0,0,0,0,0
2377,1762968227677,65240,8135,208,0,0,0,0,0
2378,1762968227726,65233,8136,212,0,0,0,0,0
2379,1762968227776,65230,8132,214,0,0,0,0,0
2380,1762968227827,65231,8134,219,0,0,0,0,0
2381,1762968227893,65232,8135,212,0,0,0,0,0
2382,1762968227993,65238,8140,209,3.26,0,0,0,0
2383,1762968228009,65232,8137,210,0,0,0,0,0
2384,1762968228092,65238,8136,209,0,0,0,0,0
2385,1762968228125,65237,8140,204,0,0,0,0,0
2386,1762968228192,65230,8134,220,0,0,0,0,0
2387,1762968228226,65231,8145,205,0,0,0,0,0
2388,1762968228292,65244,8133,210,0,0,0,0,0
2389,1762968228359,65239,8136,205,0,0,0,0,0
2390,1762968228442,65240,8132,198,33189,0,0,0,0
2391,1762968228491,65241,8137,214,0,0,0,0,0
2392,1762968228525,65232,8145,216,0,0,0,0,0
2393,1762968228609,65238,8137,218,0,0,0,0,0
2394,1762968228708,65232,8137,198,0,0,0,0,0
2395,1762968228759,65246,8135,209,0,0,0,0,0
2396,1762968228842,65241,8134,210,0,0,0,0,0
2397,1762968228875,65238,8142,208,0,0,0,0,0
2398,1762968229025,65236,8138,207,0,0,0,0,0
2399,1762968229058,65242,8137,216,0,0,0,0,0
2400,1762968229159,65229,8141,208,0,0,0,0,0
2401,1762968229192,65234,8139,208,0,0,0,0,0
2402,1762968229258,65229,8123,212,0,0,0,0,0
2403,1762968229324,65234,8144,208,0,0,0,0,0
2404,1762968229392,65238,8134,210,0,0,0,0,0
2405,1762968229474,65237,8134,213,0,0,0,0,0
2406,1762968229508,65237,8128,212,0,0,0,0,0
2407,1762968229557,65237,8132,211,0,0,0,0,0
2408,1762968229608,65228,8131,205,0,0,0,0,0
2409,1762968229642,65235,8135,210,0,0,0,0,0
2410,1762968229725,65238,8138,204,3.28,0,0,0,0
2411,1762968229808,65242,8139,216,0,0,0,0,0
2412,1762968229824,65241,8138,210,0,0,0,0,0
2413,1762968229958,65234,8132,216,0,0,0,0,0
2414,1762968230107,65232,8134,208,0,0,0,0,0
2415,1762968230390,65233,8136,208,0,0,0,0,0
2416,1762968230458,65239,8140,211,0,0,0,0,0
2417,1762968230623,65240,8136,216,0,0,0,0,0
2418,1762968230658,65229,8139,211,0,0,0,0,0
2419,1762968230758,65233,8135,208,0,0,0,0,0
2420,1762968230758,65237,8130,208,0,0,0,0,0
2421,1762968230907,65235,8131,205,0,0,0,0,0
2422,1762968230940,65233,8136,208,0,0,0,0,0
2423,1762968231041,65233,8129,218,3.26,0,0,0,0
2424,1762968231140,65233,8134,208,0,0,0,0,0
2425,1762968231323,65240,8136,212,0,0,0,0,0
2426,1762968231406,65237,8138,197,0,0,0,0,0
2427,1762968231456,65231,8129,210,0,0,0,0,0
2428,1762968231540,65236,8139,214,0,0,0,0,0
2429,1762968231572,65236,8139,213,0,0,0,0,0
2430,1762968231656,65237,8130,208,0,0,0,0,0
2431,1762968231708,65225,8138,210,0,0,0,0,0
2432,1762968231723,65224,8139,206,0,0,0,0,0
2433,1762968231939,65231,8138,208,0,0,0,0,0
2434,1762968232023,65240,8135,210,0,0,0,0,0
2435,1762968232123,65232,8131,224,1,0,0,0,0
2436,1762968232223,65234,8142,202,0,0,0,0,0
2437,1762968232273,65236,8128,222,3.28,0,0,0,0
2438,1762968232355,65233,8133,211,0,0,0,0,0
2439,1762968232389,65234,8136,212,0,0,0,0,0
2440,1762968232456,65232,8141,215,0,0,0,0,0
2441,1762968232522,65237,8136,209,0,0,0,0,0
2442,1762968232638,65226,8136,207,0,0,0,0,0
2443,1762968232705,65236,8140,220,0,0,0,0,0
2444,1762968232789,65231,8130,214,0,0,0,0,0
2445,1762968232905,65225,8130,212,0,0,0,0,0
2446,1762968232972,65231,8128,208,3.31,0,0,0,0
2447,1762968233039,65234,8138,207,0,0,0,0,0
2448,1762968233104,65240,8136,214,0,0,0,0,0
2449,1762968233172,65235,8132,216,0,0,0,0,0
2450,1762968233205,65230,8153,214,0,0,0,0,0
2451,1762968233272,65236,8132,214,0,0,0,0,0
2452,1762968233438,65227,8136,211,0,0,0,0,0
2453,1762968233522,65238,8132,210,0,0,0,0,0
2454,1762968233571,65234,8131,207,0,0,0,0,0
2455,1762968233604,65234,8140,214,0,0,0,0,0
2456,1762968233688,65236,8132,212,0,0,0,0,0
2457,1762968233722,65234,8142,206,0,0,0,0,0
2458,1762968233805,65233,8140,206,0,0,0,0,0
2459,1762968233854,65230,8134,217,0,0,0,0,0
2460,1762968233937,65237,8135,210,0,0,0,0,0
2461,1762968233955,65237,8132,205,0,0,0,0,0
2462,1762968234021,65230,8136,210,0,0,0,0,0
2463,1762968234038,65234,8133,210,0,0,0,0,0
2464,1762968234121,65236,8138,218,0,0,0,0,0
2465,1762968234154,65230,8128,215,0,0,0,0,0
2466,1762968234237,65237,8135,204,0,0,0,0,0
2467,1762968234288,65232,8133,207,0,0,0,0,0
2468,1762968234404,65237,8136,210,0,0,0,0,0
2469,1762968234471,65228,8134,205,0,0,0,0,0
2470,1762968234521,65233,8135,203,0,0,0,0,0
2471,1762968234637,65241,8129,203,0,0,0,0,0
2472,1762968234754,65236,8139,210,0,0,0,0,0
2473,1762968234803,65230,8137,217,0,0,0,0,0
2474,1762968235020,65237,8145,205,0,0,0,0,0
2475,1762968235037,65236,8135,209,0,0,0,0,0
2476,1762968235104,65239,8137,198,0,0,0,0,0
2477,1762968235337,65237,8136,214,0,0,0,0,0
2478,1762968235370,65235,8136,205,0,0,0,0,0
2479,1762968235503,65240,8138,209,0,0,0,0,0
2480,1762968235619,65240,8138,212,0,0,0,0,0
2481,1762968235669,65234,8136,204,0,0,0,0,0
2482,1762968235736,65234,8132,207,0,0,0,0,0
2483,1762968235802,65234,8134,218,0,0,0,0,0
2484,1762968235852,65235,8133,203,0,0,0,0,0
2485,1762968235936,65228,8134,214,0,0,0,0,0
2486,1762968236036,65238,8134,208,0,0,0,0,0
2487,1762968236052,65234,8133,209,0,0,0,0,0
2488,1762968236136,65237,8130,208,0,0,0,0,0
2489,1762968236219,65233,8134,210,0,0,0,0,0
2490,1762968236236,65243,8142,213,0,0,0,0,0
2491,1762968236369,65241,8136,214,0,0,0,0,0
2492,1762968236418,65229,8145,215,0,0,0,0,0
2493,1762968236470,65238,8126,210,0,0,0,0,0
2494,1762968236537,65233,8132,213,0,0,0,0,0
2495,1762968236653,65234,8126,204,0,0,0,0,0
2496,1762968236818,65238,8134,211,0,0,0,0,0
2497,1762968236884,65232,8141,212,0,0,0,0,0
2498,1762968237051,65232,8137,216,0,0,0,0,0
2499,1762968237085,65228,8141,200,0,0,0,0,0
2500,1762968237118,65239,8140,211,0,0,0,0,0
2501,1762968237201,65234,8139,207,0,0,0,0,0
2502,1762968237318,65231,8137,214,0,0,0,0,0
2503,1762968237385,65235,8139,210,0,0,0,0,0
2504,1762968237552,65240,8133,208,0,0,0,0,0
2505,1762968237617,65231,8128,212,0,0,0,0,0
2506,1762968237668,65236,8136,200,0,0,0,0,0
2507,1762968237884,65230,8131,210,0,0,0,0,0
2508,1762968238083,65235,8134,215,0,0,0,0,0
2509,1762968238317,65246,8138,212,0,0,0,0,0
2510,1762968238385,65242,8134,204,0,0,0,0,0
2511,1762968238433,65232,8133,214,33191,0,0,0,0
2512,1762968238667,65232,8123,212,0,0,0,0,0
2513,1762968238950,65225,8134,211,0,0,0,0,0
2514,1762968239001,65231,8135,207,0,0,0,0,0
2515,1762968239117,65236,8136,210,0,0,0,0,0
2516,1762968239134,65234,8132,199,0,0,0,0,0
2517,1762968239167,65233,8134,212,0,0,0,0,0
2518,1762968239316,65242,8132,214,0,0,0,0,0
2519,1762968240515,65234,8135,211,0,0,0,0,0
2520,1762968240566,65244,8142,210,0,0,0,0,0
2521,1762968240616,65234,8131,206,0,0,0,0,0
2522,1762968240699,65240,8134,214,0,0,0,0,0
2523,1762968240798,65236,8133,212,0,0,0,0,0
2524,1762968240849,65236,8131,206,0,0,0,0,0
2525,1762968240931,65223,8138,207,0,0,0,0,0
2526,1762968241016,65234,8131,202,0,0,0,0,0
2527,1762968241082,65228,8130,212,0,0,0,0,0
2528,1762968241098,65236,8136,213,0,0,0,0,0
2529,1762968241150,65225,8138,211,0,0,0,0,0
2530,1762968241198,65240,8137,210,0,0,0,0,0
2531,1762968241264,65232,8126,212,0,0,0,0,0
2532,1762968241314,65238,8130,208,0,0,0,0,0
2533,1762968241382,65239,8140,204,0,0,0,0,0
2534,1762968241430,65230,8130,198,0,0,0,0,0
2535,1762968241497,65230,8131,212,0,0,0,0,0
2536,1762968241547,65238,8137,208,0,0,0,0,0
2537,1762968241614,65236,8131,206,0,0,0,0,0
2538,1762968241664,65248,8142,208,0,0,0,0,0
2539,1762968241748,65231,8132,211,3.26,0,0,0,0
2540,1762968241797,65231,8132,212,0,0,0,0,0
2541,1762968241848,65235,8146,212,0,0,0,0,0
2542,1762968241964,65236,8133,221,1,0,0,0,0
2543,1762968242064,65224,8136,206,0,0,0,0,0
2544,1762968242148,65242,8146,194,0,0,0,0,0
2545,1762968242199,65243,8136,220,0,0,0,0,0
2546,1762968242264,65235,8147,210,0,0,0,0,0
2547,1762968242314,65232,8134,211,0,0,0,0,0
2548,1762968242381,65236,8131,206,0,0,0,0,0
2549,1762968242447,65239,8127,212,0,0,0,0,0
2550,1762968242514,65234,8136,206,0,0,0,0,0
2551,1762968242563,65230,8136,203,0,0,0,0,0
2552,1762968242631,65232,8134,203,0,0,0,0,0
2553,1762968242681,65238,8139,203,0,0,0,0,0
2554,1762968242831,65228,8144,204,0,0,0,0,0
2555,1762968242881,65238,8142,203,0,0,0,0,0
2556,1762968242964,65241,8122,215,0,0,0,0,0
2557,1762968243063,65223,8137,206,0,0,0,0,0
2558,1762968243130,65194,8143,243,0,0,0,0,0
2559,1762968243164,65236,8181,264,0,0,0,0,0
2560,1762968243281,65225,8148,213,0,0,0,0,0
2561,1762968243346,65227,8158,199,0,0,0,0,0
2562,1762968243396,65232,8124,198,0,0,0,0,0
2563,1762968243513,65245,8140,211,0,0,0,0,0
2564,1762968243562,65236,8134,221,0,0,0,0,0
2565,1762968243612,65226,8136,199,0,0,0,0,0
2566,1762968243663,65230,8133,211,0,0,0,0,0
2567,1762968243712,65229,8136,208,0,0,0,0,0
2568,1762968243796,65238,8134,209,0,0,0,0,0
2569,1762968243862,65238,8134,203,0,0,0,0,0
2570,1762968243912,65235,8124,204,0,0,0,0,0
2571,1762968243962,65238,8137,222,0,0,0,0,0
2572,1762968244012,65244,8138,199,0,0,0,0,0
2573,1762968244046,65230,8138,202,0,0,0,0,0
2574,1762968244113,65230,8142,205,0,0,0,0,0
2575,1762968244162,65235,8129,205,0,0,0,0,0
2576,1762968244263,65234,8136,203,3.32,0,0,0,0
2577,1762968244279,65234,8141,214,0,0,0,0,0
2578,1762968244345,65238,8142,212,0,0,0,0,0
2579,1762968244429,65226,8139,222,0,0,0,0,0
2580,1762968244529,65239,8126,205,0,0,0,0,0
2581,1762968244580,65234,8134,211,0,0,0,0,0
2582,1762968244645,65238,8134,208,0,0,0,0,0
2583,1762968244712,65235,8134,210,33190,0,0,0,0
2584,1762968244762,65232,8135,211,0,0,0,0,0
2585,1762968244811,65235,8131,212,0,0,0,0,0
2586,1762968244928,65245,8133,212,1,0,0,0,0
2587,1762968244995,65236,8132,214,0,0,0,0,0
2588,1762968245044,65239,8140,212,0,0,0,0,0
2589,1762968245111,65237,8137,212,0,0,0,0,0
2590,1762968245146,65243,8133,207,0,0,0,0,0
2591,1762968245229,65227,8142,211,0,0,0,0,0
2592,1762968245261,65234,8138,208,0,0,0,0,0
2593,1762968245344,65238,8140,208,0,0,0,0,0
2594,1762968245377,65232,8136,209,0,0,0,0,0
2595,1762968245478,65232,8134,210,0,0,0,0,0
2596,1762968245527,65238,8132,214,0,0,0,0,0
2597,1762968245628,65233,8144,205,0,0,0,0,0
2598,1762968245661,65240,8134,206,0,0,0,0,0
2599,1762968245711,65231,8130,208,0,0,0,0,0
2600,1762968245810,65228,8137,216,0,0,0,0,0
2601,1762968245861,65238,8137,212,0,0,0,0,0
2602,1762968246044,65236,8139,208,0,0,0,0,0
2603,1762968246144,65232,8134,204,0,0,0,0,0
2604,1762968246211,65234,8136,216,0,0,0,0,0
2605,1762968246244,65238,8136,204,0,0,0,0,0
2606,1762968246326,65236,8130,220,0,0,0,0,0
2607,1762968246377,65239,8138,202,0,0,0,0,0
2608,1762968246460,65230,8131,216,0,0,0,0,0
2609,1762968246477,65220,8140,206,0,0,0,0,0
2610,1762968246562,65228,8140,206,0,0,0,0,0
2611,1762968246593,65234,8133,202,0,0,0,0,0
2612,1762968246660,65237,8135,208,0,0,0,0,0
2613,1762968246709,65233,8141,214,0,0,0,0,0
2614,1762968246859,65233,8136,213,0,0,0,0,0
2615,1762968246926,65234,8130,208,0,0,0,0,0
2616,1762968246960,65236,8142,209,0,0,0,0,0
2617,1762968247010,65238,8132,210,0,0,0,0,0
2618,1762968247059,65242,8140,220,0,0,0,0,0
2619,1762968247143,65238,8142,215,0,0,0,0,0
2620,1762968247192,65238,8137,226,0,0,0,0,0
2621,1762968247243,65240,8129,226,0,0,0,0,0
2622,1762968247326,65235,8132,217,0,0,0,0,0
2623,1762968247359,65246,8133,214,0,0,0,0,0
2624,1762968247425,65226,8133,198,0,0,0,0,0
2625,1762968247460,65234,8128,214,0,0,0,0,0
2626,1762968247543,65245,8138,194,0,0,0,0,0
2627,1762968247576,65233,8136,203,0,0,0,0,0
2628,1762968247659,65234,8140,215,0,0,0,0,0
2629,1762968247676,65236,8131,204,0,0,0,0,0
2630,1762968247776,65240,8136,202,0,0,0,0,0
2631,1762968247826,65246,8137,209,0,0,0,0,0
2632,1762968247942,65233,8146,210,0,0,0,0,0
2633,1762968247977,65237,8137,209,0,0,0,0,0
2634,1762968248026,65234,8137,214,3.31,0,0,0,0
2635,1762968248076,65233,8135,206,0,0,0,0,0
2636,1762968248092,65234,8130,217,0,0,0,0,0
2637,1762968248159,65224,8134,207,0,0,0,0,0
2638,1762968248209,65242,8140,217,0,0,0,0,0
2639,1762968248259,65235,8136,202,0,0,0,0,0
2640,1762968248310,65229,8138,213,0,0,0,0,0
2641,1762968248375,65228,8132,208,0,0,0,0,0
2642,1762968248425,65246,8145,211,0,0,0,0,0
2643,1762968248509,65234,8136,210,0,0,0,0,0
2644,1762968248542,65230,8132,211,0,0,0,0,0
2645,1762968248608,65237,8135,204,0,0,0,0,0
2646,1762968248658,65241,8137,214,0,0,0,0,0
2647,1762968248742,65236,8130,206,0,0,0,0,0
2648,1762968248810,65230,8138,204,0,0,0,0,0
2649,1762968248943,65232,8132,209,0,0,0,0,0
2650,1762968248991,65239,8136,211,0,0,0,0,0
2651,1762968249041,65237,8128,209,0,0,0,0,0
2652,1762968249092,65236,8136,204,0,0,0,0,0
2653,1762968249191,65238,8135,207,0,0,0,0,0
2654,1762968249275,65234,8133,210,0,0,0,0,0
2655,1762968249308,65238,8131,208,0,0,0,0,0
2656,1762968249391,65236,8133,216,0,0,0,0,0
2657,1762968249425,65228,8132,212,0,0,0,0,0
2658,1762968249507,65239,8129,203,0,0,0,0,0
2659,1762968249543,65236,8130,212,0,0,0,0,0
2660,1762968249625,65240,8135,210,0,0,0,0,0
2661,1762968249674,65241,8134,214,0,0,0,0,0
2662,1762968249775,65238,8132,210,0,0,0,0,0
2663,1762968249874,65236,8135,207,0,0,0,0,0
2664,1762968249891,65234,8137,208,0,0,0,0,0
2665,1762968250008,65234,8134,216,0,0,0,0,0
2666,1762968250025,65233,8137,210,0,0,0,0,0
2667,1762968250074,65233,8140,211,0,0,0,0,0
2668,1762968250108,65239,8131,210,0,0,0,0,0
2669,1762968250191,65228,8129,213,0,0,0,0,0
2670,1762968250224,65237,8142,211,0,0,0,0,0
2671,1762968250290,65240,8139,206,0,0,0,0,0
2672,1762968250324,65231,8134,224,0,0,0,0,0
2673,1762968250391,65232,8135,210,0,0,0,0,0
2674,1762968250424,65232,8134,216,0,0,0,0,0
2675,1762968250507,65229,8136,209,3.31,0,0,0,0
2676,1762968250540,65227,8132,212,0,0,0,0,0
2677,1762968250657,65232,8135,214,0,0,0,0,0
2678,1762968250723,65240,8133,210,0,0,0,0,0
2679,1762968250774,65232,8136,209,0,0,0,0,0
2680,1762968250825,65233,8135,208,0,0,0,0,0
2681,1762968250857,65234,8139,205,0,0,0,0,0
2682,1762968251006,65243,8136,216,33190,0,0,0,0
2683,1762968251056,65238,8137,209,0,0,0,0,0
2684,1762968251090,65236,8137,207,0,0,0,0,0
2685,1762968251189,65236,8137,206,1,0,0,0,0
2686,1762968251239,65232,8134,209,0,0,0,0,0
2687,1762968251289,65236,8131,216,0,0,0,0,0
2688,1762968251340,65238,8143,206,0,0,0,0,0
2689,1762968251406,65239,8129,213,0,0,0,0,0
2690,1762968251455,65231,8135,213,0,0,0,0,0
2691,1762968251523,65240,8140,212,0,0,0,0,0
2692,1762968251573,65244,8136,215,0,0,0,0,0
2693,1762968251639,65234,8131,212,0,0,0,0,0
2694,1762968251673,65235,8137,214,0,0,0,0,0
2695,1762968251739,65235,8142,207,0,0,0,0,0
2696,1762968251790,65240,8134,210,0,0,0,0,0
2697,1762968251856,65233,8134,204,0,0,0,0,0
2698,1762968251906,65236,8134,214,0,0,0,0,0
2699,1762968251989,65234,8140,205,0,0,0,0,0
2700,1762968252090,65238,8143,206,0,0,0,0,0
2701,1762968252173,65238,8132,203,0,0,0,0,0
2702,1762968252239,65234,8136,205,0,0,0,0,0
2703,1762968252272,65228,8133,207,0,0,0,0,0
2704,1762968252339,65234,8132,206,0,0,0,0,0
2705,1762968252389,65234,8135,206,0,0,0,0,0
2706,1762968252455,65240,8137,223,0,0,0,0,0
2707,1762968252488,65230,8138,206,0,0,0,0,0
2708,1762968252556,65238,8130,209,0,0,0,0,0
2709,1762968252638,65232,8136,211,0,0,0,0,0
2710,1762968252656,65232,8138,213,0,0,0,0,0
2711,1762968252755,65242,8138,208,0,0,0,0,0
2712,1762968252822,65234,8143,211,0,0,0,0,0
2713,1762968252923,65229,8138,205,0,0,0,0,0
2714,1762968252972,65241,8138,208,0,0,0,0,0
2715,1762968253055,65238,8134,206,0,0,0,0,0
2716,1762968253122,65234,8139,207,0,0,0,0,0
2717,1762968253172,65229,8133,203,0,0,0,0,0
2718,1762968253172,65233,8132,206,0,0,0,0,0
2719,1762968253272,65239,8132,212,0,0,0,0,0
2720,1762968253339,65234,8139,210,0,0,0,0,0
2721,1762968253388,65232,8132,206,0,0,0,0,0
2722,1762968253456,65236,8137,209,3.31,0,0,0,0
2723,1762968253507,65240,8130,203,0,0,0,0,0
2724,1762968253571,65233,8138,202,0,0,0,0,0
2725,1762968253622,65234,8132,208,0,0,0,0,0
2726,1762968253688,65237,8129,212,0,0,0,0,0
2727,1762968253738,65233,8138,210,1,0,0,0,0
2728,1762968253787,65226,8134,216,0,0,0,0,0
2729,1762968253871,65228,8138,209,0,0,0,0,0
2730,1762968253904,65232,8129,206,0,0,0,0,0
2731,1762968253971,65230,8136,208,0,0,0,0,0
2732,1762968254037,65235,8132,208,0,0,0,0,0
2733,1762968254071,65230,8133,206,0,0,0,0,0
2734,1762968254137,65238,8128,210,0,0,0,0,0
2735,1762968254187,65234,8136,213,0,0,0,0,0
2736,1762968254238,65234,8137,207,0,0,0,0,0
2737,1762968254287,65236,8140,212,33191,0,0,0,0
2738,1762968254388,65229,8141,208,0,0,0,0,0
2739,1762968254438,65226,8136,204,0,0,0,0,0
2740,1762968254504,65228,8138,206,1,0,0,0,0
2741,1762968254554,65231,8131,207,0,0,0,0,0
2742,1762968254587,65229,8130,212,0,0,0,0,0
