index,date,GYRO_X,GYRO_Y,GYRO_Z,1,2,3,4,5
0,1762968053571,3,65529,65534,0,0,0,0,0
1,1762968053653,3,65526,65533,0,0,0,0,0
2,1762968053753,6,65526,2,0,0,0,0,0
3,1762968053803,5,65530,0,0,0,0,0,0
4,1762968053853,2,65528,65534,0,0,0,0,0
5,1762968053903,3,65528,65534,0,0,0,0,0
6,1762968053953,4,65527,1,0,0,0,0,0
7,1762968054019,5,65528,0,0,0,0,0,0
8,1762968054071,3,65527,65534,0,0,0,0,0
9,1762968054136,4,65530,65534,0,0,0,0,0
10,1762968054169,3,65526,0,0,0,0,0,0
11,1762968054253,3,65527,0,0,0,0,0,0
12,1762968054286,4,65529,65534,0,0,0,0,0
13,1762968054485,3,65528,0,3.32,0,0,0,0
14,1762968054519,3,65527,65535,0,0,0,0,0
15,1762968054669,3,65529,65535,0,0,0,0,0
16,1762968054768,3,65530,65534,0,0,0,0,0
17,1762968054836,2,65527,65535,0,0,0,0,0
18,1762968054852,5,65529,65535,0,0,0,0,0
19,1762968054952,4,65527,65534,0,0,0,0,0
20,1762968055003,3,65529,65535,0,0,0,0,0
21,1762968055052,3,65529,65535,0,0,0,0,0
22,1762968055120,3,65529,65535,0,0,0,0,0
23,1762968055169,3,65527,65535,0,0,0,0,0
24,1762968055235,3,65528,65535,0,0,0,0,0
25,1762968055352,4,65527,0,0,0,0,0,0
26,1762968055401,1,65529,65535,0,0,0,0,0
27,1762968055619,5,65528,0,0,0,0,0,0
28,1762968055636,3,65527,0,0,0,0,0,0
29,1762968055735,4,65530,65535,0,0,0,0,0
30,1762968055801,3,65528,65534,0,0,0,0,0
31,1762968055851,5,65529,0,0,0,0,0,0
32,1762968055918,1,65529,65535,0,0,0,0,0
33,1762968056085,4,65527,65535,0,0,0,0,0
34,1762968056151,3,65528,0,0,0,0,0,0
35,1762968056185,2,65528,65535,0,0,0,0,0
36,1762968056284,3,65529,65535,0,0,0,0,0
37,1762968056451,4,65530,65534,0,0,0,0,0
38,1762968056484,3,65527,0,0,0,0,0,0
39,1762968056717,4,65528,0,0,0,0,0,0
40,1762968056801,1,65529,65535,0,0,0,0,0
41,1762968056850,3,65529,65535,0,0,0,0,0
42,1762968056917,1,65528,65535,0,0,0,0,0
43,1762968056967,4,65527,0,0,0,0,0,0
44,1762968057034,4,65527,65534,0,0,0,0,0
45,1762968057084,4,65528,65535,0,0,0,0,0
46,1762968057134,4,65528,65534,0,0,0,0,0
47,1762968057217,6,65528,0,0,0,0,0,0
48,1762968057334,3,65529,0,0,0,0,0,0
49,1762968057433,3,65529,0,0,0,0,0,0
50,1762968057550,2,65530,65535,0,0,0,0,0
51,1762968057600,4,65528,65535,0,0,0,0,0
52,1762968057700,3,65528,65535,0,0,0,0,0
53,1762968057733,4,65527,65535,0,0,0,0,0
54,1762968057833,3,65528,65535,0,0,0,0,0
55,1762968057916,4,65528,0,0,0,0,0,0
56,1762968058016,3,65528,65535,0,0,0,0,0
57,1762968058083,2,65527,0,0,0,0,0,0
58,1762968058149,8,65529,3,0,0,0,0,0
59,1762968058200,65532,65532,65533,0,0,0,0,0
60,1762968058266,6,65529,65534,0,0,0,0,0
61,1762968058349,5,65528,1,0,0,0,0,0
62,1762968058467,6,65530,65535,0,0,0,0,0
63,1762968058499,4,65527,0,0,0,0,0,0
64,1762968058699,5,65528,65534,0,0,0,0,0
65,1762968058749,3,65529,0,0,0,0,0,0
66,1762968058882,2,65529,65535,0,0,0,0,0
67,1762968059049,4,65529,0,0,0,0,0,0
68,1762968059116,3,65527,0,0,0,0,0,0
69,1762968059166,5,65529,0,0,0,0,0,0
70,1762968059232,3,65527,65535,0,0,0,0,0
71,1762968059332,3,65528,65535,0,0,0,0,0
72,1762968059515,5,65528,0,0,0,0,0,0
73,1762968059565,2,65528,65535,0,0,0,0,0
74,1762968059648,2,65527,65535,0,0,0,0,0
75,1762968059848,1,65528,0,0,0,0,0,0
76,1762968059915,5,65529,0,3.32,0,0,0,0
77,1762968059981,4,65528,0,0,0,0,0,0
78,1762968060164,3,65528,65535,0,0,0,0,0
79,1762968060215,2,65528,0,0,0,0,0,0
80,1762968060264,3,65528,65535,0,0,0,0,0
81,1762968060331,4,65527,0,0,0,0,0,0
82,1762968060464,1,65529,0,0,0,0,0,0
83,1762968060564,2,65528,65535,0,0,0,0,0
84,1762968060582,3,65527,65535,0,0,0,0,0
85,1762968060647,3,65526,0,0,0,0,0,0
86,1762968060680,3,65528,0,0,0,0,0,0
87,1762968060748,4,65528,0,0,0,0,0,0
88,1762968060781,3,65528,65535,0,0,0,0,0
89,1762968060864,4,65529,1,0,0,0,0,0
90,1762968060981,3,65528,65535,0,0,0,0,0
91,1762968061097,3,65527,65535,0,0,0,0,0
92,1762968061213,3,65528,65535,0,0,0,0,0
93,1762968061347,4,65528,0,0,0,0,0,0
94,1762968061397,4,65528,0,0,0,0,0,0
95,1762968061430,3,65528,65535,0,0,0,0,0
96,1762968061530,3,65529,65534,0,0,0,0,0
97,1762968061679,3,65527,0,0,0,0,0,0
98,1762968061696,4,65529,65535,0,0,0,0,0
99,1762968061863,1,65529,65534,0,0,0,0,0
100,1762968061913,2,65528,65535,0,0,0,0,0
101,1762968061964,1,65529,65534,0,0,0,0,0
102,1762968062079,3,65528,65535,0,0,0,0,0
103,1762968062129,2,65528,65535,0,0,0,0,0
104,1762968062263,3,65528,0,0,0,0,0,0
105,1762968062429,3,65527,0,0,0,0,0,0
106,1762968062729,3,65528,0,0,0,0,0,0
107,1762968062846,4,65529,65535,0,0,0,0,0
108,1762968062895,4,65529,65535,0,0,0,0,0
109,1762968063079,3,65527,65534,0,0,0,0,0
110,1762968063278,5,65530,65535,0,0,0,0,0
111,1762968063312,3,65529,65535,0,0,0,0,0
112,1762968063395,3,65528,0,0,0,0,0,0
113,1762968063428,3,65528,65535,0,0,0,0,0
114,1762968063512,3,65528,65535,0,0,0,0,0
115,1762968063545,3,65528,65534,0,0,0,0,0
116,1762968063711,3,65528,65535,0,0,0,0,0
117,1762968063745,1,65529,255,0,0,0,0,0
118,1762968063812,3,65528,65535,0,0,0,0,0
119,1762968063861,3,65528,65535,0,0,0,0,0
120,1762968063928,3,65528,0,0,0,0,0,0
121,1762968063962,3,65529,65535,0,0,0,0,0
122,1762968064078,6,65529,65535,0,0,0,0,0
123,1762968064161,3,65528,65535,0,0,0,0,0
124,1762968064211,5,65530,0,0,0,0,0,0
125,1762968064279,4,65529,65534,0,0,0,0,0
126,1762968064310,3,65529,65535,0,0,0,0,0
127,1762968064394,3,65527,1,0,0,0,0,0
128,1762968064427,3,65528,65535,0,0,0,0,0
129,1762968064512,3,65529,65535,0,0,0,0,0
130,1762968064577,3,65529,0,0,0,0,0,0
131,1762968064628,3,65527,65535,0,0,0,0,0
132,1762968064677,4,65529,65535,0,0,0,0,0
133,1762968064728,3,65528,0,0,0,0,0,0
134,1762968064794,3,65528,65535,0,0,0,0,0
135,1762968064844,2,65527,65534,0,0,0,0,0
136,1762968064912,2,65528,65535,0,0,0,0,0
137,1762968064993,4,65528,65535,0,0,0,0,0
138,1762968065060,3,65529,65534,0,0,0,0,0
139,1762968065111,4,65529,65535,0,0,0,0,0
140,1762968065176,2,65529,0,0,0,0,0,0
141,1762968065244,2,65528,65535,0,0,0,0,0
142,1762968065294,3,65528,65535,0,0,0,0,0
143,1762968065343,4,65528,65535,0,0,0,0,0
144,1762968065427,2,65530,0,33190,0,0,0,0
145,1762968065493,4,65529,0,0,0,0,0,0
146,1762968065527,2,65529,65535,0,0,0,0,0
147,1762968065647,5,65528,65535,0,0,0,0,0
148,1762968065710,3,65529,0,0,0,0,0,0
149,1762968065743,3,65528,0,0,0,0,0,0
150,1762968065810,4,65528,0,0,0,0,0,0
151,1762968065893,2,65529,65534,0,0,0,0,0
152,1762968065943,3,65528,1,0,0,0,0,0
153,1762968066011,3,65528,65535,0,0,0,0,0
154,1762968066043,3,65528,65535,0,0,0,0,0
155,1762968066126,3,65528,65535,0,0,0,0,0
156,1762968066159,1,65527,0,0,0,0,0,0
157,1762968066227,2,65529,65534,0,0,0,0,0
158,1762968066292,4,65528,65535,0,0,0,0,0
159,1762968066358,3,65528,65535,0,0,0,0,0
160,1762968066393,3,65528,0,0,0,0,0,0
161,1762968066475,2,65529,0,0,0,0,0,0
162,1762968066509,2,65528,65534,0,0,0,0,0
163,1762968066592,4,65528,0,0,0,0,0,0
164,1762968066626,4,65530,65535,0,0,0,0,0
165,1762968066708,3,65529,65535,0,0,0,0,0
166,1762968066742,4,65529,65535,3.31,0,0,0,0
167,1762968066826,2,65528,65535,0,0,0,0,0
168,1762968066891,3,65529,65535,0,0,0,0,0
169,1762968066925,2,65528,65535,0,0,0,0,0
170,1762968066992,1,65527,65535,0,0,0,0,0
171,1762968067042,4,65529,65535,0,0,0,0,0
172,1762968067108,4,65528,65535,0,0,0,0,0
173,1762968067158,3,65529,0,0,0,0,0,0
174,1762968067241,2,65528,65534,0,0,0,0,0
175,1762968067275,3,65529,65534,0,0,0,0,0
176,1762968067357,2,65530,65535,0,0,0,0,0
177,1762968067408,2,65529,65535,0,0,0,0,0
178,1762968067474,3,65528,65535,0,0,0,0,0
179,1762968067508,2,65528,65535,0,0,0,0,0
180,1762968067591,3,65529,0,0,0,0,0,0
181,1762968067641,4,65529,0,0,0,0,0,0
182,1762968067726,3,65528,65534,0,0,0,0,0
183,1762968067791,3,65528,65535,0,0,0,0,0
184,1762968067825,4,65527,0,0,0,0,0,0
185,1762968067891,2,65529,0,0,0,0,0,0
186,1762968067925,3,65528,65534,0,0,0,0,0
187,1762968068042,3,65528,65534,0,0,0,0,0
188,1762968068174,2,65529,1,0,0,0,0,0
189,1762968068241,3,65529,65535,0,0,0,0,0
190,1762968068309,2,65528,65535,0,0,0,0,0
191,1762968068358,2,65528,0,0,0,0,0,0
192,1762968068408,4,65529,65535,0,0,0,0,0
193,1762968068475,3,65528,65534,0,0,0,0,0
194,1762968068525,2,65529,65535,0,0,0,0,0
195,1762968068608,4,65528,65535,3.32,0,0,0,0
196,1762968068658,4,65528,0,0,0,0,0,0
197,1762968068707,3,65528,0,0,0,0,0,0
198,1762968068774,2,65528,65535,0,0,0,0,0
199,1762968068808,4,65528,65535,0,0,0,0,0
200,1762968068891,2,65529,0,0,0,0,0,0
201,1762968068925,5,65528,65535,0,0,0,0,0
202,1762968069008,2,65529,65535,0,0,0,0,0
203,1762968069124,3,65529,65535,0,0,0,0,0
204,1762968069190,3,65529,0,0,0,0,0,0
205,1762968069240,3,65529,65535,0,0,0,0,0
206,1762968069306,2,65528,65535,0,0,0,0,0
207,1762968069357,4,65529,65535,0,0,0,0,0
208,1762968069423,4,65528,65535,0,0,0,0,0
209,1762968069473,3,65528,0,0,0,0,0,0
210,1762968069558,5,65527,65535,0,0,0,0,0
211,1762968069591,3,65528,65535,0,0,0,0,0
212,1762968069706,2,65528,1,0,0,0,0,0
213,1762968069790,3,65529,65535,0,0,0,0,0
214,1762968069825,4,65529,0,0,0,0,0,0
215,1762968069890,4,65527,0,0,0,0,0,0
216,1762968070006,2,65528,65535,0,0,0,0,0
217,1762968070074,3,65529,65535,0,0,0,0,0
218,1762968070123,2,65529,65535,0,0,0,0,0
219,1762968070190,3,65529,0,0,0,0,0,0
220,1762968070239,3,65528,65534,0,0,0,0,0
221,1762968070323,2,65528,65535,0,0,0,0,0
222,1762968070357,2,65529,65535,0,0,0,0,0
223,1762968070441,4,65531,0,0,0,0,0,0
224,1762968070489,4,65530,65534,0,0,0,0,0
225,1762968070557,2,65527,65535,0,0,0,0,0
226,1762968070607,4,65528,65535,0,0,0,0,0
227,1762968070673,3,65529,65535,0,0,0,0,0
228,1762968070723,4,65528,0,0,0,0,0,0
229,1762968070772,3,65529,0,0,0,0,0,0
230,1762968070839,5,65529,0,0,0,0,0,0
231,1762968070889,3,65529,0,0,0,0,0,0
232,1762968070972,4,65529,65534,0,0,0,0,0
233,1762968071005,3,65528,0,0,0,0,0,0
234,1762968071089,3,65529,65535,0,0,0,0,0
235,1762968071123,3,65529,65535,0,0,0,0,0
236,1762968071188,4,65528,0,0,0,0,0,0
237,1762968071223,3,65528,65535,0,0,0,0,0
238,1762968071339,3,65528,0,3.32,0,0,0,0
239,1762968071389,3,65528,0,0,0,0,0,0
240,1762968071439,3,65528,65535,0,0,0,0,0
241,1762968071473,3,65529,65535,0,0,0,0,0
242,1762968071589,3,65528,0,0,0,0,0,0
243,1762968071656,3,65528,1,0,0,0,0,0
244,1762968071705,3,65528,65535,0,0,0,0,0
245,1762968071771,2,65528,0,33154,0,0,0,0
246,1762968071839,2,65528,0,0,0,0,0,0
247,1762968071871,2,65528,255,0,0,0,0,0
248,1762968071938,3,65528,0,0,0,0,0,0
249,1762968072006,4,65528,0,0,0,0,0,0
250,1762968072054,3,65528,65535,0,0,0,0,0
251,1762968072104,4,65529,0,0,0,0,0,0
252,1762968072170,3,65530,65535,0,0,0,0,0
253,1762968072304,4,65528,65535,0,0,0,0,0
254,1762968072337,2,65528,0,0,0,0,0,0
255,1762968072404,2,65528,0,0,0,0,0,0
256,1762968072454,3,65528,65535,0,0,0,0,0
257,1762968072505,3,65528,0,0,0,0,0,0
258,1762968072555,2,65528,65535,0,0,0,0,0
259,1762968072654,4,65528,0,3.32,0,0,0,0
260,1762968072754,4,65528,65535,0,0,0,0,0
261,1762968072804,4,65529,0,0,0,0,0,0
262,1762968072854,4,65529,65535,0,0,0,0,0
263,1762968072887,3,65529,65535,0,0,0,0,0
264,1762968072971,2,65529,65535,0,0,0,0,0
265,1762968073004,3,65530,0,0,0,0,0,0
266,1762968073087,2,65528,65535,0,0,0,0,0
267,1762968073120,3,65528,65535,3.31,0,0,0,0
268,1762968073205,4,65530,0,0,0,0,0,0
269,1762968073254,3,65527,65534,0,0,0,0,0
270,1762968073320,4,65528,65535,0,0,0,0,0
271,1762968073354,1,65529,0,0,0,0,0,0
272,1762968073420,2,65528,0,0,0,0,0,0
273,1762968073487,2,65529,65535,0,0,0,0,0
274,1762968073538,3,65527,65535,0,0,0,0,0
275,1762968073637,3,65528,65535,0,0,0,0,0
276,1762968073753,3,65527,65535,0,0,0,0,0
277,1762968073787,4,65529,65535,0,0,0,0,0
278,1762968073837,3,65528,0,0,0,0,0,0
279,1762968073870,4,65528,65535,0,0,0,0,0
280,1762968073936,2,65528,65535,0,0,0,0,0
281,1762968073969,5,65529,65535,0,0,0,0,0
282,1762968074102,5,65528,65534,0,0,0,0,0
283,1762968074170,4,65528,65535,0,0,0,0,0
284,1762968074203,4,65528,0,0,0,0,0,0
285,1762968074303,3,65528,65534,0,0,0,0,0
286,1762968074354,2,65528,65535,0,0,0,0,0
287,1762968074403,3,65530,65535,0,0,0,0,0
288,1762968074437,3,65528,0,0,0,0,0,0
289,1762968074520,3,65529,65535,3.26,0,0,0,0
290,1762968074553,3,65529,65535,0,0,0,0,0
291,1762968074636,5,65529,0,0,0,0,0,0
292,1762968074670,2,65529,65535,0,0,0,0,0
293,1762968074770,3,65529,65535,0,0,0,0,0
294,1762968074837,5,65529,65535,0,0,0,0,0
295,1762968074869,1,65529,65535,0,0,0,0,0
296,1762968074936,4,65528,0,0,0,0,0,0
297,1762968074985,2,65529,65535,33190,0,0,0,0
298,1762968075052,3,65528,65535,0,0,0,0,0
299,1762968075086,4,65527,0,0,0,0,0,0
300,1762968075170,3,65528,0,0,0,0,0,0
301,1762968075202,4,65528,0,0,0,0,0,0
302,1762968075252,3,65527,0,0,0,0,0,0
303,1762968075303,3,65529,0,0,0,0,0,0
304,1762968075369,3,65529,0,0,0,0,0,0
305,1762968075420,3,65529,65535,3.31,0,0,0,0
306,1762968075519,4,65529,65535,0,0,0,0,0
307,1762968075618,4,65527,0,0,0,0,0,0
308,1762968075669,3,65528,65534,0,0,0,0,0
309,1762968075801,3,65527,0,0,0,0,0,0
310,1762968075835,3,65528,0,0,0,0,0,0
311,1762968075918,4,65528,65534,0,0,0,0,0
312,1762968075951,4,65528,0,0,0,0,0,0
313,1762968076003,3,65529,1,0,0,0,0,0
314,1762968076052,3,65528,0,0,0,0,0,0
315,1762968076118,2,65529,65535,0,0,0,0,0
316,1762968076168,1,65530,65535,0,0,0,0,0
317,1762968076218,2,65528,0,0,0,0,0,0
318,1762968076285,2,65529,0,0,0,0,0,0
319,1762968076385,3,65527,0,0,0,0,0,0
320,1762968076435,2,65528,0,0,0,0,0,0
321,1762968076484,3,65529,0,0,0,0,0,0
322,1762968076551,4,65528,0,0,0,0,0,0
323,1762968076600,3,65528,0,0,0,0,0,0
324,1762968076651,2,65529,65535,0,0,0,0,0
325,1762968076717,3,65530,65535,0,0,0,0,0
326,1762968076768,4,65528,0,0,0,0,0,0
327,1762968076884,4,65529,65535,0,0,0,0,0
328,1762968076983,4,65529,65535,0,0,0,0,0
329,1762968077051,3,65527,65535,0,0,0,0,0
330,1762968077100,3,65529,65535,0,0,0,0,0
331,1762968077150,2,65529,65535,0,0,0,0,0
332,1762968077201,4,65529,65535,0,0,0,0,0
333,1762968077284,4,65528,65535,0,0,0,0,0
334,1762968077334,3,65528,0,0,0,0,0,0
335,1762968077384,4,65528,65535,0,0,0,0,0
336,1762968077434,3,65530,0,0,0,0,0,0
337,1762968077485,4,65530,65535,0,0,0,0,0
338,1762968077534,3,65529,65535,0,0,0,0,0
339,1762968077599,2,65528,65535,0,0,0,0,0
340,1762968077649,4,65528,0,0,0,0,0,0
341,1762968077749,3,65528,0,0,0,0,0,0
342,1762968077783,3,65529,0,0,0,0,0,0
343,1762968077816,4,65528,65535,0,0,0,0,0
344,1762968077867,4,65530,0,0,0,0,0,0
345,1762968077932,4,65529,65535,0,0,0,0,0
346,1762968077967,3,65529,0,0,0,0,0,0
347,1762968078033,3,65529,65535,0,0,0,0,0
348,1762968078082,3,65528,0,0,0,0,0,0
349,1762968078149,2,65528,65535,3.32,0,0,0,0
350,1762968078249,2,65526,65535,0,0,0,0,0
351,1762968078316,3,65528,65535,0,0,0,0,0
352,1762968078366,4,65529,65535,0,0,0,0,0
353,1762968078433,1,65529,0,0,0,0,0,0
354,1762968078482,3,65528,1,0,0,0,0,0
355,1762968078515,4,65529,65534,0,0,0,0,0
356,1762968078599,3,65528,65535,0,0,0,0,0
357,1762968078699,2,65529,65535,0,0,0,0,0
358,1762968078749,3,65528,0,0,0,0,0,0
359,1762968078815,3,65528,0,0,0,0,0,0
360,1762968078848,4,65529,65535,0,0,0,0,0
361,1762968078899,3,65528,0,0,0,0,0,0
362,1762968078949,2,65527,0,0,0,0,0,0
363,1762968079081,2,65528,0,0,0,0,0,0
364,1762968079132,3,65528,65535,0,0,0,0,0
365,1762968079182,3,65528,0,0,0,0,0,0
366,1762968079248,3,65528,65535,0,0,0,0,0
367,1762968079299,3,65528,65534,0,0,0,0,0
368,1762968079348,2,65527,0,0,0,0,0,0
369,1762968079398,1,65530,65535,0,0,0,0,0
370,1762968079465,5,65530,0,0,0,0,0,0
371,1762968079532,3,65527,0,0,0,0,0,0
372,1762968079582,3,65527,1,0,0,0,0,0
373,1762968079631,3,65528,65535,0,0,0,0,0
374,1762968079682,3,65528,0,0,0,0,0,0
375,1762968079733,4,65528,0,0,0,0,0,0
376,1762968079782,5,65528,0,0,0,0,0,0
377,1762968079832,3,65528,65535,0,0,0,0,0
378,1762968079898,3,65529,1,0,0,0,0,0
379,1762968079932,4,65526,65535,0,0,0,0,0
380,1762968080015,3,65530,65535,0,0,0,0,0
381,1762968080070,3,65528,65535,0,0,0,0,0
382,1762968080180,3,65529,0,0,0,0,0,0
383,1762968080231,2,65528,0,0,0,0,0,0
384,1762968080281,1,65529,65535,0,0,0,0,0
385,1762968080365,3,65528,65535,0,0,0,0,0
386,1762968080448,2,65529,65535,0,0,0,0,0
387,1762968080498,4,65528,65535,0,0,0,0,0
388,1762968080564,3,65528,65535,0,0,0,0,0
389,1762968080614,4,65529,65534,0,0,0,0,0
390,1762968080696,3,65528,65535,0,0,0,0,0
391,1762968080713,4,65529,65534,0,0,0,0,0
392,1762968080780,2,65529,0,0,0,0,0,0
393,1762968080813,2,65528,0,0,0,0,0,0
394,1762968080898,3,65529,0,0,0,0,0,0
395,1762968080930,3,65528,0,0,0,0,0,0
396,1762968081030,4,65529,1,0,0,0,0,0
397,1762968081098,2,65527,65535,0,0,0,0,0
398,1762968081130,2,65528,0,0,0,0,0,0
399,1762968081197,4,65528,0,0,0,0,0,0
400,1762968081247,3,65530,65535,0,0,0,0,0
401,1762968081314,3,65529,0,0,0,0,0,0
402,1762968081363,3,65529,0,33191,0,0,0,0
403,1762968081431,3,65529,1,0,0,0,0,0
404,1762968081464,5,65527,0,0,0,0,0,0
405,1762968081529,3,65529,65535,0,0,0,0,0
406,1762968081564,3,65528,0,0,0,0,0,0
407,1762968081630,4,65527,0,0,0,0,0,0
408,1762968081663,3,65528,65535,0,0,0,0,0
409,1762968081729,3,65529,0,0,0,0,0,0
410,1762968081846,2,65529,0,0,0,0,0,0
411,1762968081879,4,65529,65535,0,0,0,0,0
412,1762968081979,2,65528,65535,0,0,0,0,0
413,1762968082046,4,65529,65535,0,0,0,0,0
414,1762968082096,1,65529,0,0,0,0,0,0
415,1762968082146,4,65529,0,0,0,0,0,0
416,1762968082263,4,65528,0,0,0,0,0,0
417,1762968082329,3,65529,65535,0,0,0,0,0
418,1762968082380,3,65529,65535,0,0,0,0,0
419,1762968082429,4,65528,65535,0,0,0,0,0
420,1762968082479,4,65530,65535,0,0,0,0,0
421,1762968082580,4,65528,65535,0,0,0,0,0
422,1762968082712,4,65529,65535,0,0,0,0,0
423,1762968082762,4,65529,65535,0,0,0,0,0
424,1762968082812,1,65528,65535,0,0,0,0,0
425,1762968082863,4,65529,0,0,0,0,0,0
426,1762968082930,3,65528,65535,0,0,0,0,0
427,1762968082980,3,65528,1,0,0,0,0,0
428,1762968083013,2,65528,65535,0,0,0,0,0
429,1762968083080,4,65528,0,0,0,0,0,0
430,1762968083195,3,65527,0,0,0,0,0,0
431,1762968083295,3,65529,0,0,0,0,0,0
432,1762968083363,2,65529,65535,0,0,0,0,0
433,1762968083412,4,65530,65535,0,0,0,0,0
434,1762968083462,4,65529,0,0,0,0,0,0
435,1762968083728,2,65529,65535,0,0,0,0,0
436,1762968083780,2,65528,65535,0,0,0,0,0
437,1762968083845,4,65530,65535,0,0,0,0,0
438,1762968084011,3,65528,65535,0,0,0,0,0
439,1762968084079,4,65528,0,0,0,0,0,0
440,1762968084144,4,65528,0,0,0,0,0,0
441,1762968084195,3,65530,65535,0,0,0,0,0
442,1762968084261,4,65529,255,0,0,0,0,0
443,1762968084328,3,65529,0,0,0,0,0,0
444,1762968084378,4,65528,0,0,0,0,0,0
445,1762968084478,4,65529,65535,0,0,0,0,0
446,1762968084627,3,65530,0,0,0,0,0,0
447,1762968084646,2,65529,65535,0,0,0,0,0
448,1762968084729,2,65529,0,0,0,0,0,0
449,1762968084861,2,65528,0,0,0,0,0,0
450,1762968084877,3,65528,65535,0,0,0,0,0
451,1762968084960,3,65529,65535,0,0,0,0,0
452,1762968085027,4,65529,65535,0,0,0,0,0
453,1762968085077,4,65529,65535,0,0,0,0,0
454,1762968085126,2,65528,65535,0,0,0,0,0
455,1762968085176,3,65527,65535,0,0,0,0,0
456,1762968085260,3,65529,0,0,0,0,0,0
457,1762968085310,2,65528,65280,0,0,0,0,0
458,1762968085393,3,65529,0,0,0,0,0,0
459,1762968085444,3,65529,0,3.26,0,0,0,0
460,1762968085493,4,65528,0,0,0,0,0,0
461,1762968085544,3,65529,65535,0,0,0,0,0
462,1762968085627,4,65529,65535,0,0,0,0,0
463,1762968085677,2,65529,0,0,0,0,0,0
464,1762968085743,4,65529,0,0,0,0,0,0
465,1762968085777,3,65529,65535,0,0,0,0,0
466,1762968085843,2,65528,65534,0,0,0,0,0
467,1762968085910,4,65529,65535,0,0,0,0,0
468,1762968085960,3,65527,0,0,0,0,0,0
469,1762968086026,2,65528,0,0,0,0,0,0
470,1762968086076,3,65528,65535,0,0,0,0,0
471,1762968086192,3,65529,65535,0,0,0,0,0
472,1762968086276,3,65530,65535,0,0,0,0,0
473,1762968086326,4,65529,65535,3.32,0,0,0,0
474,1762968086392,2,65529,0,0,0,0,0,0
475,1762968086525,1,65528,65535,0,0,0,0,0
476,1762968086592,3,65528,0,0,0,0,0,0
477,1762968086626,4,65529,0,0,0,0,0,0
478,1762968086693,3,65529,0,0,0,0,0,0
479,1762968086909,3,65528,65534,0,0,0,0,0
480,1762968086943,3,65529,65535,0,0,0,0,0
481,1762968087176,2,65529,65534,0,0,0,0,0
482,1762968087308,3,65529,65535,0,0,0,0,0
483,1762968087375,3,65528,0,0,0,0,0,0
484,1762968087425,3,65529,65535,0,0,0,0,0
485,1762968087492,2,65529,65533,0,0,0,0,0
486,1762968087558,1,65528,65535,0,0,0,0,0
487,1762968087741,2,65527,0,0,0,0,0,0
488,1762968087808,2,65530,0,0,0,0,0,0
489,1762968087841,5,65529,0,0,0,0,0,0
490,1762968087907,4,65529,0,0,0,0,0,0
491,1762968087957,3,65529,65534,0,0,0,0,0
492,1762968088024,3,65529,65535,0,0,0,0,0
493,1762968088208,2,65528,0,0,0,0,0,0
494,1762968088275,3,65529,0,0,0,0,0,0
495,1762968088358,3,65530,0,0,0,0,0,0
496,1762968088408,2,65528,0,0,0,0,0,0
497,1762968088474,2,65528,65535,0,0,0,0,0
498,1762968088509,3,65529,65535,0,0,0,0,0
499,1762968088592,3,65526,65535,0,0,0,0,0
500,1762968088674,3,65529,65535,0,0,0,0,0
501,1762968088707,3,65528,65534,0,0,0,0,0
502,1762968088757,3,65528,65535,0,0,0,0,0
503,1762968088825,4,65529,65280,0,0,0,0,0
504,1762968088875,4,65527,65535,0,0,0,0,0
505,1762968088925,3,65529,65535,0,0,0,0,0
506,1762968088989,3,65528,65535,0,0,0,0,0
507,1762968089041,2,65529,1,0,0,0,0,0
508,1762968089140,3,65529,65535,0,0,0,0,0
509,1762968089156,3,65528,0,0,0,0,0,0
510,1762968089240,4,65529,65535,0,0,0,0,0
511,1762968089289,2,65528,0,0,0,0,0,0
512,1762968089374,3,65528,65535,0,0,0,0,0
513,1762968089406,2,65529,0,0,0,0,0,0
514,1762968089473,3,65528,65535,0,0,0,0,0
515,1762968089541,5,65527,65535,0,0,0,0,0
516,1762968089606,3,65527,0,0,0,0,0,0
517,1762968089656,3,65530,0,0,0,0,0,0
518,1762968089706,4,65528,65534,0,0,0,0,0
519,1762968089789,2,65529,0,0,0,0,0,0
520,1762968089823,3,65529,65535,0,0,0,0,0
521,1762968089890,3,65527,65535,0,0,0,0,0
522,1762968089939,2,65527,65535,0,0,0,0,0
523,1762968090023,3,65528,65534,0,0,0,0,0
524,1762968090073,4,65529,65535,0,0,0,0,0
525,1762968090140,3,65529,0,0,0,0,0,0
526,1762968090191,4,65529,0,0,0,0,0,0
527,1762968090255,3,65530,65535,0,0,0,0,0
528,1762968090323,3,65529,65534,0,0,0,0,0
529,1762968090372,3,65530,0,0,0,0,0,0
530,1762968090455,4,65528,65535,3.32,0,0,0,0
531,1762968090505,3,65527,0,0,0,0,0,0
532,1762968090572,3,65529,65535,0,0,0,0,0
533,1762968090622,3,65528,65535,0,0,0,0,0
534,1762968090688,1,65528,65535,0,0,0,0,0
535,1762968090738,2,65528,65535,0,0,0,0,0
536,1762968090805,3,65528,0,0,0,0,0,0
537,1762968090855,3,65527,65534,0,0,0,0,0
538,1762968090922,4,65527,0,33191,0,0,0,0
539,1762968091022,3,65528,65534,0,0,0,0,0
540,1762968091088,3,65529,0,0,0,0,0,0
541,1762968091140,2,65528,65535,0,0,0,0,0
542,1762968091205,4,65528,0,0,0,0,0,0
543,1762968091255,3,65529,65535,0,0,0,0,0
544,1762968091338,3,65528,0,0,0,0,0,0
545,1762968091405,3,65529,0,0,0,0,0,0
546,1762968091473,5,65529,1,0,0,0,0,0
547,1762968091488,5,65529,65535,0,0,0,0,0
548,1762968091621,3,65529,0,0,0,0,0,0
549,1762968091704,4,65528,0,0,0,0,0,0
550,1762968091738,3,65530,0,0,0,0,0,0
551,1762968091804,3,65529,0,33155,0,0,0,0
552,1762968091871,4,65527,0,0,0,0,0,0
553,1762968091904,3,65528,0,0,0,0,0,0
554,1762968091970,3,65528,65535,0,0,0,0,0
555,1762968092020,4,65529,65535,0,0,0,0,0
556,1762968092087,5,65528,0,0,0,0,0,0
557,1762968092137,3,65527,65535,0,0,0,0,0
558,1762968092221,2,65529,65535,0,0,0,0,0
559,1762968092255,5,65529,0,3.31,0,0,0,0
560,1762968092354,3,65528,0,0,0,0,0,0
561,1762968092388,2,65529,65535,0,0,0,0,0
562,1762968092454,2,65529,65535,0,0,0,0,0
563,1762968092505,2,65529,65535,0,0,0,0,0
564,1762968092554,3,65529,65535,0,0,0,0,0
565,1762968092620,3,65528,0,0,0,0,0,0
566,1762968092670,4,65529,65535,0,0,0,0,0
567,1762968092804,5,65528,0,0,0,0,0,0
568,1762968092871,2,65528,65280,0,0,0,0,0
569,1762968092920,3,65529,0,0,0,0,0,0
570,1762968092986,2,65529,65535,0,0,0,0,0
571,1762968093020,2,65527,0,0,0,0,0,0
572,1762968093103,4,65528,65535,0,0,0,0,0
573,1762968093153,3,65529,0,0,0,0,0,0
574,1762968093220,3,65528,65535,0,0,0,0,0
575,1762968093304,1,65527,65534,0,0,0,0,0
576,1762968093337,3,65528,65535,0,0,0,0,0
577,1762968093421,2,65529,65535,0,0,0,0,0
578,1762968093453,2,65528,65534,0,0,0,0,0
579,1762968093520,3,65528,65535,0,0,0,0,0
580,1762968093570,3,65529,65535,0,0,0,0,0
581,1762968093687,3,65528,0,0,0,0,0,0
582,1762968093720,5,65527,0,0,0,0,0,0
583,1762968093770,2,65528,65534,0,0,0,0,0
584,1762968093819,2,65528,65535,0,0,0,0,0
585,1762968093886,4,65528,65535,0,0,0,0,0
586,1762968093936,3,65528,65535,0,0,0,0,0
587,1762968093986,3,65529,65535,0,0,0,0,0
588,1762968094053,3,65530,65535,0,0,0,0,0
589,1762968094120,3,65528,1,0,0,0,0,0
590,1762968094236,4,65528,0,0,0,0,0,0
591,1762968094319,3,65528,65535,0,0,0,0,0
592,1762968094385,3,65529,65535,0,0,0,0,0
593,1762968094485,3,65528,0,0,0,0,0,0
594,1762968094552,5,65529,65535,3.32,0,0,0,0
595,1762968094619,3,65525,65535,0,0,0,0,0
596,1762968094752,3,65529,0,0,0,0,0,0
597,1762968094785,3,65530,0,0,0,0,0,0
598,1762968094835,3,65529,65535,0,0,0,0,0
599,1762968094884,3,65528,0,0,0,0,0,0
600,1762968094952,5,65527,65535,0,0,0,0,0
601,1762968095002,2,65527,0,3.32,0,0,0,0
602,1762968095085,3,65529,0,0,0,0,0,0
603,1762968095135,3,65529,65535,0,0,0,0,0
604,1762968095201,4,65529,0,0,0,0,0,0
605,1762968095251,6,65527,0,0,0,0,0,0
606,1762968095301,2,65529,0,0,0,0,0,0
607,1762968095368,1,65529,0,0,0,0,0,0
608,1762968095418,2,65529,65535,0,0,0,0,0
609,1762968095518,2,65528,65535,0,0,0,0,0
610,1762968095552,4,65529,65535,0,0,0,0,0
611,1762968095636,3,65528,0,0,0,0,0,0
612,1762968095669,4,65529,65535,0,0,0,0,0
613,1762968095751,3,65528,0,0,0,0,0,0
614,1762968095801,2,65528,0,0,0,0,0,0
615,1762968095867,3,65528,65535,0,0,0,0,0
616,1762968095934,3,65529,0,0,0,0,0,0
617,1762968095984,4,65528,65535,0,0,0,0,0
618,1762968096051,2,65529,0,0,0,0,0,0
619,1762968096084,1,65530,65535,0,0,0,0,0
620,1762968096168,2,65528,65535,0,0,0,0,0
621,1762968096201,3,65528,65535,0,0,0,0,0
622,1762968096285,4,65529,65535,0,0,0,0,0
623,1762968096317,3,65529,0,0,0,0,0,0
624,1762968096400,4,65529,65535,0,0,0,0,0
625,1762968096484,5,65529,0,0,0,0,0,0
626,1762968096517,2,65529,0,0,0,0,0,0
627,1762968096585,2,65528,0,0,0,0,0,0
628,1762968096635,5,65529,1,0,0,0,0,0
629,1762968096701,2,65529,65535,0,0,0,0,0
630,1762968096817,3,65529,65535,3.28,0,0,0,0
631,1762968096868,3,65529,65534,0,0,0,0,0
632,1762968096967,2,65528,65535,0,0,0,0,0
633,1762968097100,3,65530,0,0,0,0,0,0
634,1762968097166,2,65528,65535,0,0,0,0,0
635,1762968097216,2,65527,65535,0,0,0,0,0
636,1762968097300,3,65529,65535,0,0,0,0,0
637,1762968097366,4,65529,65535,0,0,0,0,0
638,1762968097399,2,65528,65535,0,0,0,0,0
639,1762968097467,5,65527,65535,0,0,0,0,0
640,1762968097517,3,65529,255,0,0,0,0,0
641,1762968097650,3,65529,0,0,0,0,0,0
642,1762968097750,4,65529,65535,0,0,0,0,0
643,1762968097782,1,65529,65535,0,0,0,0,0
644,1762968097850,5,65529,65534,0,0,0,0,0
645,1762968097900,4,65529,0,0,0,0,0,0
646,1762968097951,4,65528,65534,0,0,0,0,0
647,1762968098016,4,65529,65535,0,0,0,0,0
648,1762968098050,3,65528,65534,0,0,0,0,0
649,1762968098133,2,65527,0,0,0,0,0,0
650,1762968098199,4,65528,0,3.32,0,0,0,0
651,1762968098249,2,65527,65535,0,0,0,0,0
652,1762968098299,3,65528,65535,0,0,0,0,0
653,1762968098432,3,65527,0,0,0,0,0,0
654,1762968098499,2,65529,65535,0,0,0,0,0
655,1762968098549,4,65529,0,0,0,0,0,0
656,1762968098616,2,65529,0,0,0,0,0,0
657,1762968098682,3,65529,65535,0,0,0,0,0
658,1762968098733,3,65528,65535,0,0,0,0,0
659,1762968098799,5,65529,0,0,0,0,0,0
660,1762968098832,4,65528,65535,0,0,0,0,0
661,1762968098915,4,65528,65535,0,0,0,0,0
662,1762968098949,4,65530,65534,0,0,0,0,0
663,1762968099032,3,65528,0,0,0,0,0,0
664,1762968099065,2,65528,65535,3.28,0,0,0,0
665,1762968099165,2,65528,65535,0,0,0,0,0
666,1762968099199,4,65528,0,0,0,0,0,0
667,1762968099315,3,65529,0,0,0,0,0,0
668,1762968099381,2,65529,65535,0,0,0,0,0
669,1762968099448,3,65529,0,0,0,0,0,0
670,1762968099482,3,65528,0,0,0,0,0,0
671,1762968099582,5,65528,65535,0,0,0,0,0
672,1762968099615,2,65529,65534,0,0,0,0,0
673,1762968099681,1,65529,65280,0,0,0,0,0
674,1762968099749,3,65530,65535,0,0,0,0,0
675,1762968099831,3,65528,65535,0,0,0,0,0
676,1762968099865,2,65528,65535,0,0,0,0,0
677,1762968099931,2,65529,0,0,0,0,0,0
678,1762968099965,3,65528,65535,0,0,0,0,0
679,1762968100048,2,65528,0,0,0,0,0,0
680,1762968100115,3,65528,65535,0,0,0,0,0
681,1762968100147,4,65530,0,0,0,0,0,0
682,1762968100231,3,65527,255,0,0,0,0,0
683,1762968100281,3,65528,65535,0,0,0,0,0
684,1762968100381,2,65529,0,0,0,0,0,0
685,1762968100414,3,65530,65534,0,0,0,0,0
686,1762968100481,3,65529,0,0,0,0,0,0
687,1762968100548,4,65527,0,0,0,0,0,0
688,1762968100614,2,65529,65535,0,0,0,0,0
689,1762968100664,3,65528,65535,0,0,0,0,0
690,1762968100714,3,65529,0,0,0,0,0,0
691,1762968100780,2,65529,65535,0,0,0,0,0
692,1762968100830,3,65529,0,0,0,0,0,0
693,1762968100897,2,65528,65280,0,0,0,0,0
694,1762968101014,4,65529,0,0,0,0,0,0
695,1762968101047,4,65528,65535,0,0,0,0,0
696,1762968101179,4,65529,65535,0,0,0,0,0
697,1762968101246,3,65529,65535,0,0,0,0,0
698,1762968101296,3,65530,65535,0,0,0,0,0
699,1762968101414,3,65529,0,0,0,0,0,0
700,1762968101480,3,65529,65535,0,0,0,0,0
701,1762968101529,3,65528,0,0,0,0,0,0
702,1762968101580,4,65529,0,0,0,0,0,0
703,1762968101646,4,65529,65535,0,0,0,0,0
704,1762968101696,2,65528,65534,0,0,0,0,0
705,1762968101796,3,65527,65535,0,0,0,0,0
706,1762968101830,4,65530,0,3.26,0,0,0,0
707,1762968101896,3,65528,65535,0,0,0,0,0
708,1762968101929,3,65527,0,0,0,0,0,0
709,1762968102014,4,65527,65535,0,0,0,0,0
710,1762968102047,4,65529,65534,0,0,0,0,0
711,1762968102130,4,65528,0,0,0,0,0,0
712,1762968102163,3,65529,0,0,0,0,0,0
713,1762968102229,2,65530,0,0,0,0,0,0
714,1762968102313,3,65530,65535,0,0,0,0,0
715,1762968102347,1,65529,65535,0,0,0,0,0
716,1762968102430,4,65529,65280,0,0,0,0,0
717,1762968102463,3,65528,1,0,0,0,0,0
718,1762968102545,4,65530,65535,0,0,0,0,0
719,1762968102578,2,65529,65535,0,0,0,0,0
720,1762968102646,4,65528,65535,0,0,0,0,0
721,1762968102695,2,65527,1,0,0,0,0,0
722,1762968102828,4,65528,65535,0,0,0,0,0
723,1762968102845,4,65529,65535,0,0,0,0,0
724,1762968102895,3,65527,0,0,0,0,0,0
725,1762968102928,3,65528,0,0,0,0,0,0
726,1762968103012,3,65528,65535,0,0,0,0,0
727,1762968103045,3,65529,65535,0,0,0,0,0
728,1762968103111,2,65527,0,0,0,0,0,0
729,1762968103161,2,65530,0,0,0,0,0,0
730,1762968103245,2,65529,65535,0,0,0,0,0
731,1762968103295,4,65530,65534,0,0,0,0,0
732,1762968103361,1,65530,0,0,0,0,0,0
733,1762968103411,4,65528,65535,0,0,0,0,0
734,1762968103461,2,65528,0,0,0,0,0,0
735,1762968103527,3,65529,0,0,0,0,0,0
736,1762968103561,3,65529,0,0,0,0,0,0
737,1762968103695,4,65529,65535,0,0,0,0,0
738,1762968103778,4,65529,65535,0,0,0,0,0
739,1762968103812,3,65528,65535,0,0,0,0,0
740,1762968103894,3,65529,0,0,0,0,0,0
741,1762968103944,3,65527,1,0,0,0,0,0
742,1762968103994,2,65528,0,0,0,0,0,0
743,1762968104044,3,65529,0,0,0,0,0,0
744,1762968104127,3,65529,65535,3.32,0,0,0,0
745,1762968104194,2,65530,0,0,0,0,0,0
746,1762968104227,4,65528,1,0,0,0,0,0
747,1762968104310,3,65529,0,0,0,0,0,0
748,1762968104344,4,65529,65535,0,0,0,0,0
749,1762968104427,3,65528,65534,0,0,0,0,0
750,1762968104460,4,65528,65534,0,0,0,0,0
751,1762968104543,3,65530,0,0,0,0,0,0
752,1762968104594,3,65528,65535,0,0,0,0,0
753,1762968104660,3,65528,0,0,0,0,0,0
754,1762968104710,3,65529,65535,0,0,0,0,0
755,1762968104827,4,65528,65534,0,0,0,0,0
756,1762968104893,2,65528,65534,0,0,0,0,0
757,1762968104927,4,65529,65535,0,0,0,0,0
758,1762968104993,4,65529,0,3.31,0,0,0,0
759,1762968105059,3,65529,65535,0,0,0,0,0
760,1762968105110,2,65529,65535,0,0,0,0,0
761,1762968105177,3,65528,0,0,0,0,0,0
762,1762968105210,4,65528,0,0,0,0,0,0
763,1762968105292,4,65530,65535,0,0,0,0,0
764,1762968105343,3,65529,65535,0,0,0,0,0
765,1762968105410,2,65528,65535,0,0,0,0,0
766,1762968105460,2,65529,0,3.31,0,0,0,0
767,1762968105709,2,65529,65535,0,0,0,0,0
768,1762968105861,4,65529,0,0,0,0,0,0
769,1762968105960,4,65526,65535,0,0,0,0,0
770,1762968105993,2,65527,65535,0,0,0,0,0
771,1762968106060,3,65529,65535,0,0,0,0,0
772,1762968106110,3,65529,0,0,0,0,0,0
773,1762968106193,4,65529,0,0,0,0,0,0
774,1762968106227,4,65529,65535,0,0,0,0,0
775,1762968106426,2,65527,65535,0,0,0,0,0
776,1762968106577,4,65529,0,0,0,0,0,0
777,1762968106642,2,65528,65535,0,0,0,0,0
778,1762968106693,2,65528,0,0,0,0,0,0
779,1762968106743,2,65527,65535,0,0,0,0,0
780,1762968106826,3,65527,65535,0,0,0,0,0
781,1762968106876,2,65529,0,0,0,0,0,0
782,1762968106943,5,65529,0,0,0,0,0,0
783,1762968106976,4,65529,65535,0,0,0,0,0
784,1762968107058,3,65528,0,0,0,0,0,0
785,1762968107159,4,65529,0,0,0,0,0,0
786,1762968107209,3,65529,0,0,0,0,0,0
787,1762968107275,4,65529,0,0,0,0,0,0
788,1762968107342,4,65528,65535,0,0,0,0,0
789,1762968107426,3,65529,65535,0,0,0,0,0
790,1762968107458,3,65529,0,0,0,0,0,0
791,1762968107508,2,65529,65535,0,0,0,0,0
792,1762968107574,4,65528,65535,0,0,0,0,0
793,1762968107658,2,65527,65535,0,0,0,0,0
794,1762968107692,3,65528,65535,0,0,0,0,0
795,1762968107742,2,65528,65535,3.31,0,0,0,0
796,1762968107808,4,65528,65535,0,0,0,0,0
797,1762968107874,4,65528,65280,0,0,0,0,0
798,1762968107925,2,65529,65535,0,0,0,0,0
799,1762968107958,3,65527,65535,0,0,0,0,0
800,1762968108025,4,65529,65534,0,0,0,0,0
801,1762968108125,4,65528,65535,0,0,0,0,0
802,1762968108174,2,65528,65535,0,0,0,0,0
803,1762968108258,3,65528,65535,0,0,0,0,0
804,1762968108391,3,65528,65535,0,0,0,0,0
805,1762968108590,2,65529,65535,0,0,0,0,0
806,1762968108708,4,65529,65535,0,0,0,0,0
807,1762968108824,4,65529,65535,0,0,0,0,0
808,1762968108875,5,65528,0,0,0,0,0,0
809,1762968108940,4,65528,65535,0,0,0,0,0
810,1762968108974,2,65528,0,0,0,0,0,0
811,1762968109157,3,65528,0,0,0,0,0,0
812,1762968109207,3,65528,1,0,0,0,0,0
813,1762968109307,4,65528,0,0,0,0,0,0
814,1762968109440,3,65529,65535,0,0,0,0,0
815,1762968109873,3,65529,65535,0,0,0,0,0
816,1762968109922,3,65529,65535,0,0,0,0,0
817,1762968110056,4,65528,65535,0,0,0,0,0
818,1762968110173,2,65529,0,0,0,0,0,0
819,1762968110340,2,65527,65535,0,0,0,0,0
820,1762968110389,5,65529,0,0,0,0,0,0
821,1762968112937,3,65528,65535,0,0,0,0,0
822,1762968113004,3,65529,65535,0,0,0,0,0
823,1762968113054,3,65530,65535,0,0,0,0,0
824,1762968113120,3,65528,65535,0,0,0,0,0
825,1762968113154,3,65529,0,0,0,0,0,0
826,1762968113221,5,65526,0,0,0,0,0,0
827,1762968113287,4,65528,65535,0,0,0,0,0
828,1762968113337,5,65527,65535,0,0,0,0,0
829,1762968113370,3,65527,0,0,0,0,0,0
830,1762968113437,3,65528,0,0,0,0,0,0
831,1762968113487,2,65527,65535,0,0,0,0,0
832,1762968113586,3,65529,0,0,0,0,0,0
833,1762968113686,3,65528,65535,0,0,0,0,0
834,1762968113753,2,65528,65535,33193,0,0,0,0
835,1762968113920,3,65529,0,0,0,0,0,0
836,1762968113970,4,65528,0,0,0,0,0,0
837,1762968114004,3,65528,0,0,0,0,0,0
838,1762968114069,2,65528,0,0,0,0,0,0
839,1762968114136,2,65527,0,33145,0,0,0,0
840,1762968114186,3,65528,65535,0,0,0,0,0
841,1762968114236,3,65528,65535,0,0,0,0,0
842,1762968114286,1,65527,65535,0,0,0,0,0
843,1762968114353,4,65528,65535,0,0,0,0,0
844,1762968114403,2,65527,65535,0,0,0,0,0
845,1762968114452,3,65528,0,0,0,0,0,0
846,1762968114486,4,65529,0,0,0,0,0,0
847,1762968114553,4,65529,0,0,0,0,0,0
848,1762968114636,3,65528,65535,0,0,0,0,0
849,1762968114685,4,65527,65535,0,0,0,0,0
850,1762968114735,2,65529,0,0,0,0,0,0
851,1762968114786,4,65529,65535,0,0,0,0,0
852,1762968114836,5,65529,65535,0,0,0,0,0
853,1762968114902,3,65529,0,0,0,0,0,0
854,1762968114935,4,65528,65535,0,0,0,0,0
855,1762968114985,2,65529,0,0,0,0,0,0
856,1762968115068,4,65528,0,0,0,0,0,0
857,1762968115118,3,65529,0,0,0,0,0,0
858,1762968115152,4,65528,0,0,0,0,0,0
859,1762968115219,4,65528,65535,0,0,0,0,0
860,1762968115252,4,65530,0,0,0,0,0,0
861,1762968115318,2,65528,65535,0,0,0,0,0
862,1762968115385,3,65529,65535,0,0,0,0,0
863,1762968115468,2,65528,0,0,0,0,0,0
864,1762968115552,3,65528,65535,0,0,0,0,0
865,1762968115585,4,65528,65535,0,0,0,0,0
866,1762968115718,3,65528,65535,0,0,0,0,0
867,1762968115768,3,65528,65535,0,0,0,0,0
868,1762968115817,2,65529,65280,0,0,0,0,0
869,1762968115867,4,65529,65535,0,0,0,0,0
870,1762968115900,3,65529,65535,0,0,0,0,0
871,1762968115985,1,65528,65535,0,0,0,0,0
872,1762968116051,2,65529,0,0,0,0,0,0
873,1762968116102,2,65529,65535,0,0,0,0,0
874,1762968116134,3,65529,0,0,0,0,0,0
875,1762968116201,2,65529,0,0,0,0,0,0
876,1762968116234,3,65527,65535,0,0,0,0,0
877,1762968116334,2,65528,65535,0,0,0,0,0
878,1762968116466,3,65528,65535,0,0,0,0,0
879,1762968116533,4,65529,65535,0,0,0,0,0
880,1762968116584,3,65530,65535,0,0,0,0,0
881,1762968116651,3,65528,65534,0,0,0,0,0
882,1762968116684,4,65528,65535,0,0,0,0,0
883,1762968116767,3,65528,65535,0,0,0,0,0
884,1762968116785,3,65528,65535,0,0,0,0,0
885,1762968116867,2,65528,0,3.31,0,0,0,0
886,1762968116917,5,65527,65535,0,0,0,0,0
887,1762968116967,1,65528,65535,0,0,0,0,0
888,1762968117017,2,65529,65535,0,0,0,0,0
889,1762968117117,4,65529,0,0,0,0,0,0
890,1762968117134,2,65528,65534,0,0,0,0,0
891,1762968117200,3,65529,0,0,0,0,0,0
892,1762968117216,3,65528,65535,0,0,0,0,0
893,1762968117283,1,65529,65534,0,0,0,0,0
894,1762968117350,4,65530,0,0,0,0,0,0
895,1762968117450,4,65529,65535,0,0,0,0,0
896,1762968117550,3,65529,65535,0,0,0,0,0
897,1762968117616,2,65528,0,0,0,0,0,0
898,1762968117649,4,65529,0,0,0,0,0,0
899,1762968117735,2,65529,0,0,0,0,0,0
900,1762968117783,3,65528,0,3.32,0,0,0,0
901,1762968117850,2,65529,65535,0,0,0,0,0
902,1762968117882,3,65530,0,0,0,0,0,0
903,1762968117982,2,65528,65535,0,0,0,0,0
904,1762968118083,2,65528,0,0,0,0,0,0
905,1762968118149,2,65529,65535,0,0,0,0,0
906,1762968118199,4,65529,65534,0,0,0,0,0
907,1762968118267,3,65530,2,0,0,0,0,0
908,1762968118299,4,65526,65535,0,0,0,0,0
909,1762968118382,2,65528,65534,0,0,0,0,0
910,1762968118483,4,65528,0,0,0,0,0,0
911,1762968118516,4,65528,1,0,0,0,0,0
912,1762968118582,2,65529,65533,0,0,0,0,0
913,1762968118632,4,65528,0,0,0,0,0,0
914,1762968118715,3,65528,0,0,0,0,0,0
915,1762968118749,3,65529,65535,0,0,0,0,0
916,1762968118815,3,65528,65535,0,0,0,0,0
917,1762968118849,4,65528,65535,0,0,0,0,0
918,1762968118916,3,65530,0,0,0,0,0,0
919,1762968118965,3,65527,1,0,0,0,0,0
920,1762968119033,3,65528,65534,0,0,0,0,0
921,1762968119150,5,65529,0,3.26,0,0,0,0
922,1762968119215,4,65529,65535,0,0,0,0,0
923,1762968119281,3,65529,0,0,0,0,0,0
924,1762968119316,3,65529,65535,0,0,0,0,0
925,1762968119432,3,65527,0,0,0,0,0,0
926,1762968119448,5,65529,0,0,0,0,0,0
927,1762968119498,3,65529,65535,0,0,0,0,0
928,1762968119548,2,65528,65535,0,0,0,0,0
929,1762968119631,7,65527,0,0,0,0,0,0
930,1762968119698,2,65528,65534,0,0,0,0,0
931,1762968119731,2,65527,65535,0,0,0,0,0
932,1762968119815,4,65528,1,0,0,0,0,0
933,1762968119849,3,65527,65535,1,0,0,0,0
934,1762968119932,3,65527,65535,0,0,0,0,0
935,1762968119964,1,65530,65534,0,0,0,0,0
936,1762968120081,5,65529,0,0,0,0,0,0
937,1762968120165,1,65530,65534,0,0,0,0,0
938,1762968120198,4,65528,0,0,0,0,0,0
939,1762968120280,4,65529,1,0,0,0,0,0
940,1762968120330,2,65530,65535,0,0,0,0,0
941,1762968120397,3,65529,65534,0,0,0,0,0
942,1762968120447,3,65530,1,0,0,0,0,0
943,1762968120514,3,65528,1,3.31,0,0,0,0
944,1762968120580,3,65528,65534,0,0,0,0,0
945,1762968120614,3,65527,65535,0,0,0,0,0
946,1762968120681,4,65527,0,0,0,0,0,0
947,1762968120731,3,65528,0,0,0,0,0,0
948,1762968120798,4,65529,65535,0,0,0,0,0
949,1762968120831,1,65529,65534,0,0,0,0,0
950,1762968120966,3,65527,0,3.32,0,0,0,0
951,1762968121047,3,65528,65534,0,0,0,0,0
952,1762968121080,6,65528,0,0,0,0,0,0
953,1762968121196,4,65528,0,0,0,0,0,0
954,1762968121263,3,65529,65535,0,0,0,0,0
955,1762968121313,4,65528,0,0,0,0,0,0
956,1762968121381,2,65530,0,0,0,0,0,0
957,1762968121463,4,65528,0,0,0,0,0,0
958,1762968121496,1,65527,65535,0,0,0,0,0
959,1762968121581,2,65530,0,0,0,0,0,0
960,1762968121613,4,65529,0,0,0,0,0,0
961,1762968121696,4,65529,65535,0,0,0,0,0
962,1762968121729,4,65527,65535,0,0,0,0,0
963,1762968121796,4,65528,0,0,0,0,0,0
964,1762968121831,3,65528,65535,0,0,0,0,0
965,1762968121962,1,65529,65535,0,0,0,0,0
966,1762968122046,3,65528,1,0,0,0,0,0
967,1762968122080,4,65528,0,0,0,0,0,0
968,1762968122146,3,65528,0,0,0,0,0,0
969,1762968122213,4,65529,0,0,0,0,0,0
970,1762968122262,2,65528,0,0,0,0,0,0
971,1762968122362,3,65529,65535,0,0,0,0,0
972,1762968122395,2,65529,65535,0,0,0,0,0
973,1762968122463,3,65529,0,0,0,0,0,0
974,1762968122496,2,65528,65535,0,0,0,0,0
975,1762968122595,4,65528,65535,0,0,0,0,0
976,1762968122645,3,65529,65535,0,0,0,0,0
977,1762968122712,4,65527,0,0,0,0,0,0
978,1762968122795,4,65529,0,0,0,0,0,0
979,1762968122845,3,65528,65534,0,0,0,0,0
980,1762968122913,4,65529,65535,0,0,0,0,0
981,1762968122929,3,65528,0,0,0,0,0,0
982,1762968122995,5,65529,65535,0,0,0,0,0
983,1762968123045,3,65529,0,0,0,0,0,0
984,1762968123129,4,65528,0,0,0,0,0,0
985,1762968123163,3,65528,0,0,0,0,0,0
986,1762968123279,2,65527,0,0,0,0,0,0
987,1762968123362,3,65528,0,0,0,0,0,0
988,1762968123395,4,65527,0,0,0,0,0,0
989,1762968123461,3,65527,0,0,0,0,0,0
990,1762968123495,3,65529,65535,0,0,0,0,0
991,1762968123578,3,65529,0,0,0,0,0,0
992,1762968123612,4,65528,65535,0,0,0,0,0
993,1762968123711,3,65530,65535,3.26,0,0,0,0
994,1762968123813,4,65529,65535,0,0,0,0,0
995,1762968123845,4,65528,0,0,0,0,0,0
996,1762968123894,3,65528,1,0,0,0,0,0
997,1762968123928,4,65529,65535,1,0,0,0,0
998,1762968123995,3,65528,65535,0,0,0,0,0
999,1762968124027,4,65529,65535,0,0,0,0,0
1000,1762968124096,2,65527,0,0,0,0,0,0
1001,1762968124161,4,65529,65535,33188,0,0,0,0
1002,1762968124245,4,65528,0,0,0,0,0,0
1003,1762968124262,2,65527,65535,0,0,0,0,0
1004,1762968124344,4,65529,1,0,0,0,0,0
1005,1762968124394,3,65528,65535,0,0,0,0,0
1006,1762968124461,3,65529,65535,0,0,0,0,0
1007,1762968124495,1,65529,0,0,0,0,0,0
1008,1762968124562,4,65529,255,0,0,0,0,0
1009,1762968124644,1,65528,65534,0,0,0,0,0
1010,1762968124677,3,65528,1,0,0,0,0,0
1011,1762968124779,2,65528,65535,0,0,0,0,0
1012,1762968124811,5,65528,0,0,0,0,0,0
1013,1762968124912,3,65529,65535,0,0,0,0,0
1014,1762968124978,3,65528,0,0,0,0,0,0
1015,1762968125028,4,65529,0,0,0,0,0,0
1016,1762968125110,2,65530,65535,0,0,0,0,0
1017,1762968125145,3,65527,0,0,0,0,0,0
1018,1762968125228,4,65528,65535,0,0,0,0,0
1019,1762968125261,3,65528,0,0,0,0,0,0
1020,1762968125328,3,65527,65535,0,0,0,0,0
1021,1762968125378,2,65528,65535,0,0,0,0,0
1022,1762968125527,1,65528,0,0,0,0,0,0
1023,1762968125577,4,65529,65535,0,0,0,0,0
1024,1762968125694,3,65528,0,0,0,0,0,0
1025,1762968125877,4,65529,0,0,0,0,0,0
1026,1762968125927,2,65529,65535,0,0,0,0,0
1027,1762968125992,3,65528,65535,0,0,0,0,0
1028,1762968126059,4,65528,65535,0,0,0,0,0
1029,1762968126109,3,65528,65535,0,0,0,0,0
1030,1762968126226,5,65530,65535,0,0,0,0,0
1031,1762968126309,5,65530,1,0,0,0,0,0
1032,1762968126360,3,65527,1,0,0,0,0,0
1033,1762968126476,4,65528,65535,0,0,0,0,0
1034,1762968126544,3,65528,0,0,0,0,0,0
1035,1762968126593,2,65528,0,0,0,0,0,0
1036,1762968126693,4,65529,0,1,0,0,0,0
1037,1762968126777,2,65529,0,0,0,0,0,0
1038,1762968126894,3,65529,65534,3.32,0,0,0,0
1039,1762968126943,2,65529,0,0,0,0,0,0
1040,1762968127010,4,65527,0,0,0,0,0,0
1041,1762968127060,65530,65527,0,0,0,0,0,0
1042,1762968127110,65534,65527,65534,1,0,0,0,0
1043,1762968127178,5,65529,1,0,0,0,0,0
1044,1762968127376,3,65529,65535,3.32,0,0,0,0
1045,1762968127475,4,65528,65534,0,0,0,0,0
1046,1762968127525,1,65528,65535,0,0,0,0,0
1047,1762968127609,65531,65527,65534,0,0,0,0,0
1048,1762968127659,3,65527,65534,0,0,0,0,0
1049,1762968127710,8,65526,65535,0,0,0,0,0
1050,1762968127759,8,65529,65535,0,0,0,0,0
1051,1762968127992,6,65528,0,0,0,0,0,0
1052,1762968128075,4,65529,65535,0,0,0,0,0
1053,1762968128108,2,65529,1,0,0,0,0,0
1054,1762968128176,3,65528,65535,0,0,0,0,0
1055,1762968128259,3,65528,0,0,0,0,0,0
1056,1762968128308,3,65528,65534,0,0,0,0,0
1057,1762968128477,4,65528,0,0,0,0,0,0
1058,1762968128608,4,65528,1,0,0,0,0,0
1059,1762968128642,2,65528,1,0,0,0,0,0
1060,1762968128757,3,65529,65535,0,0,0,0,0
1061,1762968128774,2,65529,65535,0,0,0,0,0
1062,1762968128858,1,65529,65535,0,0,0,0,0
1063,1762968128891,3,65529,65535,0,0,0,0,0
1064,1762968129007,2,65530,65535,0,0,0,0,0
1065,1762968129075,3,65528,65535,0,0,0,0,0
1066,1762968129158,1,65528,65535,3.31,0,0,0,0
1067,1762968129191,3,65528,0,0,0,0,0,0
1068,1762968129275,3,65528,65535,0,0,0,0,0
1069,1762968129324,3,65529,65535,0,0,0,0,0
1070,1762968129441,2,65530,65534,0,0,0,0,0
1071,1762968129441,1,65529,0,0,0,0,0,0
1072,1762968129507,3,65528,0,0,0,0,0,0
1073,1762968129558,2,65529,65535,0,0,0,0,0
1074,1762968129624,3,65529,0,0,0,0,0,0
1075,1762968129707,2,65529,65535,0,0,0,0,0
1076,1762968129774,3,65528,0,0,0,0,0,0
1077,1762968129856,4,65529,0,0,0,0,0,0
1078,1762968129925,3,65529,65535,0,0,0,0,0
1079,1762968129975,3,65528,65535,0,0,0,0,0
1080,1762968130042,1,65527,65535,0,0,0,0,0
1081,1762968130108,4,65529,0,0,0,0,0,0
1082,1762968130176,2,65529,65535,0,0,0,0,0
1083,1762968130224,2,65529,0,0,0,0,0,0
1084,1762968130275,3,65528,65535,0,0,0,0,0
1085,1762968130374,2,65529,0,0,0,0,0,0
1086,1762968130424,3,65528,0,0,0,0,0,0
1087,1762968130458,2,65529,65535,0,0,0,0,0
1088,1762968130507,3,65529,65535,3.31,0,0,0,0
1089,1762968130589,5,65527,65535,0,0,0,0,0
1090,1762968130656,3,65529,65535,0,0,0,0,0
1091,1762968130773,4,65529,65535,1,0,0,0,0
1092,1762968130839,4,65528,0,0,0,0,0,0
1093,1762968130873,4,65530,65535,0,0,0,0,0
1094,1762968130922,3,65529,65535,0,0,0,0,0
1095,1762968131055,2,65529,65535,0,0,0,0,0
1096,1762968131106,4,65529,65534,0,0,0,0,0
1097,1762968131155,2,65530,0,0,0,0,0,0
1098,1762968131222,2,65527,65535,0,0,0,0,0
1099,1762968131272,2,65529,0,0,0,0,0,0
1100,1762968131422,3,65530,65535,0,0,0,0,0
1101,1762968131472,2,65528,65534,0,0,0,0,0
1102,1762968131506,5,65528,65535,0,0,0,0,0
1103,1762968131623,3,65528,65535,0,0,0,0,0
1104,1762968131705,3,65528,65535,0,0,0,0,0
1105,1762968131771,4,65528,65535,0,0,0,0,0
1106,1762968131990,2,65527,0,0,0,0,0,0
1107,1762968132155,2,65529,1,0,0,0,0,0
1108,1762968132238,4,65530,65535,0,0,0,0,0
1109,1762968132272,2,65529,0,0,0,0,0,0
1110,1762968132355,4,65528,65535,0,0,0,0,0
1111,1762968132421,3,65530,0,0,0,0,0,0
1112,1762968132505,2,65529,1,0,0,0,0,0
1113,1762968132555,3,65529,65534,0,0,0,0,0
1114,1762968132621,4,65528,1,0,0,0,0,0
1115,1762968132772,2,65527,65535,0,0,0,0,0
1116,1762968132854,3,65528,1,0,0,0,0,0
1117,1762968132871,2,65528,0,0,0,0,0,0
1118,1762968132937,1,65530,0,1,0,0,0,0
1119,1762968133038,3,65528,0,0,0,0,0,0
1120,1762968133105,3,65528,2,0,0,0,0,0
1121,1762968133504,4,65529,65535,0,0,0,0,0
1122,1762968133654,3,65529,0,0,0,0,0,0
1123,1762968133705,3,65530,65535,0,0,0,0,0
1124,1762968133738,4,65528,65535,0,0,0,0,0
1125,1762968133789,3,65528,0,0,0,0,0,0
1126,1762968133854,3,65530,0,0,0,0,0,0
1127,1762968133904,2,65528,65535,0,0,0,0,0
1128,1762968134104,5,65529,0,0,0,0,0,0
1129,1762968134353,2,65529,0,0,0,0,0,0
1130,1762968134404,3,65528,65535,3.32,0,0,0,0
1131,1762968134503,3,65528,0,0,0,0,0,0
1132,1762968134570,2,65528,65535,0,0,0,0,0
1133,1762968134620,3,65528,0,0,0,0,0,0
1134,1762968134703,4,65528,65535,0,0,0,0,0
1135,1762968134953,4,65530,0,0,0,0,0,0
1136,1762968135019,3,65529,0,0,0,0,0,0
1137,1762968135087,2,65529,0,0,0,0,0,0
1138,1762968135138,4,65528,65535,0,0,0,0,0
1139,1762968135220,3,65528,65535,3.32,0,0,0,0
1140,1762968135252,3,65529,65535,0,0,0,0,0
1141,1762968135352,2,65528,65535,0,0,0,0,0
1142,1762968135387,4,65528,65535,0,0,0,0,0
1143,1762968135435,5,65530,0,0,0,0,0,0
1144,1762968135486,3,65528,0,0,0,0,0,0
1145,1762968135619,3,65530,65535,0,0,0,0,0
1146,1762968135735,3,65528,0,0,0,0,0,0
1147,1762968135786,3,65528,65535,0,0,0,0,0
1148,1762968135902,5,65529,1,0,0,0,0,0
1149,1762968135970,2,65529,0,0,0,0,0,0
1150,1762968136352,2,65527,65535,0,0,0,0,0
1151,1762968136469,2,65528,65535,0,0,0,0,0
1152,1762968136535,5,65530,65535,0,0,0,0,0
1153,1762968137967,3,65529,0,0,0,0,0,0
1154,1762968138000,3,65528,65535,0,0,0,0,0
1155,1762968138084,4,65529,0,0,0,0,0,0
1156,1762968138135,2,65528,65535,0,0,0,0,0
1157,1762968138217,4,65528,0,0,0,0,0,0
1158,1762968138284,4,65529,65535,0,0,0,0,0
1159,1762968138334,3,65529,0,0,0,0,0,0
1160,1762968138434,3,65529,0,0,0,0,0,0
1161,1762968138466,4,65528,0,0,0,0,0,0
1162,1762968138518,3,65529,65534,0,0,0,0,0
1163,1762968138551,2,65529,65535,0,0,0,0,0
1164,1762968138650,3,65528,65535,0,0,0,0,0
1165,1762968138733,1,65527,65534,0,0,0,0,0
1166,1762968138801,4,65528,65535,0,0,0,0,0
1167,1762968138851,4,65528,0,0,0,0,0,0
1168,1762968138982,3,65527,65535,0,0,0,0,0
1169,1762968139016,3,65528,65534,0,0,0,0,0
1170,1762968139099,4,65529,65535,0,0,0,0,0
1171,1762968139133,2,65528,0,0,0,0,0,0
1172,1762968139199,2,65527,0,0,0,0,0,0
1173,1762968139266,3,65527,65535,0,0,0,0,0
1174,1762968139315,3,65528,0,0,0,0,0,0
1175,1762968139383,4,65528,0,0,0,0,0,0
1176,1762968139449,3,65528,0,33188,0,0,0,0
1177,1762968139517,3,65527,65535,0,0,0,0,0
1178,1762968139549,4,65530,0,0,0,0,0,0
1179,1762968139633,5,65529,65535,0,0,0,0,0
1180,1762968139717,3,65529,0,1,0,0,0,0
1181,1762968139783,2,65529,65534,0,0,0,0,0
1182,1762968139833,2,65528,65535,0,0,0,0,0
1183,1762968139915,4,65529,0,0,0,0,0,0
1184,1762968139998,3,65529,65535,0,0,0,0,0
1185,1762968140066,4,65528,65535,0,0,0,0,0
1186,1762968140116,2,65529,65535,0,0,0,0,0
1187,1762968140182,3,65530,255,0,0,0,0,0
1188,1762968140266,4,65528,65535,0,0,0,0,0
1189,1762968140315,5,65528,0,0,0,0,0,0
1190,1762968140382,3,65528,0,0,0,0,0,0
1191,1762968140415,4,65529,0,0,0,0,0,0
1192,1762968140498,2,65527,65535,0,0,0,0,0
1193,1762968140532,3,65529,65535,0,0,0,0,0
1194,1762968140632,2,65528,65534,0,0,0,0,0
1195,1762968140682,4,65528,0,3.31,0,0,0,0
1196,1762968140815,3,65529,65535,0,0,0,0,0
1197,1762968140832,3,65528,65535,0,0,0,0,0
1198,1762968140899,4,65528,65535,0,0,0,0,0
1199,1762968140948,3,65529,65535,0,0,0,0,0
1200,1762968140964,3,65529,65535,0,0,0,0,0
1201,1762968141014,3,65528,65535,0,0,0,0,0
1202,1762968141080,3,65527,65533,0,0,0,0,0
1203,1762968141132,3,65528,0,0,0,0,0,0
1204,1762968141181,3,65528,0,0,0,0,0,0
1205,1762968141231,3,65530,0,0,0,0,0,0
1206,1762968141297,3,65528,0,0,0,0,0,0
1207,1762968141365,2,65529,65535,0,0,0,0,0
1208,1762968141414,4,65527,0,0,0,0,0,0
1209,1762968141548,4,65528,65535,0,0,0,0,0
1210,1762968141582,3,65529,0,0,0,0,0,0
1211,1762968141647,2,65528,65535,0,0,0,0,0
1212,1762968141681,4,65529,65535,0,0,0,0,0
1213,1762968141763,3,65529,0,0,0,0,0,0
1214,1762968141813,3,65529,0,0,0,0,0,0
1215,1762968141864,3,65529,1,0,0,0,0,0
1216,1762968141897,2,65529,65535,0,0,0,0,0
1217,1762968141963,3,65527,0,0,0,0,0,0
1218,1762968142030,1,65530,0,0,0,0,0,0
1219,1762968142130,3,65527,0,0,0,0,0,0
1220,1762968142180,4,65529,65535,0,0,0,0,0
1221,1762968142231,2,65528,0,0,0,0,0,0
1222,1762968142280,3,65528,0,0,0,0,0,0
1223,1762968142346,3,65528,65535,0,0,0,0,0
1224,1762968142397,4,65528,1,0,0,0,0,0
1225,1762968142463,3,65529,65535,0,0,0,0,0
1226,1762968142513,3,65529,65535,0,0,0,0,0
1227,1762968142581,3,65529,65535,0,0,0,0,0
1228,1762968142630,3,65527,1,0,0,0,0,0
1229,1762968142696,3,65530,1,0,0,0,0,0
1230,1762968142796,3,65528,65534,0,0,0,0,0
1231,1762968142846,2,65528,0,0,0,0,0,0
1232,1762968142863,4,65529,0,0,0,0,0,0
1233,1762968142930,4,65529,0,0,0,0,0,0
1234,1762968142964,4,65527,65535,0,0,0,0,0
1235,1762968143029,3,65528,65535,0,0,0,0,0
1236,1762968143063,3,65529,0,0,0,0,0,0
1237,1762968143145,4,65528,0,0,0,0,0,0
1238,1762968143179,3,65528,0,0,0,0,0,0
1239,1762968143263,4,65529,0,0,0,0,0,0
1240,1762968143295,5,65529,65535,0,0,0,0,0
1241,1762968143379,2,65529,0,0,0,0,0,0
1242,1762968143412,3,65528,65535,0,0,0,0,0
1243,1762968143479,2,65529,65535,0,0,0,0,0
1244,1762968143530,3,65528,65535,0,0,0,0,0
1245,1762968143596,3,65529,65535,0,0,0,0,0
1246,1762968143629,3,65529,65535,0,0,0,0,0
1247,1762968143730,3,65529,65535,0,0,0,0,0
1248,1762968143746,3,65528,0,0,0,0,0,0
1249,1762968143896,3,65529,65535,0,0,0,0,0
1250,1762968143945,2,65528,0,0,0,0,0,0
1251,1762968144013,4,65528,0,0,0,0,0,0
1252,1762968144045,1,65529,65535,0,0,0,0,0
1253,1762968144112,4,65528,0,0,0,0,0,0
1254,1762968144145,3,65529,65535,0,0,0,0,0
1255,1762968144262,5,65529,65535,0,0,0,0,0
1256,1762968144330,3,65528,0,0,0,0,0,0
1257,1762968144379,3,65529,0,0,0,0,0,0
1258,1762968144462,2,65528,65535,0,0,0,0,0
1259,1762968144562,3,65530,65535,0,0,0,0,0
1260,1762968144629,4,65528,65535,0,0,0,0,0
1261,1762968144695,4,65529,0,0,0,0,0,0
1262,1762968144729,2,65528,1,0,0,0,0,0
1263,1762968144795,3,65528,0,0,0,0,0,0
1264,1762968144844,2,65528,0,0,0,0,0,0
1265,1762968144896,4,65528,1,0,0,0,0,0
1266,1762968144929,3,65528,65535,0,0,0,0,0
1267,1762968145012,3,65527,65535,0,0,0,0,0
1268,1762968145045,2,65528,65535,0,0,0,0,0
1269,1762968145112,2,65528,0,0,0,0,0,0
1270,1762968145145,2,65528,65535,0,0,0,0,0
1271,1762968145244,1,65530,65535,0,0,0,0,0
1272,1762968145278,5,65528,65280,0,0,0,0,0
1273,1762968145345,4,65527,65535,0,0,0,0,0
1274,1762968145394,3,65528,65534,0,0,0,0,0
1275,1762968145462,3,65528,65535,0,0,0,0,0
1276,1762968145511,3,65529,65280,0,0,0,0,0
1277,1762968145561,3,65529,0,0,0,0,0,0
1278,1762968145645,3,65530,0,0,0,0,0,0
1279,1762968145713,4,65529,0,0,0,0,0,0
1280,1762968145827,2,65528,65535,33189,0,0,0,0
1281,1762968145894,3,65529,0,0,0,0,0,0
1282,1762968145960,3,65529,0,1,0,0,0,0
1283,1762968145993,4,65529,0,0,0,0,0,0
1284,1762968146027,4,65529,0,0,0,0,0,0
1285,1762968146094,2,65529,65535,0,0,0,0,0
1286,1762968146127,4,65529,1,0,0,0,0,0
1287,1762968146193,4,65528,0,0,0,0,0,0
1288,1762968146243,3,65529,65535,0,0,0,0,0
1289,1762968146293,4,65529,0,0,0,0,0,0
1290,1762968146344,3,65529,0,0,0,0,0,0
1291,1762968146411,4,65529,1,0,0,0,0,0
1292,1762968146462,3,65528,65535,3.27,0,0,0,0
1293,1762968146643,3,65528,65535,0,0,0,0,0
1294,1762968146776,3,65528,65535,0,0,0,0,0
1295,1762968146861,1,65528,65535,0,0,0,0,0
1296,1762968146894,3,65529,0,0,0,0,0,0
1297,1762968147010,2,65528,65534,0,0,0,0,0
1298,1762968147077,3,65529,65535,0,0,0,0,0
1299,1762968147110,2,65529,1,0,0,0,0,0
1300,1762968147192,5,65529,255,0,0,0,0,0
1301,1762968147225,4,65529,65535,0,0,0,0,0
1302,1762968147293,4,65529,65533,0,0,0,0,0
1303,1762968147344,4,65530,0,0,0,0,0,0
1304,1762968147409,2,65529,65535,0,0,0,0,0
1305,1762968147459,2,65529,0,0,0,0,0,0
1306,1762968147575,3,65528,1,0,0,0,0,0
1307,1762968147625,2,65528,0,0,0,0,0,0
1308,1762968147693,3,65527,65535,0,0,0,0,0
1309,1762968147826,3,65528,65534,0,0,0,0,0
1310,1762968147926,3,65528,65535,0,0,0,0,0
1311,1762968147977,2,65529,65535,0,0,0,0,0
1312,1762968147992,4,65529,0,0,0,0,0,0
1313,1762968148059,3,65529,0,0,0,0,0,0
1314,1762968148110,4,65528,0,0,0,0,0,0
1315,1762968148177,2,65529,0,3.31,0,0,0,0
1316,1762968148226,2,65529,0,0,0,0,0,0
1317,1762968148293,2,65528,0,0,0,0,0,0
1318,1762968148326,2,65529,0,0,0,0,0,0
1319,1762968148397,2,65529,0,0,0,0,0,0
1320,1762968148443,2,65527,0,0,0,0,0,0
1321,1762968148491,3,65528,0,0,0,0,0,0
1322,1762968148558,3,65529,65535,0,0,0,0,0
1323,1762968148609,3,65528,65535,0,0,0,0,0
1324,1762968148692,4,65528,0,0,0,0,0,0
1325,1762968148743,2,65528,1,0,0,0,0,0
1326,1762968148858,4,65529,65535,0,0,0,0,0
1327,1762968148908,4,65529,65535,0,0,0,0,0
1328,1762968148958,4,65528,0,0,0,0,0,0
1329,1762968148992,3,65528,0,0,0,0,0,0
1330,1762968149024,2,65528,65535,0,0,0,0,0
1331,1762968149091,5,65528,0,0,0,0,0,0
1332,1762968149125,2,65528,65535,0,0,0,0,0
1333,1762968149209,3,65531,65534,0,0,0,0,0
1334,1762968149242,4,65529,65535,0,0,0,0,0
1335,1762968149309,4,65529,0,0,0,0,0,0
1336,1762968149374,4,65529,65535,0,0,0,0,0
1337,1762968149425,2,65527,65535,0,0,0,0,0
1338,1762968149475,2,65529,0,0,0,0,0,0
1339,1762968149541,2,65528,65535,0,0,0,0,0
1340,1762968149608,4,65528,65535,0,0,0,0,0
1341,1762968149726,4,65530,65534,0,0,0,0,0
1342,1762968149758,5,65529,0,0,0,0,0,0
1343,1762968149857,3,65530,0,0,0,0,0,0
1344,1762968149908,2,65527,65534,0,0,0,0,0
1345,1762968149990,1,65528,65535,0,0,0,0,0
1346,1762968150057,3,65528,65535,0,0,0,0,0
1347,1762968150091,4,65529,0,0,0,0,0,0
1348,1762968150156,4,65530,0,0,0,0,0,0
1349,1762968150190,2,65528,1,0,0,0,0,0
1350,1762968150273,3,65529,0,0,0,0,0,0
1351,1762968150306,3,65528,65535,0,0,0,0,0
1352,1762968150407,3,65529,65535,0,0,0,0,0
1353,1762968150457,2,65530,65535,0,0,0,0,0
1354,1762968150523,3,65527,65535,0,0,0,0,0
1355,1762968150574,2,65528,65534,0,0,0,0,0
1356,1762968150640,2,65530,65535,0,0,0,0,0
1357,1762968150724,3,65529,0,0,0,0,0,0
1358,1762968150940,3,65529,0,0,0,0,0,0
1359,1762968150990,4,65529,65535,0,0,0,0,0
1360,1762968151056,5,65528,65535,0,0,0,0,0
1361,1762968151073,2,65529,65534,0,0,0,0,0
1362,1762968151158,3,65529,1,0,0,0,0,0
1363,1762968151189,3,65530,0,0,0,0,0,0
1364,1762968151256,2,65527,65534,0,0,0,0,0
1365,1762968151306,4,65531,65535,0,0,0,0,0
1366,1762968151422,3,65528,0,0,0,0,0,0
1367,1762968151473,2,65529,0,3.31,0,0,0,0
1368,1762968151540,1,65530,0,0,0,0,0,0
1369,1762968151606,2,65529,0,0,0,0,0,0
1370,1762968151722,3,65527,0,0,0,0,0,0
1371,1762968151789,3,65528,65534,0,0,0,0,0
1372,1762968151856,2,65529,65535,0,0,0,0,0
1373,1762968151889,4,65529,0,0,0,0,0,0
1374,1762968151906,2,65529,65535,0,0,0,0,0
1375,1762968151923,2,65528,65535,0,0,0,0,0
1376,1762968151989,3,65530,0,0,0,0,0,0
1377,1762968152222,3,65529,65534,0,0,0,0,0
1378,1762968152289,4,65528,0,0,0,0,0,0
1379,1762968152339,2,65528,65535,0,0,0,0,0
1380,1762968152405,2,65529,0,0,0,0,0,0
1381,1762968152456,2,65529,0,0,0,0,0,0
1382,1762968152540,2,65529,65535,0,0,0,0,0
1383,1762968152556,3,65527,1,0,0,0,0,0
1384,1762968152639,4,65527,65535,0,0,0,0,0
1385,1762968152704,2,65530,0,0,0,0,0,0
1386,1762968152773,4,65529,0,0,0,0,0,0
1387,1762968152873,3,65530,0,0,0,0,0,0
1388,1762968152905,3,65528,0,0,0,0,0,0
1389,1762968152971,3,65529,65535,1,0,0,0,0
1390,1762968153088,3,65528,0,0,0,0,0,0
1391,1762968153421,4,65528,65535,0,0,0,0,0
1392,1762968153487,5,65530,1,0,0,0,0,0
1393,1762968153521,2,65527,0,0,0,0,0,0
1394,1762968153604,4,65530,0,0,0,0,0,0
1395,1762968153638,1,65528,65535,0,0,0,0,0
1396,1762968153688,4,65528,65535,0,0,0,0,0
1397,1762968153738,3,65529,65534,0,0,0,0,0
1398,1762968153821,4,65528,0,0,0,0,0,0
1399,1762968153889,4,65528,0,0,0,0,0,0
1400,1762968153937,5,65530,0,0,0,0,0,0
1401,1762968154021,3,65531,0,0,0,0,0,0
1402,1762968154055,3,65528,65535,0,0,0,0,0
1403,1762968154104,3,65529,0,0,0,0,0,0
1404,1762968154155,3,65527,65535,0,0,0,0,0
1405,1762968154237,3,65528,0,0,0,0,0,0
1406,1762968154270,4,65529,65535,0,0,0,0,0
1407,1762968154337,3,65528,0,0,0,0,0,0
1408,1762968154405,3,65527,65535,0,0,0,0,0
1409,1762968154505,3,65528,65535,0,0,0,0,0
1410,1762968154537,1,65527,65535,0,0,0,0,0
1411,1762968154654,3,65527,65535,0,0,0,0,0
1412,1762968154704,4,65529,1,0,0,0,0,0
1413,1762968154821,3,65529,65535,0,0,0,0,0
1414,1762968154853,4,65530,0,0,0,0,0,0
1415,1762968154903,2,65529,0,0,0,0,0,0
1416,1762968154919,4,65528,65535,0,0,0,0,0
1417,1762968155003,3,65528,0,0,0,0,0,0
1418,1762968155136,4,65530,0,0,0,0,0,0
1419,1762968155187,3,65529,0,0,0,0,0,0
1420,1762968155270,2,65528,0,0,0,0,0,0
1421,1762968155336,3,65528,0,0,0,0,0,0
1422,1762968155456,2,65529,0,0,0,0,0,0
1423,1762968155504,3,65527,0,1,0,0,0,0
1424,1762968155559,2,65528,65535,0,0,0,0,0
1425,1762968155619,4,65529,0,0,0,0,0,0
1426,1762968155753,2,65528,65535,0,0,0,0,0
1427,1762968155952,3,65528,65535,0,0,0,0,0
1428,1762968156020,2,65528,0,0,0,0,0,0
1429,1762968156070,4,65528,65535,0,0,0,0,0
1430,1762968156170,5,65530,65535,0,0,0,0,0
1431,1762968156286,4,65529,65535,0,0,0,0,0
1432,1762968156336,4,65529,65535,0,0,0,0,0
1433,1762968156553,3,65528,65535,0,0,0,0,0
1434,1762968156593,2,65529,0,0,0,0,0,0
1435,1762968156685,4,65528,65535,0,0,0,0,0
1436,1762968156718,4,65527,0,0,0,0,0,0
1437,1762968156901,3,65528,0,0,0,0,0,0
1438,1762968156986,2,65529,65535,0,0,0,0,0
1439,1762968157018,3,65527,65535,0,0,0,0,0
1440,1762968157035,3,65528,0,0,0,0,0,0
1441,1762968157086,4,65529,65535,0,0,0,0,0
1442,1762968157337,4,65529,0,0,0,0,0,0
1443,1762968157369,4,65529,0,0,0,0,0,0
1444,1762968157452,4,65528,65535,0,0,0,0,0
1445,1762968157552,3,65529,0,0,0,0,0,0
1446,1762968157603,3,65528,0,0,0,0,0,0
1447,1762968157669,3,65528,65535,0,0,0,0,0
1448,1762968157736,4,65528,65535,0,0,0,0,0
1449,1762968157901,2,65529,65535,0,0,0,0,0
1450,1762968157984,3,65530,0,0,0,0,0,0
1451,1762968158018,2,65529,65535,0,0,0,0,0
1452,1762968158217,4,65529,0,0,0,0,0,0
1453,1762968158269,3,65528,65535,0,0,0,0,0
1454,1762968158350,5,65528,1,0,0,0,0,0
1455,1762968158401,4,65528,65535,0,0,0,0,0
1456,1762968158468,3,65528,65535,1,0,0,0,0
1457,1762968158734,3,65529,65535,0,0,0,0,0
1458,1762968158850,4,65527,0,0,0,0,0,0
1459,1762968158884,0,65528,65535,0,0,0,0,0
1460,1762968159050,2,65529,0,0,0,0,0,0
1461,1762968159101,5,65529,0,0,0,0,0,0
1462,1762968159134,4,65529,65535,0,0,0,0,0
1463,1762968159200,2,65529,65535,0,0,0,0,0
1464,1762968159250,3,65529,0,0,0,0,0,0
1465,1762968159433,3,65529,0,0,0,0,0,0
1466,1762968159500,4,65528,65535,0,0,0,0,0
1467,1762968159933,2,65529,65535,0,0,0,0,0
1468,1762968159983,3,65528,0,0,0,0,0,0
1469,1762968159999,2,65529,0,0,0,0,0,0
1470,1762968160115,2,65530,65535,0,0,0,0,0
1471,1762968160266,2,65527,65535,0,0,0,0,0
1472,1762968160383,2,65527,65535,0,0,0,0,0
1473,1762968160700,2,65528,65535,0,0,0,0,0
1474,1762968160915,2,65531,65535,0,0,0,0,0
1475,1762968161132,4,65528,65535,0,0,0,0,0
1476,1762968161764,2,65528,65535,0,0,0,0,0
1477,1762968161814,3,65528,65535,0,0,0,0,0
1478,1762968162763,3,65528,0,3.26,0,0,0,0
1479,1762968162881,2,65529,0,0,0,0,0,0
1480,1762968163132,4,65528,0,0,0,0,0,0
1481,1762968163181,3,65528,0,0,0,0,0,0
1482,1762968163263,2,65529,65535,0,0,0,0,0
1483,1762968163297,4,65528,0,0,0,0,0,0
1484,1762968163383,3,65529,0,0,0,0,0,0
1485,1762968163414,3,65528,65535,0,0,0,0,0
1486,1762968163496,2,65528,65535,0,0,0,0,0
1487,1762968163529,2,65529,65535,0,0,0,0,0
1488,1762968163596,4,65528,0,0,0,0,0,0
1489,1762968163646,4,65530,65535,0,0,0,0,0
1490,1762968163729,3,65528,0,0,0,0,0,0
1491,1762968163763,3,65529,65535,0,0,0,0,0
1492,1762968163829,4,65529,65535,0,0,0,0,0
1493,1762968163862,4,65528,0,0,0,0,0,0
1494,1762968163947,2,65530,0,0,0,0,0,0
1495,1762968163979,2,65528,0,0,0,0,0,0
1496,1762968164095,3,65528,1,0,0,0,0,0
1497,1762968164145,3,65528,65535,0,0,0,0,0
1498,1762968164195,3,65530,0,0,0,0,0,0
1499,1762968164230,1,65529,0,0,0,0,0,0
1500,1762968164296,3,65528,65534,0,0,0,0,0
1501,1762968164362,2,65528,0,0,0,0,0,0
1502,1762968164396,5,65529,0,0,0,0,0,0
1503,1762968164512,2,65528,0,0,0,0,0,0
1504,1762968164528,3,65529,0,0,0,0,0,0
1505,1762968164663,2,65528,65535,0,0,0,0,0
1506,1762968164730,5,65530,1,0,0,0,0,0
1507,1762968164788,4,65528,65535,0,0,0,0,0
1508,1762968164845,4,65529,0,0,0,0,0,0
1509,1762968164878,3,65529,1,0,0,0,0,0
1510,1762968164978,2,65528,0,0,0,0,0,0
1511,1762968165029,2,65529,65535,0,0,0,0,0
1512,1762968165079,3,65528,0,0,0,0,0,0
1513,1762968165162,4,65527,65535,0,0,0,0,0
1514,1762968165228,3,65528,0,0,0,0,0,0
1515,1762968165295,4,65529,0,3.26,0,0,0,0
1516,1762968165361,3,65529,0,0,0,0,0,0
1517,1762968165393,3,65528,65534,0,0,0,0,0
1518,1762968165477,3,65528,1,0,0,0,0,0
1519,1762968165512,2,65529,65535,0,0,0,0,0
1520,1762968165612,3,65527,0,0,0,0,0,0
1521,1762968165661,3,65529,0,0,0,0,0,0
1522,1762968165812,3,65528,65535,0,0,0,0,0
1523,1762968165862,4,65528,65535,0,0,0,0,0
1524,1762968165894,5,65529,0,0,0,0,0,0
1525,1762968165945,3,65529,65535,0,0,0,0,0
1526,1762968166011,3,65529,0,0,0,0,0,0
1527,1762968166061,3,65528,65535,0,0,0,0,0
1528,1762968166150,2,65529,65535,0,0,0,0,0
1529,1762968166226,3,65528,65535,0,0,0,0,0
1530,1762968166261,2,65528,65535,0,0,0,0,0
1531,1762968166344,4,65529,254,0,0,0,0,0
1532,1762968166376,4,65528,65535,0,0,0,0,0
1533,1762968166443,3,65529,65535,0,0,0,0,0
1534,1762968166494,4,65528,0,0,0,0,0,0
1535,1762968166576,3,65528,0,0,0,0,0,0
1536,1762968166626,1,65529,65535,0,0,0,0,0
1537,1762968166694,3,65529,65535,0,0,0,0,0
1538,1762968166744,3,65528,0,0,0,0,0,0
1539,1762968166811,3,65528,0,0,0,0,0,0
1540,1762968166860,3,65529,0,0,0,0,0,0
1541,1762968167060,2,65529,0,0,0,0,0,0
1542,1762968167126,2,65529,65534,0,0,0,0,0
1543,1762968167160,6,65528,0,0,0,0,0,0
1544,1762968167260,3,65529,65535,0,0,0,0,0
1545,1762968167344,3,65529,65535,0,0,0,0,0
1546,1762968167393,2,65528,0,0,0,0,0,0
1547,1762968167476,3,65528,65535,0,0,0,0,0
1548,1762968167494,4,65529,0,0,0,0,0,0
1549,1762968167625,2,65529,65535,0,0,0,0,0
1550,1762968167709,1,65527,65535,0,0,0,0,0
1551,1762968167743,3,65529,65534,0,0,0,0,0
1552,1762968167842,2,65529,65535,0,0,0,0,0
1553,1762968167925,5,65529,65535,0,0,0,0,0
1554,1762968167992,3,65527,0,0,0,0,0,0
1555,1762968168042,2,65529,0,0,0,0,0,0
1556,1762968168125,5,65528,65535,0,0,0,0,0
1557,1762968168143,3,65528,0,0,0,0,0,0
1558,1762968168225,2,65528,0,3.31,0,0,0,0
1559,1762968168275,3,65529,0,0,0,0,0,0
1560,1762968168342,2,65529,0,0,0,0,0,0
1561,1762968168391,3,65529,0,0,0,0,0,0
1562,1762968168459,4,65529,65535,0,0,0,0,0
1563,1762968168509,5,65529,65535,0,0,0,0,0
1564,1762968168576,3,65529,65535,0,0,0,0,0
1565,1762968168626,2,65528,1,0,0,0,0,0
1566,1762968168691,3,65528,0,0,0,0,0,0
1567,1762968168759,2,65530,65535,0,0,0,0,0
1568,1762968168794,4,65529,0,0,0,0,0,0
1569,1762968168877,3,65529,65535,0,0,0,0,0
1570,1762968168925,2,65528,65535,0,0,0,0,0
1571,1762968168991,4,65529,0,0,0,0,0,0
1572,1762968169074,3,65529,0,0,0,0,0,0
1573,1762968169141,3,65529,0,0,0,0,0,0
1574,1762968169175,2,65529,65535,0,0,0,0,0
1575,1762968169225,3,65529,65535,0,0,0,0,0
1576,1762968169291,4,65529,65535,0,0,0,0,0
1577,1762968169341,3,65528,65535,0,0,0,0,0
1578,1762968169424,1,65528,0,0,0,0,0,0
1579,1762968169524,2,65529,65535,0,0,0,0,0
1580,1762968169624,5,65529,0,0,0,0,0,0
1581,1762968169658,4,65528,65535,0,0,0,0,0
1582,1762968169740,2,65529,65535,0,0,0,0,0
1583,1762968169774,3,65527,0,0,0,0,0,0
1584,1762968169840,5,65531,255,0,0,0,0,0
1585,1762968169875,3,65529,65534,0,0,0,0,0
1586,1762968169957,2,65528,65280,0,0,0,0,0
1587,1762968169990,3,65529,65535,0,0,0,0,0
1588,1762968170058,1,65528,0,0,0,0,0,0
1589,1762968170092,2,65530,0,0,0,0,0,0
1590,1762968170176,4,65528,65535,0,0,0,0,0
1591,1762968170229,4,65529,65535,0,0,0,0,0
1592,1762968170340,3,65529,0,0,0,0,0,0
1593,1762968170424,2,65529,65535,0,0,0,0,0
1594,1762968170506,3,65529,0,0,0,0,0,0
1595,1762968170575,3,65529,65535,0,0,0,0,0
1596,1762968170624,3,65528,65535,0,0,0,0,0
1597,1762968170691,3,65528,65535,0,0,0,0,0
1598,1762968170740,3,65529,65535,0,0,0,0,0
1599,1762968170858,2,65528,0,0,0,0,0,0
1600,1762968170925,4,65529,65535,0,0,0,0,0
1601,1762968170990,3,65528,0,0,0,0,0,0
1602,1762968171040,4,65529,65535,0,0,0,0,0
1603,1762968171107,2,65529,0,0,0,0,0,0
1604,1762968171207,2,65529,65535,0,0,0,0,0
1605,1762968171274,2,65529,65535,0,0,0,0,0
1606,1762968171324,2,65527,0,0,0,0,0,0
1607,1762968171392,4,65529,0,0,0,0,0,0
1608,1762968171507,2,65530,0,0,0,0,0,0
1609,1762968171575,4,65527,65535,0,0,0,0,0
1610,1762968171689,2,65529,65535,33189,0,0,0,0
1611,1762968171739,4,65528,1,0,0,0,0,0
1612,1762968171773,2,65527,0,0,0,0,0,0
1613,1762968171856,4,65529,0,0,0,0,0,0
1614,1762968171907,3,65530,65535,0,0,0,0,0
1615,1762968171957,4,65530,65280,0,0,0,0,0
1616,1762968172040,3,65529,65535,0,0,0,0,0
1617,1762968172090,2,65529,65535,0,0,0,0,0
1618,1762968172156,3,65529,65535,0,0,0,0,0
1619,1762968172206,4,65529,2,0,0,0,0,0
1620,1762968172256,2,65527,65535,0,0,0,0,0
1621,1762968172306,4,65528,0,0,0,0,0,0
1622,1762968172373,2,65529,1,0,0,0,0,0
1623,1762968172472,3,65528,65535,0,0,0,0,0
1624,1762968172556,1,65527,65535,0,0,0,0,0
1625,1762968172606,3,65528,65535,0,0,0,0,0
1626,1762968172672,2,65529,65534,0,0,0,0,0
1627,1762968172707,2,65529,0,0,0,0,0,0
1628,1762968172773,4,65530,65535,0,0,0,0,0
1629,1762968172839,3,65528,0,0,0,0,0,0
1630,1762968172906,1,65529,65535,0,0,0,0,0
1631,1762968172962,3,65529,65535,0,0,0,0,0
1632,1762968172988,2,65528,65535,0,0,0,0,0
1633,1762968173072,3,65530,0,0,0,0,0,0
1634,1762968173105,3,65529,0,0,0,0,0,0
1635,1762968173171,2,65528,65535,0,0,0,0,0
1636,1762968173205,2,65529,1,0,0,0,0,0
1637,1762968173305,5,65529,1,0,0,0,0,0
1638,1762968173356,4,65529,0,0,0,0,0,0
1639,1762968173422,3,65529,65535,0,0,0,0,0
1640,1762968173472,2,65529,65535,0,0,0,0,0
1641,1762968173522,3,65529,0,0,0,0,0,0
1642,1762968173605,3,65529,0,0,0,0,0,0
1643,1762968173655,3,65528,65535,0,0,0,0,0
1644,1762968173754,3,65530,0,0,0,0,0,0
1645,1762968173822,3,65528,65535,0,0,0,0,0
1646,1762968173888,3,65529,0,0,0,0,0,0
1647,1762968174006,3,65529,65535,0,0,0,0,0
1648,1762968174071,3,65530,0,3.31,0,0,0,0
1649,1762968174172,2,65528,65535,0,0,0,0,0
1650,1762968174221,4,65528,0,0,0,0,0,0
1651,1762968174309,3,65529,65535,0,0,0,0,0
1652,1762968174403,4,65529,0,0,0,0,0,0
1653,1762968174486,5,65528,65535,0,0,0,0,0
1654,1762968174554,4,65529,0,3.32,0,0,0,0
1655,1762968174604,4,65530,65535,0,0,0,0,0
1656,1762968174637,1,65529,0,0,0,0,0,0
1657,1762968174721,4,65528,0,0,0,0,0,0
1658,1762968174753,3,65528,65535,0,0,0,0,0
1659,1762968174837,3,65529,0,0,0,0,0,0
1660,1762968174869,2,65528,0,0,0,0,0,0
1661,1762968174936,2,65529,65535,0,0,0,0,0
1662,1762968174969,3,65529,65535,0,0,0,0,0
1663,1762968175054,2,65528,65535,0,0,0,0,0
1664,1762968175086,2,65526,0,0,0,0,0,0
1665,1762968175153,4,65528,0,0,0,0,0,0
1666,1762968175202,3,65529,65535,0,0,0,0,0
1667,1762968175338,5,65528,0,0,0,0,0,0
1668,1762968175404,2,65530,0,0,0,0,0,0
1669,1762968175453,3,65527,0,0,0,0,0,0
1670,1762968175586,4,65529,0,0,0,0,0,0
1671,1762968175620,4,65529,65535,0,0,0,0,0
1672,1762968175753,4,65528,0,0,0,0,0,0
1673,1762968175853,2,65528,65535,0,0,0,0,0
1674,1762968175935,3,65528,0,0,0,0,0,0
1675,1762968175968,3,65529,65535,0,0,0,0,0
1676,1762968176052,2,65528,0,0,0,0,0,0
1677,1762968176085,3,65528,0,0,0,0,0,0
1678,1762968176152,3,65530,65535,0,0,0,0,0
1679,1762968176202,3,65528,65535,0,0,0,0,0
1680,1762968176269,3,65528,1,0,0,0,0,0
1681,1762968176318,3,65528,65535,0,0,0,0,0
1682,1762968176369,1,65529,65535,0,0,0,0,0
1683,1762968176419,4,65529,0,0,0,0,0,0
1684,1762968176536,4,65530,65535,0,0,0,0,0
1685,1762968176601,2,65530,0,0,0,0,0,0
1686,1762968176685,3,65528,65535,0,0,0,0,0
1687,1762968176718,1,65527,0,0,0,0,0,0
1688,1762968176834,2,65528,0,0,0,0,0,0
1689,1762968176919,2,65529,65535,0,0,0,0,0
1690,1762968176953,3,65528,0,0,0,0,0,0
1691,1762968177035,2,65528,65535,0,0,0,0,0
1692,1762968177100,2,65528,65535,0,0,0,0,0
1693,1762968177151,0,65530,65535,0,0,0,0,0
1694,1762968177201,4,65528,65535,0,0,0,0,0
1695,1762968177267,4,65530,65535,0,0,0,0,0
1696,1762968177318,3,65528,65534,0,0,0,0,0
1697,1762968177367,4,65529,0,0,0,0,0,0
1698,1762968177435,2,65528,65535,0,0,0,0,0
1699,1762968177484,2,65528,65535,0,0,0,0,0
1700,1762968177534,4,65529,0,0,0,0,0,0
1701,1762968177584,3,65529,65535,0,0,0,0,0
1702,1762968177668,3,65528,65535,0,0,0,0,0
1703,1762968177717,2,65529,0,0,0,0,0,0
1704,1762968177885,4,65529,0,0,0,0,0,0
1705,1762968177918,2,65528,65535,0,0,0,0,0
1706,1762968178001,3,65528,65535,0,0,0,0,0
1707,1762968178050,3,65528,65535,1,0,0,0,0
1708,1762968178100,2,65529,0,0,0,0,0,0
1709,1762968178151,4,65528,0,0,0,0,0,0
1710,1762968178217,3,65528,65534,0,0,0,0,0
1711,1762968178283,4,65530,0,0,0,0,0,0
1712,1762968178351,2,65529,65535,0,0,0,0,0
1713,1762968178384,3,65528,65535,0,0,0,0,0
1714,1762968178450,4,65529,0,0,0,0,0,0
1715,1762968178499,3,65530,65535,1,0,0,0,0
1716,1762968178549,2,65527,0,0,0,0,0,0
1717,1762968178583,4,65528,65535,0,0,0,0,0
1718,1762968178649,3,65529,65534,0,0,0,0,0
1719,1762968178700,3,65530,0,0,0,0,0,0
1720,1762968178783,2,65529,65535,0,0,0,0,0
1721,1762968178850,3,65528,65535,0,0,0,0,0
1722,1762968178883,3,65528,0,0,0,0,0,0
1723,1762968178916,4,65527,65535,0,0,0,0,0
1724,1762968179018,3,65528,65535,0,0,0,0,0
1725,1762968179049,2,65529,0,0,0,0,0,0
1726,1762968179366,3,65528,65535,0,0,0,0,0
1727,1762968179433,1,65529,65534,0,0,0,0,0
1728,1762968179483,2,65529,0,0,0,0,0,0
1729,1762968179583,2,65528,0,0,0,0,0,0
1730,1762968179650,3,65528,1,0,0,0,0,0
1731,1762968179733,1,65529,65535,0,0,0,0,0
1732,1762968179865,2,65529,0,0,0,0,0,0
1733,1762968179915,3,65528,65535,0,0,0,0,0
1734,1762968179948,2,65528,65534,0,0,0,0,0
1735,1762968180016,5,65528,0,0,0,0,0,0
1736,1762968180065,2,65529,65534,0,0,0,0,0
1737,1762968180115,3,65527,65535,0,0,0,0,0
1738,1762968180165,4,65528,0,0,0,0,0,0
1739,1762968180215,3,65528,65534,0,0,0,0,0
1740,1762968180415,4,65528,65535,0,0,0,0,0
1741,1762968180532,6,65528,65535,0,0,0,0,0
1742,1762968180632,4,65530,0,0,0,0,0,0
1743,1762968180732,2,65528,65535,0,0,0,0,0
1744,1762968180815,2,65530,1,0,0,0,0,0
1745,1762968180949,5,65529,0,33189,0,0,0,0
1746,1762968181032,4,65531,0,1,0,0,0,0
1747,1762968181081,1,65526,0,0,0,0,0,0
1748,1762968181117,0,65529,65535,0,0,0,0,0
1749,1762968181181,3,65526,65535,0,0,0,0,0
1750,1762968181230,5,65527,0,0,0,0,0,0
1751,1762968181281,4,65531,0,0,0,0,0,0
1752,1762968181330,2,65528,65535,0,0,0,0,0
1753,1762968181549,2,65530,65535,3.31,0,0,0,0
1754,1762968181598,4,65528,65535,0,0,0,0,0
1755,1762968181664,4,65528,65535,0,0,0,0,0
1756,1762968181714,5,65529,1,0,0,0,0,0
1757,1762968181831,3,65528,65535,0,0,0,0,0
1758,1762968181897,4,65528,65535,0,0,0,0,0
1759,1762968181947,4,65530,65535,0,0,0,0,0
1760,1762968182014,3,65529,0,0,0,0,0,0
1761,1762968182097,3,65529,0,0,0,0,0,0
1762,1762968182147,3,65529,65534,0,0,0,0,0
1763,1762968182214,3,65530,0,0,0,0,0,0
1764,1762968182263,4,65528,65535,0,0,0,0,0
1765,1762968182314,4,65529,65535,0,0,0,0,0
1766,1762968182364,1,65527,65535,0,0,0,0,0
1767,1762968182431,4,65528,1,0,0,0,0,0
1768,1762968182463,4,65530,0,0,0,0,0,0
1769,1762968182580,3,65528,65535,0,0,0,0,0
1770,1762968182664,3,65529,65534,0,0,0,0,0
1771,1762968182747,2,65529,65280,0,0,0,0,0
1772,1762968182864,1,65528,65535,0,0,0,0,0
1773,1762968182897,3,65528,0,0,0,0,0,0
1774,1762968182981,2,65528,0,0,0,0,0,0
1775,1762968182997,3,65529,0,0,0,0,0,0
1776,1762968183064,2,65529,0,0,0,0,0,0
1777,1762968183114,4,65529,65535,0,0,0,0,0
1778,1762968183181,4,65528,0,0,0,0,0,0
1779,1762968183347,3,65529,0,0,0,0,0,0
1780,1762968183447,3,65528,65535,0,0,0,0,0
1781,1762968183512,2,65528,255,0,0,0,0,0
1782,1762968183613,3,65528,0,0,0,0,0,0
1783,1762968183647,4,65529,1,0,0,0,0,0
1784,1762968183745,4,65530,0,0,0,0,0,0
1785,1762968183795,3,65530,65535,0,0,0,0,0
1786,1762968183851,4,65530,0,0,0,0,0,0
1787,1762968183945,4,65528,0,0,0,0,0,0
1788,1762968183980,4,65529,65534,0,0,0,0,0
1789,1762968184029,3,65530,65535,0,0,0,0,0
1790,1762968184112,2,65529,0,33190,0,0,0,0
1791,1762968184145,4,65529,0,0,0,0,0,0
1792,1762968184246,2,65528,0,0,0,0,0,0
1793,1762968184297,1,65529,0,0,0,0,0,0
1794,1762968184412,2,65527,0,0,0,0,0,0
1795,1762968184446,3,65529,0,0,0,0,0,0
1796,1762968184563,5,65528,0,0,0,0,0,0
1797,1762968184795,4,65529,1,0,0,0,0,0
1798,1762968184812,5,65528,255,0,0,0,0,0
1799,1762968184864,3,65528,65535,0,0,0,0,0
1800,1762968185411,2,65528,65535,0,0,0,0,0
1801,1762968186726,2,65528,65535,0,0,0,0,0
1802,1762968188626,3,65529,0,0,0,0,0,0
1803,1762968188709,4,65529,1,0,0,0,0,0
1804,1762968188726,2,65529,0,0,0,0,0,0
1805,1762968188808,3,65529,65535,0,0,0,0,0
1806,1762968188843,3,65528,65535,0,0,0,0,0
1807,1762968188925,4,65528,0,0,0,0,0,0
1808,1762968188992,3,65527,65535,0,0,0,0,0
1809,1762968189043,3,65528,0,0,0,0,0,0
1810,1762968189142,3,65528,0,0,0,0,0,0
1811,1762968189159,4,65529,0,0,0,0,0,0
1812,1762968189244,3,65529,65535,0,0,0,0,0
1813,1762968189276,3,65529,65535,0,0,0,0,0
1814,1762968189358,2,65527,65535,0,0,0,0,0
1815,1762968189374,4,65528,0,0,0,0,0,0
1816,1762968189457,2,65530,0,0,0,0,0,0
1817,1762968189491,3,65529,65535,0,0,0,0,0
1818,1762968189574,4,65528,65534,0,0,0,0,0
1819,1762968189675,5,65528,1,0,0,0,0,0
1820,1762968189726,3,65528,1,0,0,0,0,0
1821,1762968189808,2,65527,0,0,0,0,0,0
1822,1762968189891,3,65528,0,0,0,0,0,0
1823,1762968189990,2,65528,65535,0,0,0,0,0
1824,1762968190041,3,65528,65535,0,0,0,0,0
1825,1762968190091,3,65529,65535,0,0,0,0,0
1826,1762968190124,2,65528,65535,0,0,0,0,0
1827,1762968190190,2,65529,65535,0,0,0,0,0
1828,1762968190240,2,65527,65535,0,0,0,0,0
1829,1762968190307,3,65528,65535,0,0,0,0,0
1830,1762968190358,4,65528,65535,0,0,0,0,0
1831,1762968190440,3,65528,65535,0,0,0,0,0
1832,1762968190490,3,65528,65535,0,0,0,0,0
1833,1762968190556,3,65530,65535,0,0,0,0,0
1834,1762968190590,3,65529,65535,1,0,0,0,0
1835,1762968190661,3,65528,0,0,0,0,0,0
1836,1762968190707,2,65528,0,0,0,0,0,0
1837,1762968190775,4,65528,0,0,0,0,0,0
1838,1762968190839,3,65529,65535,0,0,0,0,0
1839,1762968190906,4,65528,1,0,0,0,0,0
1840,1762968190940,3,65529,65535,0,0,0,0,0
1841,1762968191024,4,65531,65535,0,0,0,0,0
1842,1762968191057,2,65529,65535,0,0,0,0,0
1843,1762968191124,65535,65528,1,0,0,0,0,0
1844,1762968191174,2,65528,0,0,0,0,0,0
1845,1762968191225,4,65528,65535,0,0,0,0,0
1846,1762968191290,4,65530,65533,0,0,0,0,0
1847,1762968191340,4,65528,1,0,0,0,0,0
1848,1762968191423,4,65530,65535,0,0,0,0,0
1849,1762968191475,3,65528,65535,0,0,0,0,0
1850,1762968191540,3,65529,0,0,0,0,0,0
1851,1762968191589,6,65530,0,3.31,0,0,0,0
1852,1762968191690,2,65528,65535,0,0,0,0,0
1853,1762968191773,1,65529,0,0,0,0,0,0
1854,1762968191822,3,65528,65535,0,0,0,0,0
1855,1762968191906,2,65528,0,0,0,0,0,0
1856,1762968191939,3,65528,0,0,0,0,0,0
1857,1762968191989,3,65528,65535,0,0,0,0,0
1858,1762968192123,4,65529,3,0,0,0,0,0
1859,1762968192189,0,65528,65534,0,0,0,0,0
1860,1762968192222,2,65529,65533,0,0,0,0,0
1861,1762968192323,4,65528,3,0,0,0,0,0
1862,1762968192355,5,65528,3,0,0,0,0,0
1863,1762968192423,0,65530,65532,0,0,0,0,0
1864,1762968192456,3,65528,0,0,0,0,0,0
1865,1762968192540,3,65527,0,0,0,0,0,0
1866,1762968192589,3,65529,0,0,0,0,0,0
1867,1762968192655,5,65526,65535,0,0,0,0,0
1868,1762968192722,3,65527,0,0,0,0,0,0
1869,1762968192855,3,65529,65534,0,0,0,0,0
1870,1762968192873,5,65528,0,0,0,0,0,0
1871,1762968192989,4,65528,65535,0,0,0,0,0
1872,1762968193039,4,65529,0,0,0,0,0,0
1873,1762968193054,2,65529,65535,0,0,0,0,0
1874,1762968193122,4,65529,65534,0,0,0,0,0
1875,1762968193172,1,65530,65535,0,0,0,0,0
1876,1762968193221,5,65529,0,0,0,0,0,0
1877,1762968193288,2,65527,0,0,0,0,0,0
1878,1762968193354,3,65528,0,0,0,0,0,0
1879,1762968193421,2,65530,0,0,0,0,0,0
1880,1762968193454,3,65527,1,0,0,0,0,0
1881,1762968193537,4,65528,0,0,0,0,0,0
1882,1762968193605,2,65530,0,0,0,0,0,0
1883,1762968193671,4,65529,65535,0,0,0,0,0
1884,1762968193722,4,65529,0,0,0,0,0,0
1885,1762968193771,2,65529,65535,0,0,0,0,0
1886,1762968193821,4,65527,65535,0,0,0,0,0
1887,1762968193871,3,65530,65535,0,0,0,0,0
1888,1762968193988,3,65529,0,0,0,0,0,0
1889,1762968194004,3,65529,65535,0,0,0,0,0
1890,1762968194071,2,65529,65535,0,0,0,0,0
1891,1762968194120,3,65528,1,0,0,0,0,0
1892,1762968194187,3,65529,1,0,0,0,0,0
1893,1762968194220,1,65529,65534,0,0,0,0,0
1894,1762968194338,3,65529,0,0,0,0,0,0
1895,1762968194421,2,65528,65535,0,0,0,0,0
1896,1762968194470,2,65529,0,0,0,0,0,0
1897,1762968194537,4,65528,0,0,0,0,0,0
1898,1762968194603,5,65529,1,0,0,0,0,0
1899,1762968194653,1,65528,0,0,0,0,0,0
1900,1762968194720,2,65529,0,0,0,0,0,0
1901,1762968194772,4,65528,65535,0,0,0,0,0
1902,1762968194820,2,65528,65535,0,0,0,0,0
1903,1762968194887,3,65529,0,0,0,0,0,0
1904,1762968194937,2,65528,0,0,0,0,0,0
1905,1762968194988,2,65527,65535,0,0,0,0,0
1906,1762968195053,2,65528,65535,0,0,0,0,0
1907,1762968195103,2,65529,0,0,0,0,0,0
1908,1762968195170,4,65529,65535,0,0,0,0,0
1909,1762968195204,4,65529,65535,0,0,0,0,0
1910,1762968195288,2,65529,1,0,0,0,0,0
1911,1762968195320,3,65530,65535,0,0,0,0,0
1912,1762968195403,2,65529,0,0,0,0,0,0
1913,1762968195470,4,65529,65535,0,0,0,0,0
1914,1762968195520,2,65528,0,0,0,0,0,0
1915,1762968195602,4,65529,65535,0,0,0,0,0
1916,1762968195637,4,65529,0,0,0,0,0,0
1917,1762968195753,3,65528,65535,0,0,0,0,0
1918,1762968195804,3,65529,0,0,0,0,0,0
1919,1762968195953,5,65530,1,0,0,0,0,0
1920,1762968196020,3,65530,65535,0,0,0,0,0
1921,1762968196069,2,65529,65535,0,0,0,0,0
1922,1762968196136,3,65528,65535,0,0,0,0,0
1923,1762968196185,3,65529,0,0,0,0,0,0
1924,1762968196253,3,65530,65535,0,0,0,0,0
1925,1762968196302,3,65528,65535,0,0,0,0,0
1926,1762968196370,4,65529,0,0,0,0,0,0
1927,1762968196402,4,65528,0,0,0,0,0,0
1928,1762968196486,3,65529,65535,0,0,0,0,0
1929,1762968196518,2,65529,65535,0,0,0,0,0
1930,1762968196585,3,65528,0,0,0,0,0,0
1931,1762968196652,2,65529,0,0,0,0,0,0
1932,1762968196868,3,65530,65535,1,0,0,0,0
1933,1762968197001,3,65530,65535,0,0,0,0,0
1934,1762968197068,3,65529,65535,0,0,0,0,0
1935,1762968197119,4,65527,65535,0,0,0,0,0
1936,1762968197168,2,65527,0,0,0,0,0,0
1937,1762968197218,3,65528,0,0,0,0,0,0
1938,1762968197269,4,65528,65535,0,0,0,0,0
1939,1762968197335,3,65529,65534,0,0,0,0,0
1940,1762968197386,3,65527,65535,0,0,0,0,0
1941,1762968197435,3,65528,0,0,0,0,0,0
1942,1762968197501,2,65528,65535,0,0,0,0,0
1943,1762968197551,3,65528,0,0,0,0,0,0
1944,1762968197618,3,65528,65535,0,0,0,0,0
1945,1762968197667,4,65528,65535,0,0,0,0,0
1946,1762968197784,3,65529,0,0,0,0,0,0
1947,1762968197836,3,65528,65534,0,0,0,0,0
1948,1762968197968,4,65528,0,0,0,0,0,0
1949,1762968198035,3,65529,65535,0,0,0,0,0
1950,1762968198084,2,65529,65535,0,0,0,0,0
1951,1762968198151,2,65528,65535,0,0,0,0,0
1952,1762968198184,2,65528,65534,0,0,0,0,0
1953,1762968198250,3,65529,1,0,0,0,0,0
1954,1762968198301,2,65528,65535,3.31,0,0,0,0
1955,1762968198384,3,65528,0,0,0,0,0,0
1956,1762968198450,3,65528,1,0,0,0,0,0
1957,1762968198484,5,65528,65534,0,0,0,0,0
1958,1762968198568,4,65529,65535,0,0,0,0,0
1959,1762968198601,4,65530,0,0,0,0,0,0
1960,1762968198683,3,65529,0,0,0,0,0,0
1961,1762968198734,3,65529,65535,0,0,0,0,0
1962,1762968198800,4,65529,0,0,0,0,0,0
1963,1762968198867,3,65528,255,0,0,0,0,0
1964,1762968198933,3,65530,65535,0,0,0,0,0
1965,1762968198966,2,65528,1,0,0,0,0,0
1966,1762968199016,2,65528,65534,0,0,0,0,0
1967,1762968199067,3,65529,1,0,0,0,0,0
1968,1762968199150,4,65529,65535,0,0,0,0,0
1969,1762968199200,3,65528,1,0,0,0,0,0
1970,1762968199250,3,65528,65535,0,0,0,0,0
1971,1762968199317,2,65528,0,0,0,0,0,0
1972,1762968199383,2,65528,0,0,0,0,0,0
1973,1762968199449,3,65528,0,0,0,0,0,0
1974,1762968199483,4,65529,65534,0,0,0,0,0
1975,1762968199550,2,65528,65535,0,0,0,0,0
1976,1762968199616,2,65528,65535,0,0,0,0,0
1977,1762968199717,3,65528,65535,0,0,0,0,0
1978,1762968199733,4,65530,0,0,0,0,0,0
1979,1762968199849,3,65529,65535,0,0,0,0,0
1980,1762968199949,2,65529,65535,0,0,0,0,0
1981,1762968199998,5,65528,1,0,0,0,0,0
1982,1762968200048,2,65529,0,0,0,0,0,0
1983,1762968200082,4,65529,65535,0,0,0,0,0
1984,1762968200149,3,65529,65535,0,0,0,0,0
1985,1762968200202,2,65527,0,0,0,0,0,0
1986,1762968200249,1,65529,0,0,0,0,0,0
1987,1762968200299,3,65527,0,0,0,0,0,0
1988,1762968200365,3,65528,0,3.28,0,0,0,0
1989,1762968200433,3,65528,65535,0,0,0,0,0
1990,1762968200516,2,65530,65535,0,0,0,0,0
1991,1762968200582,4,65529,65534,0,0,0,0,0
1992,1762968200666,2,65529,0,0,0,0,0,0
1993,1762968200731,2,65529,65535,0,0,0,0,0
1994,1762968200816,3,65528,65535,0,0,0,0,0
1995,1762968200982,4,65528,65535,0,0,0,0,0
1996,1762968201016,3,65528,0,0,0,0,0,0
1997,1762968201047,2,65530,0,0,0,0,0,0
1998,1762968201115,2,65529,0,0,0,0,0,0
1999,1762968201148,3,65529,65535,0,0,0,0,0
2000,1762968201232,2,65528,0,0,0,0,0,0
2001,1762968201264,1,65529,65534,0,0,0,0,0
2002,1762968201348,4,65528,0,0,0,0,0,0
2003,1762968201381,3,65530,0,0,0,0,0,0
2004,1762968201447,2,65529,65535,0,0,0,0,0
2005,1762968201498,2,65528,65535,0,0,0,0,0
2006,1762968201567,2,65529,1,0,0,0,0,0
2007,1762968201631,1,65529,65535,0,0,0,0,0
2008,1762968201698,4,65528,65535,0,0,0,0,0
2009,1762968201749,3,65528,0,0,0,0,0,0
2010,1762968201798,4,65529,0,0,0,0,0,0
2011,1762968201847,3,65530,65534,0,0,0,0,0
2012,1762968201948,4,65531,0,0,0,0,0,0
2013,1762968201981,2,65532,65535,0,0,0,0,0
2014,1762968202015,5,65527,65535,0,0,0,0,0
2015,1762968202099,4,65530,65535,3.32,0,0,0,0
2016,1762968202133,1,65530,65535,0,0,0,0,0
2017,1762968202215,2,65528,65535,0,0,0,0,0
2018,1762968202248,4,65529,0,0,0,0,0,0
2019,1762968202333,4,65529,65535,0,0,0,0,0
2020,1762968202383,3,65528,0,0,0,0,0,0
2021,1762968202448,3,65528,65535,0,0,0,0,0
2022,1762968202498,2,65528,0,0,0,0,0,0
2023,1762968202565,4,65529,65535,0,0,0,0,0
2024,1762968202613,3,65528,65535,0,0,0,0,0
2025,1762968202697,4,65529,0,0,0,0,0,0
2026,1762968202715,2,65531,65535,0,0,0,0,0
2027,1762968202798,1,65529,0,0,0,0,0,0
2028,1762968202897,3,65529,0,0,0,0,0,0
2029,1762968203031,3,65529,65535,33190,0,0,0,0
2030,1762968203097,4,65530,65535,0,0,0,0,0
2031,1762968203147,2,65528,0,0,0,0,0,0
2032,1762968203213,4,65529,65535,0,0,0,0,0
2033,1762968203263,2,65528,0,0,0,0,0,0
2034,1762968203397,2,65529,0,0,0,0,0,0
2035,1762968203448,2,65528,0,0,0,0,0,0
2036,1762968203563,3,65529,0,1,0,0,0,0
2037,1762968203629,3,65528,65535,0,0,0,0,0
2038,1762968203679,3,65528,0,0,0,0,0,0
2039,1762968203763,4,65530,0,0,0,0,0,0
2040,1762968203862,3,65529,65535,0,0,0,0,0
2041,1762968203896,2,65529,65535,0,0,0,0,0
2042,1762968203997,4,65529,0,0,0,0,0,0
2043,1762968204013,2,65527,0,0,0,0,0,0
2044,1762968204095,4,65529,0,0,0,0,0,0
2045,1762968204212,3,65531,65535,0,0,0,0,0
2046,1762968204280,3,65528,65534,0,0,0,0,0
2047,1762968204312,2,65528,65535,0,0,0,0,0
2048,1762968204395,3,65528,255,0,0,0,0,0
2049,1762968204429,2,65530,1,0,0,0,0,0
2050,1762968204545,2,65527,65535,0,0,0,0,0
2051,1762968204645,2,65528,0,0,0,0,0,0
2052,1762968204711,3,65529,0,0,0,0,0,0
2053,1762968204812,4,65530,65535,0,0,0,0,0
2054,1762968204845,4,65528,65535,0,0,0,0,0
2055,1762968204945,2,65529,65280,0,0,0,0,0
2056,1762968205028,4,65529,65535,0,0,0,0,0
2057,1762968205078,3,65529,0,0,0,0,0,0
2058,1762968205128,3,65528,0,0,0,0,0,0
2059,1762968205228,3,65530,65535,0,0,0,0,0
2060,1762968205310,3,65529,1,0,0,0,0,0
2061,1762968205344,2,65530,0,0,0,0,0,0
2062,1762968205411,4,65529,0,0,0,0,0,0
2063,1762968205494,2,65529,65535,0,0,0,0,0
2064,1762968205528,3,65528,0,0,0,0,0,0
2065,1762968205663,2,65528,65535,0,0,0,0,0
2066,1762968205762,3,65528,0,0,0,0,0,0
2067,1762968205812,3,65529,0,0,0,0,0,0
2068,1762968205945,4,65529,65535,3.26,0,0,0,0
2069,1762968206028,3,65528,65535,0,0,0,0,0
2070,1762968206045,3,65530,0,0,0,0,0,0
2071,1762968206112,3,65528,0,0,0,0,0,0
2072,1762968206194,5,65527,0,0,0,0,0,0
2073,1762968206210,2,65529,65535,0,0,0,0,0
2074,1762968206294,3,65529,0,0,0,0,0,0
2075,1762968206328,3,65528,65535,0,0,0,0,0
2076,1762968206411,2,65529,65535,0,0,0,0,0
2077,1762968206444,1,65528,65535,0,0,0,0,0
2078,1762968206529,3,65528,65535,0,0,0,0,0
2079,1762968206545,2,65528,65535,0,0,0,0,0
2080,1762968206777,3,65528,65535,0,0,0,0,0
2081,1762968206993,3,65528,65534,0,0,0,0,0
2082,1762968207011,3,65529,0,0,0,0,0,0
2083,1762968207209,2,65528,0,0,0,0,0,0
2084,1762968207277,3,65529,0,0,0,0,0,0
2085,1762968207343,3,65529,0,0,0,0,0,0
2086,1762968207393,3,65529,0,0,0,0,0,0
2087,1762968207444,2,65527,0,0,0,0,0,0
2088,1762968207509,2,65530,0,0,0,0,0,0
2089,1762968207578,2,65529,65535,0,0,0,0,0
2090,1762968207611,3,65529,0,0,0,0,0,0
2091,1762968207725,4,65529,0,0,0,0,0,0
2092,1762968207809,2,65529,65535,0,0,0,0,0
2093,1762968207859,3,65528,65535,0,0,0,0,0
2094,1762968207942,2,65528,0,0,0,0,0,0
2095,1762968208043,2,65529,65535,0,0,0,0,0
2096,1762968208175,2,65529,65535,0,0,0,0,0
2097,1762968208226,3,65528,0,0,0,0,0,0
2098,1762968208275,3,65529,65535,0,0,0,0,0
2099,1762968208358,5,65529,65535,3.32,0,0,0,0
2100,1762968208392,4,65528,65534,0,0,0,0,0
2101,1762968208492,4,65529,0,0,0,0,0,0
2102,1762968208541,5,65529,0,0,0,0,0,0
2103,1762968208607,2,65529,1,0,0,0,0,0
2104,1762968208643,2,65527,65535,0,0,0,0,0
2105,1762968208792,1,65529,0,0,0,0,0,0
2106,1762968208909,1,65530,65535,0,0,0,0,0
2107,1762968208975,4,65528,0,0,0,0,0,0
2108,1762968209041,1,65529,65535,0,0,0,0,0
2109,1762968209090,4,65529,65535,0,0,0,0,0
2110,1762968209158,2,65528,0,3.32,0,0,0,0
2111,1762968209341,4,65530,0,0,0,0,0,0
2112,1762968209441,3,65529,65535,0,0,0,0,0
2113,1762968209642,3,65528,0,3.32,0,0,0,0
2114,1762968209808,4,65528,0,0,0,0,0,0
2115,1762968209924,2,65529,65535,0,0,0,0,0
2116,1762968209957,2,65529,0,1,0,0,0,0
2117,1762968210007,3,65530,1,0,0,0,0,0
2118,1762968210091,2,65526,65535,0,0,0,0,0
2119,1762968210523,3,65528,65535,0,0,0,0,0
2120,1762968210841,4,65528,65535,0,0,0,0,0
2121,1762968211889,3,65530,65535,0,0,0,0,0
2122,1762968212139,4,65527,0,0,0,0,0,0
2123,1762968212256,4,65528,65535,0,0,0,0,0
2124,1762968212305,4,65528,0,0,0,0,0,0
2125,1762968212372,4,65528,0,0,0,0,0,0
2126,1762968212689,5,65530,0,0,0,0,0,0
2127,1762968212721,4,65528,65535,0,0,0,0,0
2128,1762968213039,2,65529,0,0,0,0,0,0
2129,1762968213171,4,65528,0,0,0,0,0,0
2130,1762968213841,3,65528,0,0,0,0,0,0
2131,1762968213954,3,65529,65535,0,0,0,0,0
2132,1762968214037,1,65528,65534,0,0,0,0,0
2133,1762968214120,65535,65532,0,0,0,0,0,0
2134,1762968214204,6,65529,65534,0,0,0,0,0
2135,1762968214237,5,65527,0,0,0,0,0,0
2136,1762968214320,2,65530,0,0,0,0,0,0
2137,1762968214354,3,65527,65535,0,0,0,0,0
2138,1762968214437,2,65528,65535,0,0,0,0,0
2139,1762968214471,1,65530,0,0,0,0,0,0
2140,1762968214554,1,65530,65535,0,0,0,0,0
2141,1762968214588,4,65527,0,0,0,0,0,0
2142,1762968214653,4,65529,0,0,0,0,0,0
2143,1762968214720,2,65529,0,0,0,0,0,0
2144,1762968214803,2,65529,65535,0,0,0,0,0
2145,1762968214886,2,65529,0,0,0,0,0,0
2146,1762968214953,3,65527,65535,0,0,0,0,0
2147,1762968215004,5,65528,0,0,0,0,0,0
2148,1762968215053,3,65529,0,0,0,0,0,0
2149,1762968215104,2,65527,65535,0,0,0,0,0
2150,1762968215154,3,65529,65535,0,0,0,0,0
2151,1762968215206,4,65530,0,0,0,0,0,0
2152,1762968215269,2,65527,65535,0,0,0,0,0
2153,1762968215319,4,65529,1,0,0,0,0,0
2154,1762968215369,3,65528,65535,0,0,0,0,0
2155,1762968215453,2,65528,0,0,0,0,0,0
2156,1762968215553,2,65529,0,0,0,0,0,0
2157,1762968215653,3,65528,1,1,0,0,0,0
2158,1762968215719,2,65528,0,0,0,0,0,0
2159,1762968215786,2,65528,0,0,0,0,0,0
2160,1762968215836,4,65529,255,0,0,0,0,0
2161,1762968215918,1,65528,65535,3.26,0,0,0,0
2162,1762968215970,3,65528,65535,0,0,0,0,0
2163,1762968216002,3,65528,0,0,0,0,0,0
2164,1762968216053,2,65527,0,0,0,0,0,0
2165,1762968216085,4,65528,65535,0,0,0,0,0
2166,1762968216136,3,65526,0,0,0,0,0,0
2167,1762968216202,4,65529,0,0,0,0,0,0
2168,1762968216236,3,65527,0,0,0,0,0,0
2169,1762968216302,1,65530,0,0,0,0,0,0
2170,1762968216319,1,65530,0,0,0,0,0,0
2171,1762968216403,4,65530,65535,0,0,0,0,0
2172,1762968216436,3,65529,65535,0,0,0,0,0
2173,1762968216519,3,65529,65535,0,0,0,0,0
2174,1762968216536,3,65528,65535,0,0,0,0,0
2175,1762968216603,2,65527,0,0,0,0,0,0
2176,1762968216669,1,65527,0,3.31,0,0,0,0
2177,1762968216768,3,65530,0,0,0,0,0,0
2178,1762968216818,4,65530,0,0,0,0,0,0
2179,1762968216934,2,65528,0,0,0,0,0,0
2180,1762968216984,5,65528,1,0,0,0,0,0
2181,1762968217035,4,65529,0,0,0,0,0,0
2182,1762968217069,1,65528,1,0,0,0,0,0
2183,1762968217201,2,65528,65535,0,0,0,0,0
2184,1762968217268,3,65529,1,0,0,0,0,0
2185,1762968217301,3,65529,65535,0,0,0,0,0
2186,1762968217368,3,65529,65535,0,0,0,0,0
2187,1762968217418,4,65528,0,0,0,0,0,0
2188,1762968217502,3,65530,0,0,0,0,0,0
2189,1762968217534,2,65529,65535,0,0,0,0,0
2190,1762968217585,3,65530,1,0,0,0,0,0
2191,1762968217652,3,65529,65535,0,0,0,0,0
2192,1762968217702,2,65529,0,0,0,0,0,0
2193,1762968217751,2,65529,65535,0,0,0,0,0
2194,1762968217801,2,65529,65535,0,0,0,0,0
2195,1762968217851,2,65529,0,0,0,0,0,0
2196,1762968217901,4,65529,0,3.31,0,0,0,0
2197,1762968217967,4,65529,65535,0,0,0,0,0
2198,1762968218033,2,65528,65534,0,0,0,0,0
2199,1762968218083,4,65528,0,0,0,0,0,0
2200,1762968218135,3,65528,65535,0,0,0,0,0
2201,1762968218184,3,65529,0,0,0,0,0,0
2202,1762968218217,3,65529,65535,0,0,0,0,0
2203,1762968218334,3,65528,1,0,0,0,0,0
2204,1762968218350,4,65528,65535,0,0,0,0,0
2205,1762968218401,3,65530,0,0,0,0,0,0
2206,1762968218450,4,65529,0,0,0,0,0,0
2207,1762968218534,5,65529,0,0,0,0,0,0
2208,1762968218567,2,65528,0,0,0,0,0,0
2209,1762968218635,2,65528,0,0,0,0,0,0
2210,1762968218717,2,65528,65535,0,0,0,0,0
2211,1762968218834,5,65529,65534,0,0,0,0,0
2212,1762968218933,3,65530,0,0,0,0,0,0
2213,1762968218967,3,65529,65535,0,0,0,0,0
2214,1762968219066,4,65527,0,0,0,0,0,0
2215,1762968219117,4,65528,65535,0,0,0,0,0
2216,1762968219266,2,65528,0,0,0,0,0,0
2217,1762968219283,2,65528,0,0,0,0,0,0
2218,1762968219367,1,65528,65535,0,0,0,0,0
2219,1762968219399,3,65528,65535,1,0,0,0,0
2220,1762968219467,3,65527,0,0,0,0,0,0
2221,1762968219517,3,65530,0,0,0,0,0,0
2222,1762968219583,3,65529,65535,0,0,0,0,0
2223,1762968219633,4,65528,1,3.31,0,0,0,0
2224,1762968219733,3,65529,0,0,0,0,0,0
2225,1762968219767,3,65530,0,0,0,0,0,0
2226,1762968219883,3,65530,0,0,0,0,0,0
2227,1762968219932,2,65528,0,0,0,0,0,0
2228,1762968219999,2,65526,65535,0,0,0,0,0
2229,1762968220032,3,65530,0,0,0,0,0,0
2230,1762968220099,4,65530,65535,0,0,0,0,0
2231,1762968220182,2,65528,65535,0,0,0,0,0
2232,1762968220266,2,65528,65535,0,0,0,0,0
2233,1762968220332,5,65527,65535,0,0,0,0,0
2234,1762968220349,3,65530,0,0,0,0,0,0
2235,1762968220399,2,65529,65535,0,0,0,0,0
2236,1762968220449,2,65528,65535,3.31,0,0,0,0
2237,1762968220565,3,65530,0,0,0,0,0,0
2238,1762968220582,2,65527,65535,0,0,0,0,0
2239,1762968220632,3,65529,1,0,0,0,0,0
2240,1762968220649,3,65529,65535,0,0,0,0,0
2241,1762968220765,3,65529,65535,0,0,0,0,0
2242,1762968220798,3,65530,0,0,0,0,0,0
2243,1762968220865,3,65529,65535,0,0,0,0,0
2244,1762968220898,2,65528,65535,0,0,0,0,0
2245,1762968221031,4,65529,65280,0,0,0,0,0
2246,1762968221099,2,65528,0,0,0,0,0,0
2247,1762968221132,2,65529,65535,0,0,0,0,0
2248,1762968221198,1,65528,65535,0,0,0,0,0
2249,1762968221215,4,65530,0,0,0,0,0,0
2250,1762968221281,3,65529,65535,0,0,0,0,0
2251,1762968221331,3,65528,65534,0,0,0,0,0
2252,1762968221381,3,65528,0,0,0,0,0,0
2253,1762968221432,2,65527,65535,0,0,0,0,0
2254,1762968221514,5,65528,65535,0,0,0,0,0
2255,1762968221598,3,65528,0,0,0,0,0,0
2256,1762968221648,2,65529,65535,0,0,0,0,0
2257,1762968221798,4,65528,0,0,0,0,0,0
2258,1762968221831,1,65530,0,0,0,0,0,0
2259,1762968221897,3,65527,65535,0,0,0,0,0
2260,1762968221981,3,65529,1,0,0,0,0,0
2261,1762968222047,2,65529,65535,0,0,0,0,0
2262,1762968222081,2,65527,1,0,0,0,0,0
2263,1762968222114,4,65528,65535,0,0,0,0,0
2264,1762968222247,3,65529,0,3.32,0,0,0,0
2265,1762968222281,1,65530,65535,0,0,0,0,0
2266,1762968222330,3,65528,65535,0,0,0,0,0
2267,1762968222398,3,65528,65535,0,0,0,0,0
2268,1762968222480,2,65530,65535,1,0,0,0,0
2269,1762968222532,4,65529,0,0,0,0,0,0
2270,1762968222597,1,65529,0,0,0,0,0,0
2271,1762968222648,3,65530,65535,0,0,0,0,0
2272,1762968222697,3,65529,0,0,0,0,0,0
2273,1762968222798,2,65528,0,0,0,0,0,0
2274,1762968222829,2,65530,0,0,0,0,0,0
2275,1762968222930,3,65529,65535,0,0,0,0,0
2276,1762968222963,5,65528,0,0,0,0,0,0
2277,1762968223030,3,65530,0,0,0,0,0,0
2278,1762968223064,2,65528,0,33190,0,0,0,0
2279,1762968223280,2,65527,65535,0,0,0,0,0
2280,1762968223379,4,65529,1,0,0,0,0,0
2281,1762968223529,4,65528,0,3.31,0,0,0,0
2282,1762968223629,2,65531,0,0,0,0,0,0
2283,1762968223762,2,65529,65535,0,0,0,0,0
2284,1762968223795,4,65528,65535,0,0,0,0,0
2285,1762968223929,4,65530,0,0,0,0,0,0
2286,1762968223980,4,65528,0,0,0,0,0,0
2287,1762968224046,4,65529,65535,0,0,0,0,0
2288,1762968224095,4,65529,65535,0,0,0,0,0
2289,1762968224130,3,65529,0,0,0,0,0,0
2290,1762968224178,3,65529,0,0,0,0,0,0
2291,1762968224312,2,65528,65535,0,0,0,0,0
2292,1762968224345,2,65529,65535,0,0,0,0,0
2293,1762968224412,3,65528,0,0,0,0,0,0
2294,1762968224446,3,65528,0,0,0,0,0,0
2295,1762968224628,4,65528,0,0,0,0,0,0
2296,1762968224746,3,65528,65535,0,0,0,0,0
2297,1762968224861,2,65528,0,0,0,0,0,0
2298,1762968224911,2,65529,65535,0,0,0,0,0
2299,1762968224979,3,65528,65535,0,0,0,0,0
2300,1762968225028,2,65529,65535,0,0,0,0,0
2301,1762968225062,3,65528,0,0,0,0,0,0
2302,1762968225112,2,65529,65535,0,0,0,0,0
2303,1762968225178,2,65529,0,0,0,0,0,0
2304,1762968225211,4,65528,65535,0,0,0,0,0
2305,1762968225278,4,65528,65535,0,0,0,0,0
2306,1762968225311,2,65529,65535,0,0,0,0,0
2307,1762968225377,3,65529,65535,0,0,0,0,0
2308,1762968225412,2,65529,0,0,0,0,0,0
2309,1762968225478,4,65530,0,0,0,0,0,0
2310,1762968225527,4,65529,65535,0,0,0,0,0
2311,1762968225612,3,65528,0,0,0,0,0,0
2312,1762968225661,2,65529,0,0,0,0,0,0
2313,1762968225761,2,65529,0,0,0,0,0,0
2314,1762968225828,4,65528,65535,0,0,0,0,0
2315,1762968225944,2,65529,65535,33190,0,0,0,0
2316,1762968226027,3,65528,65535,0,0,0,0,0
2317,1762968226111,3,65528,0,0,0,0,0,0
2318,1762968226144,3,65528,0,0,0,0,0,0
2319,1762968226210,4,65529,65535,0,0,0,0,0
2320,1762968226244,1,65529,0,0,0,0,0,0
2321,1762968226327,1,65529,65535,0,0,0,0,0
2322,1762968226376,3,65530,0,0,0,0,0,0
2323,1762968226427,3,65529,65535,0,0,0,0,0
2324,1762968226477,3,65529,0,0,0,0,0,0
2325,1762968226543,3,65530,65535,0,0,0,0,0
2326,1762968226593,3,65528,0,0,0,0,0,0
2327,1762968226660,2,65529,65535,0,0,0,0,0
2328,1762968226810,4,65528,65535,0,0,0,0,0
2329,1762968226876,2,65529,65535,0,0,0,0,0
2330,1762968226960,2,65527,65535,0,0,0,0,0
2331,1762968227043,3,65530,65535,0,0,0,0,0
2332,1762968227093,4,65529,0,0,0,0,0,0
2333,1762968227126,2,65529,1,0,0,0,0,0
2334,1762968227210,4,65529,65535,0,0,0,0,0
2335,1762968227277,4,65528,0,0,0,0,0,0
2336,1762968227310,3,65528,0,0,0,0,0,0
2337,1762968227377,3,65530,0,0,0,0,0,0
2338,1762968227426,2,65528,0,0,0,0,0,0
2339,1762968227510,2,65529,0,0,0,0,0,0
2340,1762968227560,2,65529,0,0,0,0,0,0
2341,1762968227642,3,65528,0,0,0,0,0,0
2342,1762968227677,2,65527,0,0,0,0,0,0
2343,1762968227743,4,65530,0,0,0,0,0,0
2344,1762968227776,4,65528,65535,0,0,0,0,0
2345,1762968227860,2,65528,1,0,0,0,0,0
2346,1762968227909,2,65530,65535,0,0,0,0,0
2347,1762968228009,3,65529,65535,0,0,0,0,0
2348,1762968228042,2,65528,65535,0,0,0,0,0
2349,1762968228092,3,65528,65534,0,0,0,0,0
2350,1762968228142,3,65529,0,0,0,0,0,0
2351,1762968228192,4,65529,0,0,0,0,0,0
2352,1762968228259,4,65530,0,0,0,0,0,0
2353,1762968228292,2,65529,0,0,0,0,0,0
2354,1762968228375,2,65528,0,0,0,0,0,0
2355,1762968228458,1,65528,65535,0,0,0,0,0
2356,1762968228509,2,65529,65535,0,0,0,0,0
2357,1762968228542,5,65529,65535,0,0,0,0,0
2358,1762968228625,2,65529,65535,0,0,0,0,0
2359,1762968228658,2,65530,65534,0,0,0,0,0
2360,1762968228742,2,65528,65535,0,0,0,0,0
2361,1762968228775,4,65529,0,0,0,0,0,0
2362,1762968228858,3,65528,65535,0,0,0,0,0
2363,1762968228942,4,65529,0,0,0,0,0,0
2364,1762968229025,3,65528,65535,0,0,0,0,0
2365,1762968229075,4,65528,0,0,0,0,0,0
2366,1762968229175,4,65530,0,0,0,0,0,0
2367,1762968229208,2,65529,65535,0,0,0,0,0
2368,1762968229258,4,65529,65535,33138,0,0,0,0
2369,1762968229408,3,65528,0,0,0,0,0,0
2370,1762968229524,1,65529,1,1,0,0,0,0
2371,1762968229608,4,65528,65535,0,0,0,0,0
2372,1762968229676,3,65527,65535,0,0,0,0,0
2373,1762968229808,2,65528,65535,0,0,0,0,0
2374,1762968229842,3,65529,0,0,0,0,0,0
2375,1762968229974,3,65527,0,0,0,0,0,0
2376,1762968230025,3,65528,0,0,0,0,0,0
2377,1762968230074,1,65529,65535,0,0,0,0,0
2378,1762968230174,4,65529,65535,0,0,0,0,0
2379,1762968230208,3,65528,65535,0,0,0,0,0
2380,1762968230358,4,65529,65535,0,0,0,0,0
2381,1762968230407,4,65529,0,0,0,0,0,0
2382,1762968230490,1,65529,0,0,0,0,0,0
2383,1762968230640,2,65527,65535,0,0,0,0,0
2384,1762968230690,2,65529,0,0,0,0,0,0
2385,1762968230758,3,65529,65535,0,0,0,0,0
2386,1762968230807,4,65528,65535,0,0,0,0,0
2387,1762968230907,2,65529,65535,0,0,0,0,0
2388,1762968230940,2,65529,0,0,0,0,0,0
2389,1762968231007,3,65528,65535,0,0,0,0,0
2390,1762968231041,3,65529,65535,0,0,0,0,0
2391,1762968231107,3,65528,255,0,0,0,0,0
2392,1762968231140,3,65529,1,0,0,0,0,0
2393,1762968231274,2,65527,0,0,0,0,0,0
2394,1762968231339,3,65528,0,0,0,0,0,0
2395,1762968231423,3,65530,65535,0,0,0,0,0
2396,1762968231557,3,65529,65534,0,0,0,0,0
2397,1762968231606,3,65528,0,0,0,0,0,0
2398,1762968231656,3,65530,65535,0,0,0,0,0
2399,1762968231672,3,65529,65535,0,0,0,0,0
2400,1762968231708,2,65529,65535,0,0,0,0,0
2401,1762968231740,4,65528,65535,0,0,0,0,0
2402,1762968231856,3,65529,65535,0,0,0,0,0
2403,1762968231972,3,65529,65535,0,0,0,0,0
2404,1762968232139,4,65529,65534,0,0,0,0,0
2405,1762968232172,3,65528,65535,0,0,0,0,0
2406,1762968232255,4,65529,1,0,0,0,0,0
2407,1762968232289,4,65529,0,3.31,0,0,0,0
2408,1762968232372,3,65528,65535,0,0,0,0,0
2409,1762968232472,3,65529,0,1,0,0,0,0
2410,1762968232556,2,65528,0,0,0,0,0,0
2411,1762968232638,4,65528,0,0,0,0,0,0
2412,1762968232688,2,65529,65535,0,0,0,0,0
2413,1762968232722,4,65529,65535,0,0,0,0,0
2414,1762968232805,3,65527,0,0,0,0,0,0
2415,1762968232839,3,65529,65535,0,0,0,0,0
2416,1762968232938,2,65530,0,0,0,0,0,0
2417,1762968232988,4,65528,0,3.32,0,0,0,0
2418,1762968233056,3,65528,0,0,0,0,0,0
2419,1762968233172,3,65529,65280,0,0,0,0,0
2420,1762968233288,2,65529,0,0,0,0,0,0
2421,1762968233355,2,65529,0,0,0,0,0,0
2422,1762968233438,4,65530,0,0,0,0,0,0
2423,1762968233505,3,65528,65535,33190,0,0,0,0
2424,1762968233538,4,65528,0,0,0,0,0,0
2425,1762968233587,5,65529,0,0,0,0,0,0
2426,1762968233604,3,65529,65534,0,0,0,0,0
2427,1762968233705,4,65528,0,0,0,0,0,0
2428,1762968233737,3,65529,0,0,0,0,0,0
2429,1762968233821,3,65529,65535,0,0,0,0,0
2430,1762968233854,3,65528,65535,0,0,0,0,0
2431,1762968233937,2,65528,65535,0,0,0,0,0
2432,1762968233955,2,65528,0,0,0,0,0,0
2433,1762968234038,4,65529,65535,0,0,0,0,0
2434,1762968234088,4,65528,65535,0,0,0,0,0
2435,1762968234121,3,65529,0,0,0,0,0,0
2436,1762968234237,4,65529,65535,0,0,0,0,0
2437,1762968234304,3,65529,0,0,0,0,0,0
2438,1762968234354,4,65528,65535,0,0,0,0,0
2439,1762968234421,2,65529,65535,0,0,0,0,0
2440,1762968234587,1,65529,0,0,0,0,0,0
2441,1762968234704,5,65529,0,0,0,0,0,0
2442,1762968234770,4,65529,1,0,0,0,0,0
2443,1762968234803,3,65529,0,0,0,0,0,0
2444,1762968234903,3,65528,65535,0,0,0,0,0
2445,1762968234970,2,65528,65535,0,0,0,0,0
2446,1762968235037,2,65529,0,0,0,0,0,0
2447,1762968235120,3,65529,65280,0,0,0,0,0
2448,1762968235137,5,65528,65535,0,0,0,0,0
2449,1762968235220,3,65528,0,0,0,0,0,0
2450,1762968235270,5,65528,65535,0,0,0,0,0
2451,1762968235370,4,65530,65535,0,0,0,0,0
2452,1762968235436,1,65529,0,0,0,0,0,0
2453,1762968235521,3,65530,0,0,0,0,0,0
2454,1762968235569,2,65529,65535,0,0,0,0,0
2455,1762968235636,3,65529,0,0,0,0,0,0
2456,1762968235669,3,65530,65535,0,0,0,0,0
2457,1762968235770,3,65530,65535,0,0,0,0,0
2458,1762968235870,2,65528,65535,0,0,0,0,0
2459,1762968236036,2,65529,0,0,0,0,0,0
2460,1762968236069,3,65528,1,0,0,0,0,0
2461,1762968236136,2,65529,65535,0,0,0,0,0
2462,1762968236169,3,65531,65535,0,0,0,0,0
2463,1762968236270,4,65528,0,0,0,0,0,0
2464,1762968236319,1,65528,65534,0,0,0,0,0
2465,1762968236436,3,65528,0,0,0,0,0,0
2466,1762968236487,2,65529,0,0,0,0,0,0
2467,1762968236537,4,65529,65535,0,0,0,0,0
2468,1762968236603,3,65529,0,0,0,0,0,0
2469,1762968236784,2,65528,1,0,0,0,0,0
2470,1762968236901,2,65529,0,0,0,0,0,0
2471,1762968236935,5,65529,0,0,0,0,0,0
2472,1762968237035,3,65528,0,0,0,0,0,0
2473,1762968237051,4,65529,0,0,0,0,0,0
2474,1762968237102,4,65529,65535,0,0,0,0,0
2475,1762968237135,3,65528,0,0,0,0,0,0
2476,1762968237218,2,65528,65535,0,0,0,0,0
2477,1762968237318,6,65529,0,0,0,0,0,0
2478,1762968237451,3,65528,1,0,0,0,0,0
2479,1762968237568,3,65529,65535,0,0,0,0,0
2480,1762968237686,1,65527,0,0,0,0,0,0
2481,1762968237884,3,65528,65535,0,0,0,0,0
2482,1762968237951,3,65528,0,0,0,0,0,0
2483,1762968238151,3,65529,0,0,0,0,0,0
2484,1762968238400,3,65528,65535,0,0,0,0,0
2485,1762968238450,3,65528,65535,33191,0,0,0,0
2486,1762968238518,4,65527,0,0,0,0,0,0
2487,1762968238566,4,65529,0,0,0,0,0,0
2488,1762968239083,2,65527,65535,0,0,0,0,0
2489,1762968239150,2,65528,1,0,0,0,0,0
2490,1762968239566,3,65527,0,0,0,0,0,0
2491,1762968239616,4,65528,0,0,0,0,0,0
2492,1762968240515,3,65528,65535,0,0,0,0,0
2493,1762968240582,2,65529,65535,0,0,0,0,0
2494,1762968240616,3,65528,0,0,0,0,0,0
2495,1762968240699,3,65529,65535,0,0,0,0,0
2496,1762968240749,2,65529,0,0,0,0,0,0
2497,1762968240816,3,65528,0,0,0,0,0,0
2498,1762968240866,3,65528,65535,0,0,0,0,0
2499,1762968240983,3,65528,0,3.31,0,0,0,0
2500,1762968241032,4,65529,0,0,0,0,0,0
2501,1762968241098,2,65529,0,0,0,0,0,0
2502,1762968241115,4,65528,65535,0,0,0,0,0
2503,1762968241165,2,65529,0,0,0,0,0,0
2504,1762968241215,3,65528,0,0,0,0,0,0
2505,1762968241281,2,65528,0,0,0,0,0,0
2506,1762968241331,2,65529,65534,0,0,0,0,0
2507,1762968241382,2,65528,0,0,0,0,0,0
2508,1762968241447,3,65529,1,0,0,0,0,0
2509,1762968241497,3,65529,0,0,0,0,0,0
2510,1762968241581,2,65529,0,0,0,0,0,0
2511,1762968241614,3,65529,1,0,0,0,0,0
2512,1762968241680,3,65529,65534,0,0,0,0,0
2513,1762968241748,3,65529,0,0,0,0,0,0
2514,1762968241814,4,65527,0,0,0,0,0,0
2515,1762968241864,4,65528,65535,0,0,0,0,0
2516,1762968241930,4,65528,65535,0,0,0,0,0
2517,1762968241982,2,65529,0,0,0,0,0,0
2518,1762968242064,2,65527,65534,0,0,0,0,0
2519,1762968242080,3,65529,0,0,0,0,0,0
2520,1762968242148,2,65529,0,0,0,0,0,0
2521,1762968242214,3,65529,0,0,0,0,0,0
2522,1762968242264,2,65529,65534,0,0,0,0,0
2523,1762968242381,2,65530,0,0,0,0,0,0
2524,1762968242466,4,65528,0,0,0,0,0,0
2525,1762968242514,2,65529,65535,0,0,0,0,0
2526,1762968242597,3,65528,65535,0,0,0,0,0
2527,1762968242631,3,65529,65535,0,0,0,0,0
2528,1762968242696,4,65529,0,0,0,0,0,0
2529,1762968242729,3,65529,65534,0,0,0,0,0
2530,1762968242848,2,65529,0,0,0,0,0,0
2531,1762968242897,3,65529,65535,0,0,0,0,0
2532,1762968242947,4,65528,255,0,0,0,0,0
2533,1762968243063,3,65528,0,0,0,0,0,0
2534,1762968243147,3,65530,65535,0,0,0,0,0
2535,1762968243179,65535,65526,65535,0,0,0,0,0
2536,1762968243247,3,65528,65535,0,0,0,0,0
2537,1762968243296,2,65528,0,0,0,0,0,0
2538,1762968243364,2,65528,65535,0,0,0,0,0
2539,1762968243416,1,65528,65535,0,0,0,0,0
2540,1762968243513,3,65529,1,0,0,0,0,0
2541,1762968243562,4,65529,0,0,0,0,0,0
2542,1762968243612,3,65531,65535,0,0,0,0,0
2543,1762968243679,4,65528,0,0,0,0,0,0
2544,1762968243729,4,65529,65535,0,0,0,0,0
2545,1762968243846,5,65528,65535,0,0,0,0,0
2546,1762968243930,2,65528,65535,0,0,0,0,0
2547,1762968243962,4,65529,0,0,0,0,0,0
2548,1762968244029,4,65528,1,0,0,0,0,0
2549,1762968244046,3,65528,0,0,0,0,0,0
2550,1762968244129,4,65527,65535,0,0,0,0,0
2551,1762968244162,3,65529,65535,0,0,0,0,0
2552,1762968244263,4,65530,65535,3.32,0,0,0,0
2553,1762968244313,3,65530,65535,0,0,0,0,0
2554,1762968244362,3,65529,0,0,0,0,0,0
2555,1762968244445,2,65530,0,0,0,0,0,0
2556,1762968244546,3,65528,0,0,0,0,0,0
2557,1762968244580,3,65528,0,0,0,0,0,0
2558,1762968244712,2,65528,65535,33190,0,0,0,0
2559,1762968244829,3,65528,0,0,0,0,0,0
2560,1762968244928,3,65529,65535,1,0,0,0,0
2561,1762968245011,3,65529,65535,0,0,0,0,0
2562,1762968245044,3,65529,0,0,0,0,0,0
2563,1762968245127,3,65529,1,0,0,0,0,0
2564,1762968245146,2,65529,0,0,0,0,0,0
2565,1762968245244,3,65527,0,0,0,0,0,0
2566,1762968245277,4,65528,65534,0,0,0,0,0
2567,1762968245344,3,65528,0,0,0,0,0,0
2568,1762968245411,3,65529,65533,0,0,0,0,0
2569,1762968245561,2,65528,65535,0,0,0,0,0
2570,1762968245646,3,65530,0,0,0,0,0,0
2571,1762968245728,2,65527,65535,0,0,0,0,0
2572,1762968245894,2,65527,0,0,0,0,0,0
2573,1762968245913,4,65530,65535,0,0,0,0,0
2574,1762968246044,3,65528,0,0,0,0,0,0
2575,1762968246044,3,65528,65535,0,0,0,0,0
2576,1762968246111,4,65531,0,0,0,0,0,0
2577,1762968246161,2,65529,0,0,0,0,0,0
2578,1762968246227,4,65527,0,0,0,0,0,0
2579,1762968246261,2,65527,0,0,0,0,0,0
2580,1762968246344,3,65528,65535,0,0,0,0,0
2581,1762968246395,4,65529,0,0,0,0,0,0
2582,1762968246460,2,65529,1,0,0,0,0,0
2583,1762968246510,2,65530,0,0,0,0,0,0
2584,1762968246610,3,65528,0,0,0,0,0,0
2585,1762968246677,3,65529,65535,0,0,0,0,0
2586,1762968246760,3,65529,0,0,0,0,0,0
2587,1762968246876,3,65529,65535,0,0,0,0,0
2588,1762968246960,2,65528,0,0,0,0,0,0
2589,1762968247027,2,65529,0,0,0,0,0,0
2590,1762968247059,3,65528,65535,0,0,0,0,0
2591,1762968247126,3,65528,65535,0,0,0,0,0
2592,1762968247143,2,65528,65535,0,0,0,0,0
2593,1762968247209,5,65529,65535,3.26,0,0,0,0
2594,1762968247259,3,65528,0,0,0,0,0,0
2595,1762968247326,2,65530,0,0,0,0,0,0
2596,1762968247376,3,65530,65535,0,0,0,0,0
2597,1762968247476,3,65529,0,0,0,0,0,0
2598,1762968247559,2,65529,1,0,0,0,0,0
2599,1762968247592,3,65528,65535,0,0,0,0,0
2600,1762968247659,3,65528,0,0,0,0,0,0
2601,1762968247709,4,65529,1,0,0,0,0,0
2602,1762968247809,5,65528,65535,0,0,0,0,0
2603,1762968247842,2,65529,65535,0,0,0,0,0
2604,1762968247959,3,65528,0,0,0,0,0,0
2605,1762968248042,5,65529,65535,3.26,0,0,0,0
2606,1762968248109,3,65527,0,0,0,0,0,0
2607,1762968248176,3,65528,65535,0,0,0,0,0
2608,1762968248209,2,65530,0,0,0,0,0,0
2609,1762968248276,4,65529,1,0,0,0,0,0
2610,1762968248325,2,65527,0,0,0,0,0,0
2611,1762968248392,2,65528,65280,0,0,0,0,0
2612,1762968248442,3,65528,0,3.31,0,0,0,0
2613,1762968248559,3,65527,65535,0,0,0,0,0
2614,1762968248626,3,65529,65535,0,0,0,0,0
2615,1762968248658,4,65531,0,0,0,0,0,0
2616,1762968248810,4,65528,0,0,0,0,0,0
2617,1762968248976,2,65529,65535,0,0,0,0,0
2618,1762968249025,3,65528,65535,0,0,0,0,0
2619,1762968249058,3,65528,65535,0,0,0,0,0
2620,1762968249125,4,65528,0,0,0,0,0,0
2621,1762968249175,3,65528,0,0,0,0,0,0
2622,1762968249209,1,65529,1,0,0,0,0,0
2623,1762968249291,2,65527,65535,0,0,0,0,0
2624,1762968249325,2,65528,65535,0,0,0,0,0
2625,1762968249409,3,65529,0,0,0,0,0,0
2626,1762968249441,2,65527,0,0,0,0,0,0
2627,1762968249525,3,65528,65535,0,0,0,0,0
2628,1762968249558,3,65529,1,0,0,0,0,0
2629,1762968249658,3,65529,65535,0,0,0,0,0
2630,1762968249674,2,65531,65535,0,0,0,0,0
2631,1762968249758,5,65527,0,0,0,0,0,0
2632,1762968249808,4,65529,0,0,0,0,0,0
2633,1762968249874,4,65529,0,0,0,0,0,0
2634,1762968249907,3,65528,65535,0,0,0,0,0
2635,1762968250025,3,65528,65535,0,0,0,0,0
2636,1762968250091,4,65528,0,0,0,0,0,0
2637,1762968250125,4,65528,0,0,0,0,0,0
2638,1762968250191,3,65529,65535,0,0,0,0,0
2639,1762968250224,2,65528,65535,0,0,0,0,0
2640,1762968250324,2,65528,65535,0,0,0,0,0
2641,1762968250407,3,65529,0,0,0,0,0,0
2642,1762968250425,2,65529,0,0,0,0,0,0
2643,1762968250574,4,65529,0,0,0,0,0,0
2644,1762968250624,1,65528,0,0,0,0,0,0
2645,1762968250657,4,65528,65535,0,0,0,0,0
2646,1762968250741,3,65529,0,0,0,0,0,0
2647,1762968250774,4,65529,65535,0,0,0,0,0
2648,1762968250873,5,65528,65535,0,0,0,0,0
2649,1762968250939,2,65528,65535,0,0,0,0,0
2650,1762968251006,1,65529,0,0,0,0,0,0
2651,1762968251073,3,65529,65535,0,0,0,0,0
2652,1762968251106,2,65529,0,0,0,0,0,0
2653,1762968251156,2,65529,0,0,0,0,0,0
2654,1762968251189,1,65529,65534,1,0,0,0,0
2655,1762968251289,2,65530,65535,0,0,0,0,0
2656,1762968251357,3,65528,65535,0,0,0,0,0
2657,1762968251406,2,65530,0,0,0,0,0,0
2658,1762968251473,3,65528,65535,0,0,0,0,0
2659,1762968251523,3,65529,65535,0,0,0,0,0
2660,1762968251588,2,65528,0,0,0,0,0,0
2661,1762968251639,2,65526,0,0,0,0,0,0
2662,1762968251689,3,65529,65535,0,0,0,0,0
2663,1762968251739,4,65529,65535,0,0,0,0,0
2664,1762968251806,4,65528,0,0,0,0,0,0
2665,1762968251856,2,65528,65535,0,0,0,0,0
2666,1762968251923,4,65528,65535,0,0,0,0,0
2667,1762968252006,4,65529,65535,0,0,0,0,0
2668,1762968252056,3,65528,0,0,0,0,0,0
2669,1762968252105,2,65527,0,0,0,0,0,0
2670,1762968252173,3,65530,0,0,0,0,0,0
2671,1762968252256,2,65528,0,0,0,0,0,0
2672,1762968252289,4,65529,65535,0,0,0,0,0
2673,1762968252355,4,65529,65535,0,0,0,0,0
2674,1762968252406,4,65528,65535,0,0,0,0,0
2675,1762968252472,3,65529,0,0,0,0,0,0
2676,1762968252505,4,65529,0,0,0,0,0,0
2677,1762968252572,2,65529,0,0,0,0,0,0
2678,1762968252638,3,65528,0,0,0,0,0,0
2679,1762968252705,4,65530,0,0,0,0,0,0
2680,1762968252772,4,65528,65535,0,0,0,0,0
2681,1762968252855,4,65528,0,0,0,0,0,0
2682,1762968252939,5,65528,65535,0,0,0,0,0
2683,1762968253005,2,65528,65535,0,0,0,0,0
2684,1762968253072,4,65529,65535,0,0,0,0,0
2685,1762968253122,5,65529,0,0,0,0,0,0
2686,1762968253138,3,65528,0,0,0,0,0,0
2687,1762968253189,2,65529,0,0,0,0,0,0
2688,1762968253288,3,65529,1,0,0,0,0,0
2689,1762968253355,4,65530,65535,0,0,0,0,0
2690,1762968253405,2,65527,65535,0,0,0,0,0
2691,1762968253522,4,65529,0,0,0,0,0,0
2692,1762968253605,2,65529,65535,0,0,0,0,0
2693,1762968253622,2,65527,0,0,0,0,0,0
2694,1762968253704,3,65530,65535,0,0,0,0,0
2695,1762968253738,3,65528,65535,1,0,0,0,0
2696,1762968253804,4,65529,0,0,0,0,0,0
2697,1762968253871,3,65528,0,0,0,0,0,0
2698,1762968253921,3,65529,0,0,0,0,0,0
2699,1762968253988,2,65529,65535,0,0,0,0,0
2700,1762968254037,4,65529,0,0,0,0,0,0
2701,1762968254087,4,65528,65535,0,0,0,0,0
2702,1762968254137,4,65527,0,0,0,0,0,0
2703,1762968254187,3,65530,65535,0,0,0,0,0
2704,1762968254238,1,65528,0,0,0,0,0,0
2705,1762968254304,4,65528,0,0,0,0,0,0
2706,1762968254354,2,65529,65535,0,0,0,0,0
2707,1762968254388,3,65528,2,0,0,0,0,0
2708,1762968254471,3,65528,65535,0,0,0,0,0
2709,1762968254504,3,65528,0,1,0,0,0,0
2710,1762968254737,2,65529,0,3.32,0,0,0,0
2711,1762968254804,1,65528,0,0,0,0,0,0
2712,1762968254837,4,65529,0,0,0,0,0,0
2713,1762968254987,3,65529,0,0,0,0,0,0
2714,1762968255037,3,65528,0,0,0,0,0,0
2715,1762968255070,5,65529,65535,0,0,0,0,0
2716,1762968255154,4,65527,65535,0,0,0,0,0
2717,1762968255221,3,65530,0,0,0,0,0,0
2718,1762968255253,2,65529,65535,0,0,0,0,0
2719,1762968255320,4,65528,65535,0,0,0,0,0
2720,1762968255353,4,65528,65535,0,0,0,0,0
2721,1762968255419,3,65529,0,0,0,0,0,0
2722,1762968255570,3,65528,0,33189,0,0,0,0
2723,1762968255603,3,65528,0,0,0,0,0,0
2724,1762968255686,2,65528,65535,0,0,0,0,0
2725,1762968255736,2,65530,0,0,0,0,0,0
2726,1762968255786,2,65529,65535,0,0,0,0,0
2727,1762968255936,4,65529,0,0,0,0,0,0
2728,1762968255970,2,65528,0,0,0,0,0,0
2729,1762968256019,4,65529,65535,0,0,0,0,0
2730,1762968256102,3,65529,65535,0,0,0,0,0
2731,1762968256137,3,65528,65535,0,0,0,0,0
2732,1762968256187,3,65528,0,0,0,0,0,0
2733,1762968256236,3,65528,65535,0,0,0,0,0
2734,1762968256302,2,65529,0,0,0,0,0,0
2735,1762968256336,2,65528,0,0,0,0,0,0
2736,1762968256402,2,65529,0,0,0,0,0,0
2737,1762968256452,3,65529,65535,0,0,0,0,0
2738,1762968256519,5,65529,1,0,0,0,0,0
2739,1762968256586,3,65527,1,0,0,0,0,0
2740,1762968256635,2,65530,65535,0,0,0,0,0
2741,1762968256718,3,65528,0,0,0,0,0,0
2742,1762968256835,8,65529,0,32569,0,0,0,0
2743,1762968256886,2,65529,0,0,0,0,0,0
2744,1762968256985,3,65528,65535,0,0,0,0,0
2745,1762968257168,4,65530,65535,0,0,0,0,0
2746,1762968257201,5,65527,65535,0,0,0,0,0
2747,1762968257251,3,65529,65535,3.26,0,0,0,0
2748,1762968257318,3,65529,65534,0,0,0,0,0
2749,1762968257351,2,65529,65535,0,0,0,0,0
2750,1762968257434,4,65527,0,0,0,0,0,0
2751,1762968257484,4,65528,0,0,0,0,0,0
2752,1762968257535,2,65531,0,0,0,0,0,0
2753,1762968257585,2,65528,0,0,0,0,0,0
2754,1762968257651,3,65528,65535,0,0,0,0,0
2755,1762968257667,4,65527,1,0,0,0,0,0
2756,1762968257734,4,65528,65535,0,0,0,0,0
2757,1762968257784,3,65529,65535,0,0,0,0,0
2758,1762968257834,3,65529,0,0,0,0,0,0
2759,1762968257935,2,65528,0,0,0,0,0,0
2760,1762968257985,2,65528,65534,0,0,0,0,0
2761,1762968258034,3,65530,65535,0,0,0,0,0
2762,1762968258101,4,65528,0,0,0,0,0,0
2763,1762968258151,2,65527,0,0,0,0,0,0
2764,1762968258201,2,65528,65534,0,0,0,0,0
2765,1762968258269,3,65528,65534,0,0,0,0,0
2766,1762968258317,4,65529,1,0,0,0,0,0
2767,1762968258368,3,65528,0,0,0,0,0,0
2768,1762968258467,2,65528,0,0,0,0,0,0
2769,1762968258584,3,65529,65535,0,0,0,0,0
2770,1762968258617,3,65529,0,0,0,0,0,0
2771,1762968258684,4,65529,65535,0,0,0,0,0
2772,1762968258717,2,65529,0,1,0,0,0,0
2773,1762968258784,3,65529,65535,0,0,0,0,0
2774,1762968258883,2,65528,0,0,0,0,0,0
2775,1762968259017,4,65528,0,0,0,0,0,0
2776,1762968259116,1,65530,0,0,0,0,0,0
2777,1762968259134,4,65529,0,0,0,0,0,0
2778,1762968259200,4,65529,0,0,0,0,0,0
2779,1762968259233,3,65530,0,0,0,0,0,0
2780,1762968259317,4,65529,65535,0,0,0,0,0
2781,1762968259366,3,65528,65535,0,0,0,0,0
2782,1762968259483,3,65529,0,0,0,0,0,0
2783,1762968259567,3,65528,0,0,0,0,0,0
2784,1762968259600,5,65529,65535,0,0,0,0,0
2785,1762968259666,3,65528,65534,0,0,0,0,0
2786,1762968259783,4,65529,0,0,0,0,0,0
2787,1762968259833,0,65528,0,0,0,0,0,0
2788,1762968260016,5,65528,65534,0,0,0,0,0
2789,1762968260049,3,65528,65535,0,0,0,0,0
2790,1762968260115,3,65529,0,0,0,0,0,0
2791,1762968260182,2,65529,1,0,0,0,0,0
2792,1762968260232,3,65528,65535,0,0,0,0,0
2793,1762968260298,4,65528,0,0,0,0,0,0
2794,1762968260465,3,65527,65534,0,0,0,0,0
2795,1762968260566,2,65528,65535,3.26,0,0,0,0
2796,1762968260616,3,65529,65535,0,0,0,0,0
2797,1762968260649,2,65529,65535,0,0,0,0,0
2798,1762968260732,4,65529,65535,0,0,0,0,0
2799,1762968260765,3,65529,65535,1,0,0,0,0
2800,1762968260998,2,65528,65535,0,0,0,0,0
2801,1762968261064,65533,65528,65534,0,0,0,0,0
2802,1762968261132,4,65528,0,0,0,0,0,0
2803,1762968261281,2,65529,65534,0,0,0,0,0
2804,1762968261348,6,65535,0,0,0,0,0,0
2805,1762968261398,4,65534,65535,0,0,0,0,0
2806,1762968261564,3,65531,0,0,0,0,0,0
2807,1762968261681,2,65530,0,0,0,0,0,0
2808,1762968261731,5,65529,0,0,0,0,0,0
2809,1762968261866,5,65529,0,0,0,0,0,0
2810,1762968262014,2,65528,65535,0,0,0,0,0
2811,1762968262097,4,65527,65280,0,0,0,0,0
2812,1762968265262,3,65527,0,0,0,0,0,0
2813,1762968265328,2,65530,65535,0,0,0,0,0
2814,1762968265377,4,65528,65535,0,0,0,0,0
2815,1762968265444,3,65530,65535,0,0,0,0,0
2816,1762968265494,2,65528,65535,0,0,0,0,0
2817,1762968265628,3,65529,65535,0,0,0,0,0
2818,1762968265677,4,65529,65535,0,0,0,0,0
2819,1762968265810,4,65529,65535,0,0,0,0,0
2820,1762968265844,4,65528,65535,0,0,0,0,0
2821,1762968265927,3,65529,0,0,0,0,0,0
2822,1762968265977,3,65531,65535,0,0,0,0,0
2823,1762968266060,3,65528,65535,0,0,0,0,0
2824,1762968266127,4,65529,0,0,0,0,0,0
2825,1762968266227,3,65528,0,0,0,0,0,0
2826,1762968266260,4,65528,65535,0,0,0,0,0
2827,1762968266345,3,65529,0,0,0,0,0,0
2828,1762968266394,2,65529,0,0,0,0,0,0
2829,1762968266494,4,65528,65535,0,0,0,0,0
2830,1762968266611,2,65528,0,0,0,0,0,0
2831,1762968266710,4,65528,1,0,0,0,0,0
2832,1762968266828,2,65529,65535,3.28,0,0,0,0
2833,1762968266894,4,65528,0,0,0,0,0,0
2834,1762968266977,2,65529,65535,0,0,0,0,0
2835,1762968267060,1,65528,0,0,0,0,0,0
2836,1762968267143,3,65530,65535,0,0,0,0,0
2837,1762968267193,2,65529,65535,0,0,0,0,0
2838,1762968267260,2,65528,0,3.31,0,0,0,0
2839,1762968267310,4,65528,65535,0,0,0,0,0
2840,1762968267359,2,65529,65535,0,0,0,0,0
2841,1762968267459,3,65528,0,0,0,0,0,0
2842,1762968267493,6,65529,0,1,0,0,0,0
2843,1762968267577,2,65529,0,0,0,0,0,0
2844,1762968267610,3,65529,65535,0,0,0,0,0
2845,1762968267693,5,65528,0,0,0,0,0,0
2846,1762968267709,3,65530,65535,0,0,0,0,0
2847,1762968267826,5,65527,0,0,0,0,0,0
2848,1762968267959,4,65530,0,0,0,0,0,0
2849,1762968267993,2,65530,65535,0,0,0,0,0
2850,1762968268093,4,65528,0,0,0,0,0,0
2851,1762968268159,3,65529,65535,0,0,0,0,0
2852,1762968268242,4,65529,0,0,0,0,0,0
2853,1762968268359,3,65529,65535,0,0,0,0,0
2854,1762968268442,4,65530,0,0,0,0,0,0
2855,1762968268493,4,65530,1,0,0,0,0,0
2856,1762968268575,1,65528,0,0,0,0,0,0
2857,1762968268625,2,65528,65535,0,0,0,0,0
2858,1762968268676,4,65529,65535,0,0,0,0,0
2859,1762968268742,3,65526,1,0,0,0,0,0
2860,1762968268792,3,65528,65535,0,0,0,0,0
2861,1762968268858,5,65527,65535,0,0,0,0,0
2862,1762968268908,3,65527,1,0,0,0,0,0
2863,1762968268959,1,65528,65535,0,0,0,0,0
2864,1762968269008,3,65530,65535,0,0,0,0,0
2865,1762968269091,3,65530,0,0,0,0,0,0
2866,1762968269125,1,65529,0,0,0,0,0,0
2867,1762968269241,4,65528,0,0,0,0,0,0
2868,1762968269375,1,65529,65534,0,0,0,0,0
2869,1762968269441,3,65528,65535,0,0,0,0,0
2870,1762968269642,4,65528,0,0,0,0,0,0
2871,1762968269675,4,65530,65535,0,0,0,0,0
2872,1762968269742,3,65530,0,0,0,0,0,0
2873,1762968269807,2,65530,0,0,0,0,0,0
2874,1762968269874,3,65528,0,0,0,0,0,0
2875,1762968269907,4,65528,0,0,0,0,0,0
2876,1762968270040,4,65529,1,0,0,0,0,0
2877,1762968270074,2,65526,65535,0,0,0,0,0
2878,1762968270108,2,65529,0,0,0,0,0,0
2879,1762968270140,4,65528,65535,0,0,0,0,0
2880,1762968270207,3,65530,0,0,0,0,0,0
2881,1762968270241,3,65529,1,0,0,0,0,0
2882,1762968270307,1,65528,65535,0,0,0,0,0
2883,1762968270374,4,65529,0,0,0,0,0,0
2884,1762968270473,2,65529,65535,0,0,0,0,0
2885,1762968270507,2,65528,65535,0,0,0,0,0
2886,1762968270624,3,65529,65535,0,0,0,0,0
2887,1762968270657,2,65528,0,0,0,0,0,0
2888,1762968270756,2,65529,65534,0,0,0,0,0
2889,1762968270891,4,65529,1,0,0,0,0,0
2890,1762968270958,3,65527,65535,0,0,0,0,0
2891,1762968271075,4,65528,65535,0,0,0,0,0
2892,1762968271140,3,65528,0,3.28,0,0,0,0
2893,1762968271206,3,65528,65535,0,0,0,0,0
2894,1762968271273,3,65529,0,0,0,0,0,0
2895,1762968271340,2,65528,65535,0,0,0,0,0
2896,1762968271357,1,65529,0,0,0,0,0,0
2897,1762968271423,3,65528,65535,0,0,0,0,0
2898,1762968271456,2,65529,0,0,0,0,0,0
2899,1762968271523,4,65529,0,0,0,0,0,0
2900,1762968271589,4,65529,0,0,0,0,0,0
2901,1762968271639,2,65527,65535,0,0,0,0,0
2902,1762968271706,3,65528,65535,0,0,0,0,0
2903,1762968271756,3,65529,0,0,0,0,0,0
2904,1762968271890,3,65527,0,3.32,0,0,0,0
2905,1762968271923,3,65529,65535,0,0,0,0,0
2906,1762968272105,3,65528,65535,0,0,0,0,0
2907,1762968272205,3,65530,65535,0,0,0,0,0
2908,1762968272223,2,65528,65535,0,0,0,0,0
2909,1762968272357,2,65528,65535,0,0,0,0,0
2910,1762968272422,4,65528,65535,0,0,0,0,0
2911,1762968272489,3,65528,0,0,0,0,0,0
2912,1762968272588,2,65529,65534,0,0,0,0,0
2913,1762968272622,3,65529,65535,0,0,0,0,0
2914,1762968272705,3,65528,0,0,0,0,0,0
2915,1762968272738,5,65529,65535,0,0,0,0,0
2916,1762968272804,3,65529,65535,0,0,0,0,0
2917,1762968272838,3,65528,65535,0,0,0,0,0
2918,1762968272938,3,65528,0,0,0,0,0,0
2919,1762968273021,1,65528,65534,0,0,0,0,0
2920,1762968273054,3,65528,65534,0,0,0,0,0
2921,1762968273138,3,65529,0,0,0,0,0,0
2922,1762968273205,4,65529,1,0,0,0,0,0
2923,1762968273288,4,65528,65535,0,0,0,0,0
2924,1762968273338,4,65529,0,0,0,0,0,0
2925,1762968273405,3,65529,0,0,0,0,0,0
2926,1762968273454,4,65530,65535,0,0,0,0,0
2927,1762968273521,3,65529,0,3.31,0,0,0,0
2928,1762968273621,4,65529,0,0,0,0,0,0
2929,1762968273637,1,65529,0,0,0,0,0,0
2930,1762968273721,0,65530,0,0,0,0,0,0
2931,1762968273771,2,65528,65535,0,0,0,0,0
2932,1762968273822,5,65528,0,0,0,0,0,0
2933,1762968273872,3,65528,65535,0,0,0,0,0
2934,1762968273970,65535,65528,0,0,0,0,0,0
2935,1762968274004,2,65528,0,0,0,0,0,0
