index,ACCEL_X,ACCEL_Y,ACCEL_Z,1,2,3,4,5
0,989,8104,-196,0,0,0,0,0
1,989,8074,-228,0,0,0,0,0
2,997,8080,-289,0,0,0,0,0
3,993,8099,-217,0,0,0,0,0
4,993,8090,-242,0,0,0,0,0
5,984,8088,-243,0,0,0,0,0
6,1000,8095,-196,0,0,0,0,0
7,1004,8090,-244,0,0,0,0,0
8,984,8092,-242,0,0,0,0,0
9,990,8086,-214,0,0,0,0,0
10,1005,8093,-225,0,0,0,0,0
11,1010,8092,-229,0,0,0,0,0
12,988,8092,-236,0,0,0,0,0
13,992,8080,-229,0,0,0,0,0
14,999,8085,-228,0,0,0,0,0
15,994,8089,-225,0,0,0,0,0
16,984,8096,-225,0,0,0,0,0
17,984,8090,-232,0,0,0,0,0
18,993,8083,-220,0,0,0,0,0
19,1000,8096,-222,0,0,0,0,0
20,986,8098,-232,0,0,0,0,0
21,990,8085,-237,0,0,0,0,0
22,987,8090,-222,0,0,0,0,0
23,1001,8086,-230,0,0,0,0,0
24,987,8090,-229,0,0,0,0,0
25,989,8089,-228,0,0,0,0,0
26,997,8091,-227,0,0,0,0,0
27,993,8082,-220,0,0,0,0,0
28,989,8094,-223,0,0,0,0,0
29,998,8095,-228,0,0,0,0,0
30,1000,8085,-226,0,0,0,0,0
31,992,8084,-230,0,0,0,0,0
32,989,8097,-212,0,0,0,0,0
33,989,8076,-222,0,0,0,0,0
34,988,8100,-226,0,0,0,0,0
35,1002,8090,-198,0,0,0,0,0
36,1001,8082,-232,0,0,0,0,0
37,988,8102,-224,0,0,0,0,0
38,974,8090,-248,0,0,0,0,0
39,1033,8083,-218,0,0,0,0,0
40,992,8089,-156,0,0,0,0,0
41,988,8090,-186,0,0,0,0,0
42,984,8081,-228,0,0,0,0,0
43,986,8096,-218,0,0,0,0,0
44,994,8082,-219,0,0,0,0,0
45,999,8098,-225,0,0,0,0,0
46,987,8090,-229,0,0,0,0,0
47,1001,8084,-211,0,0,0,0,0
48,989,8088,-219,0,0,0,0,0
49,989,8094,-222,0,0,0,0,0
50,1004,8092,-224,0,0,0,0,0
51,995,8078,-232,0,0,0,0,0
52,990,8088,-212,0,0,0,0,0
53,987,8093,-218,0,0,0,0,0
54,998,8087,-230,0,0,0,0,0
55,1002,8088,-218,0,0,0,0,0
56,984,8093,-221,0,0,0,0,0
57,993,8094,-216,0,0,0,0,0
58,995,8087,-235,0,0,0,0,0
59,998,8090,-222,0,0,0,0,0
60,998,8092,-217,0,0,0,0,0
61,995,8051,-255,0,0,0,0,0
62,1011,8149,-136,0,0,0,0,0
63,973,8060,-207,0,0,0,0,0
64,1002,8083,-243,0,0,0,0,0
65,1000,8077,-193,0,0,0,0,0
66,1010,8077,-236,0,0,0,0,0
67,984,8083,-231,0,0,0,0,0
68,987,8105,-213,0,0,0,0,0
69,998,8077,-215,0,0,0,0,0
70,1000,8098,-221,0,0,0,0,0
71,984,8096,-223,0,0,0,0,0
72,988,8087,-228,0,0,0,0,0
73,1000,8084,-218,0,0,0,0,0
74,1000,8098,-220,0,0,0,0,0
75,994,8096,-223,0,0,0,0,0
76,987,8088,-228,0,0,0,0,0
77,1006,8093,-216,0,0,0,0,0
78,994,8096,-216,0,0,0,0,0
79,996,8086,-227,0,0,0,0,0
80,994,8088,-230,0,0,0,0,0
81,992,8088,-224,0,0,0,0,0
82,1000,8090,-216,0,0,0,0,0
83,992,8086,-225,0,0,0,0,0
84,986,8092,-220,0,0,0,0,0
85,992,8089,-219,0,0,0,0,0
86,998,8094,-218,0,0,0,0,0
87,990,8085,-220,0,0,0,0,0
88,995,8097,-230,0,0,0,0,0
89,989,8094,-220,0,0,0,0,0
90,996,8097,-216,0,0,0,0,0
91,997,8091,-224,0,0,0,0,0
92,996,8082,-230,0,0,0,0,0
93,992,8100,-216,0,0,0,0,0
94,986,8092,-227,0,0,0,0,0
95,988,8073,-220,0,0,0,0,0
96,992,8092,-246,0,0,0,0,0
97,990,8092,-250,0,0,0,0,0
98,994,8080,-226,0,0,0,0,0
99,998,8100,-215,0,0,0,0,0
100,998,8097,-214,0,0,0,0,0
101,990,8087,-215,0,0,0,0,0
102,996,8096,-228,0,0,0,0,0
103,994,8098,-219,0,0,0,0,0
104,996,8086,-220,0,0,0,0,0
105,990,8094,-221,0,0,0,0,0
106,999,8097,-227,0,0,0,0,0
107,998,8085,-249,0,0,0,0,0
108,1007,8081,-196,0,0,0,0,0
109,1008,8092,-210,0,0,0,0,0
110,1009,8089,-216,0,0,0,0,0
111,1008,8108,-194,0,0,0,0,0
112,997,8084,-255,0,0,0,0,0
113,996,8074,-234,0,0,0,0,0
114,997,8095,-219,0,0,0,0,0
115,1010,8104,-192,0,0,0,0,0
116,994,8070,-211,0,0,0,0,0
117,984,8090,-233,0,0,0,0,0
118,1006,8093,-214,0,0,0,0,0
119,1000,8082,-209,0,0,0,0,0
120,1006,8084,-206,0,0,0,0,0
121,1004,8098,-226,0,0,0,0,0
122,994,8090,-229,0,0,0,0,0
123,1001,8088,-214,0,0,0,0,0
124,994,8094,-215,0,0,0,0,0
125,1005,8096,-214,0,0,0,0,0
126,1004,8084,-223,0,0,0,0,0
127,996,8094,-228,0,0,0,0,0
128,999,8095,-210,0,0,0,0,0
129,1004,8094,-209,0,0,0,0,0
130,1002,8086,-202,0,0,0,0,0
131,999,8086,-241,0,0,0,0,0
132,1004,8089,-228,0,0,0,0,0
133,998,8094,-217,0,0,0,0,0
134,1006,8095,-214,0,0,0,0,0
135,1002,8089,-231,0,0,0,0,0
136,994,8092,-217,0,0,0,0,0
137,1014,8101,-206,0,0,0,0,0
138,1001,8085,-203,0,0,0,0,0
139,998,8088,-214,0,0,0,0,0
140,996,8091,-234,0,0,0,0,0
141,1006,8088,-224,0,0,0,0,0
142,994,8092,-210,0,0,0,0,0
143,998,8097,-205,0,0,0,0,0
144,1002,8090,-212,0,0,0,0,0
145,1010,8090,-237,0,0,0,0,0
146,1003,8086,-229,0,0,0,0,0
147,993,8083,-204,0,0,0,0,0
148,1006,8096,-212,0,0,0,0,0
149,1006,8086,-207,0,0,0,0,0
150,1001,8091,-231,0,0,0,0,0
151,1006,8091,-237,0,0,0,0,0
152,1001,8090,-214,0,0,0,0,0
153,1000,8092,-211,0,0,0,0,0
154,998,8084,-220,0,0,0,0,0
155,992,8089,-229,0,0,0,0,0
156,999,8091,-218,0,0,0,0,0
157,1002,8094,-212,0,0,0,0,0
158,1008,8086,-218,0,0,0,0,0
159,1001,8088,-224,0,0,0,0,0
160,1009,8092,-225,0,0,0,0,0
161,1010,8092,-210,0,0,0,0,0
162,1003,8093,-220,0,0,0,0,0
163,1000,8093,-223,0,0,0,0,0
164,1003,8086,-222,0,0,0,0,0
165,1006,8088,-223,0,0,0,0,0
166,1009,8099,-224,0,0,0,0,0
167,1004,8097,-223,0,0,0,0,0
168,1005,8098,-204,0,0,0,0,0
169,998,8094,-214,0,0,0,0,0
170,1003,8092,-214,0,0,0,0,0
171,1006,8092,-224,0,0,0,0,0
172,1000,8098,-214,0,0,0,0,0
173,1005,8084,-222,0,0,0,0,0
174,1000,8091,-224,0,0,0,0,0
175,1000,8098,-221,0,0,0,0,0
176,1004,8090,-209,0,0,0,0,0
177,1000,8092,-217,0,0,0,0,0
178,999,8083,-233,0,0,0,0,0
179,1004,8088,-212,0,0,0,0,0
180,999,8092,-213,0,0,0,0,0
181,989,8089,-225,0,0,0,0,0
182,996,8086,-217,0,0,0,0,0
183,993,8088,-220,0,0,0,0,0
184,998,8084,-211,0,0,0,0,0
185,1001,8087,-215,0,0,0,0,0
186,1000,8088,-227,0,0,0,0,0
187,1000,8093,-229,0,0,0,0,0
188,1002,8080,-214,0,0,0,0,0
189,1005,8088,-211,0,0,0,0,0
190,1002,8093,-211,0,0,0,0,0
191,1012,8093,-218,0,0,0,0,0
192,996,8097,-219,0,0,0,0,0
193,1002,8084,-225,0,0,0,0,0
194,1004,8084,-206,0,0,0,0,0
195,1002,8085,-214,0,0,0,0,0
196,992,8092,-212,0,0,0,0,0
197,998,8090,-228,0,0,0,0,0
198,1001,8082,-232,0,0,0,0,0
199,1000,8088,-218,0,0,0,0,0
200,994,8088,-201,0,0,0,0,0
201,997,8086,-214,0,0,0,0,0
202,996,8087,-244,0,0,0,0,0
203,997,8088,-236,0,0,0,0,0
204,999,8094,-211,0,0,0,0,0
205,992,8088,-206,0,0,0,0,0
206,1005,8081,-209,0,0,0,0,0
207,1004,8092,-202,0,0,0,0,0
208,995,8092,-221,0,0,0,0,0
209,998,8097,-221,0,0,0,0,0
210,996,8086,-213,0,0,0,0,0
211,997,8090,-218,0,0,0,0,0
212,1002,8092,-211,0,0,0,0,0
213,999,8088,-218,0,0,0,0,0
214,996,8092,-221,0,0,0,0,0
215,999,8096,-217,0,0,0,0,0
216,999,8091,-219,0,0,0,0,0
217,995,8088,-238,0,0,0,0,0
218,995,8085,-221,0,0,0,0,0
219,1004,8090,-206,0,0,0,0,0
220,1006,8093,-216,0,0,0,0,0
221,1000,8088,-222,0,0,0,0,0
222,997,8086,-230,0,0,0,0,0
223,1002,8086,-227,0,0,0,0,0
224,1000,8096,-208,0,0,0,0,0
225,1002,8087,-209,0,0,0,0,0
226,1004,8094,-211,0,0,0,0,0
227,991,8080,-223,0,0,0,0,0
228,989,8096,-241,0,0,0,0,0
229,1005,8096,-232,0,0,0,0,0
230,1003,8088,-208,0,0,0,0,0
231,1000,8092,-200,0,0,0,0,0
232,993,8085,-220,0,0,0,0,0
233,1006,8096,-209,0,0,0,0,0
234,997,8092,-220,0,0,0,0,0
235,990,8084,-224,0,0,0,0,0
236,999,8091,-224,0,0,0,0,0
237,1000,8094,-216,0,0,0,0,0
238,1009,8090,-228,0,0,0,0,0
239,1002,8082,-222,0,0,0,0,0
240,999,8093,-214,0,0,0,0,0
241,1003,8090,-216,0,0,0,0,0
242,992,8091,-210,0,0,0,0,0
243,1010,8134,-187,0,0,0,0,0
244,1014,8060,-178,0,0,0,0,0
245,993,8096,-170,0,0,0,0,0
246,996,8089,-241,0,0,0,0,0
247,989,8100,-278,0,0,0,0,0
248,1002,8122,-192,0,0,0,0,0
249,996,8081,-204,0,0,0,0,0
250,1022,8097,-170,0,0,0,0,0
251,998,8086,-222,0,0,0,0,0
252,990,8086,-228,0,0,0,0,0
253,994,8092,-249,0,0,0,0,0
254,1001,8085,-219,0,0,0,0,0
255,998,8098,-204,0,0,0,0,0
256,1006,8096,-206,0,0,0,0,0
257,995,8092,-218,0,0,0,0,0
258,993,8089,-221,0,0,0,0,0
259,1001,8094,-220,0,0,0,0,0
260,1003,8086,-222,0,0,0,0,0
261,1003,8091,-203,0,0,0,0,0
262,1005,8087,-217,0,0,0,0,0
263,1001,8089,-220,0,0,0,0,0
264,998,8095,-219,0,0,0,0,0
265,999,8085,-219,0,0,0,0,0
266,1001,8086,-220,0,0,0,0,0
267,1000,8091,-218,0,0,0,0,0
268,1004,8087,-224,0,0,0,0,0
269,1012,8094,-225,0,0,0,0,0
270,992,8092,-219,0,0,0,0,0
271,1003,8097,-212,0,0,0,0,0
272,996,8085,-214,0,0,0,0,0
273,1007,8094,-227,0,0,0,0,0
274,1000,8088,-213,0,0,0,0,0
275,1006,8096,-194,0,0,0,0,0
276,994,8103,-167,0,0,0,0,0
277,1004,8083,-227,0,0,0,0,0
278,999,8099,-207,0,0,0,0,0
279,1012,8094,-231,0,0,0,0,0
280,990,8088,-245,0,0,0,0,0
281,996,8090,-186,0,0,0,0,0
282,1010,8085,-214,0,0,0,0,0
283,1008,8100,-179,0,0,0,0,0
284,996,8093,-197,0,0,0,0,0
285,1006,8083,-231,0,0,0,0,0
286,1001,8097,-246,0,0,0,0,0
287,990,8084,-220,0,0,0,0,0
288,1007,8092,-199,0,0,0,0,0
289,998,8079,-218,0,0,0,0,0
290,1012,8094,-252,0,0,0,0,0
291,1012,8097,-207,0,0,0,0,0
292,1008,8094,-212,0,0,0,0,0
293,988,8104,-185,0,0,0,0,0
294,998,8093,-202,0,0,0,0,0
295,1013,8092,-255,0,0,0,0,0
296,995,8090,-208,0,0,0,0,0
297,1001,8097,-196,0,0,0,0,0
298,1005,8096,-227,0,0,0,0,0
299,1002,8091,-233,0,0,0,0,0
300,1003,8084,-242,0,0,0,0,0
301,991,8090,-230,0,0,0,0,0
302,1004,8097,-187,0,0,0,0,0
303,994,8091,-240,0,0,0,0,0
304,990,8088,-226,0,0,0,0,0
305,986,8092,-215,0,0,0,0,0
306,1003,8080,-224,0,0,0,0,0
307,990,8082,-221,0,0,0,0,0
308,996,8086,-237,0,0,0,0,0
309,1004,8092,-212,0,0,0,0,0
310,999,8089,-214,0,0,0,0,0
311,996,8094,-216,0,0,0,0,0
312,992,8092,-216,0,0,0,0,0
313,1000,8081,-220,0,0,0,0,0
314,996,8091,-216,0,0,0,0,0
315,1004,8088,-234,0,0,0,0,0
316,1007,8088,-214,0,0,0,0,0
317,1000,8090,-190,0,0,0,0,0
318,994,8100,-246,0,0,0,0,0
319,1001,8088,-260,0,0,0,0,0
320,1008,8084,-200,0,0,0,0,0
321,999,8088,-197,0,0,0,0,0
322,997,8076,-202,0,0,0,0,0
323,1004,8090,-246,0,0,0,0,0
324,1002,8094,-224,0,0,0,0,0
325,991,8086,-202,0,0,0,0,0
326,996,8085,-200,0,0,0,0,0
327,1008,8094,-224,0,0,0,0,0
328,1000,8093,-224,0,0,0,0,0
329,996,8088,-210,0,0,0,0,0
330,1008,8084,-200,0,0,0,0,0
331,1000,8088,-218,0,0,0,0,0
332,998,8088,-226,0,0,0,0,0
333,993,8092,-214,0,0,0,0,0
334,992,8088,-204,0,0,0,0,0
335,998,8088,-216,0,0,0,0,0
336,1001,8089,-227,0,0,0,0,0
337,994,8090,-224,0,0,0,0,0
338,1004,8088,-210,0,0,0,0,0
339,998,8092,-218,0,0,0,0,0
340,1002,8091,-227,0,0,0,0,0
341,1000,8085,-218,0,0,0,0,0
342,1006,8096,-212,0,0,0,0,0
343,1001,8087,-205,0,0,0,0,0
344,996,8092,-220,0,0,0,0,0
345,999,8088,-214,0,0,0,0,0
346,1004,8090,-228,0,0,0,0,0
347,1006,8092,-224,0,0,0,0,0
348,997,8093,-226,0,0,0,0,0
349,995,8094,-218,0,0,0,0,0
350,995,8089,-219,0,0,0,0,0
351,994,8088,-216,0,0,0,0,0
352,1003,8085,-228,0,0,0,0,0
353,1003,8088,-212,0,0,0,0,0
354,1000,8090,-216,0,0,0,0,0
355,1000,8088,-205,0,0,0,0,0
356,1000,8092,-219,0,0,0,0,0
357,1006,8083,-220,0,0,0,0,0
358,1004,8090,-220,0,0,0,0,0
359,992,8098,-231,0,0,0,0,0
360,1008,8090,-224,0,0,0,0,0
361,1004,8090,-214,0,0,0,0,0
362,999,8094,-211,0,0,0,0,0
363,996,8086,-220,0,0,0,0,0
364,1002,8094,-222,0,0,0,0,0
365,1000,8090,-208,0,0,0,0,0
366,1008,8092,-219,0,0,0,0,0
367,1002,8090,-225,0,0,0,0,0
368,995,8094,-230,0,0,0,0,0
369,999,8089,-208,0,0,0,0,0
370,1000,8092,-214,0,0,0,0,0
371,999,8098,-220,0,0,0,0,0
372,995,8078,-226,0,0,0,0,0
373,998,8089,-215,0,0,0,0,0
374,1001,8086,-207,0,0,0,0,0
375,1004,8083,-211,0,0,0,0,0
376,998,8099,-223,0,0,0,0,0
377,993,8086,-216,0,0,0,0,0
378,1004,8085,-219,0,0,0,0,0
379,1000,8095,-210,0,0,0,0,0
380,998,8094,-220,0,0,0,0,0
381,994,8090,-215,0,0,0,0,0
382,1004,8085,-220,0,0,0,0,0
383,1000,8090,-220,0,0,0,0,0
384,1000,8091,-215,0,0,0,0,0
385,998,8092,-220,0,0,0,0,0
386,993,8088,-220,0,0,0,0,0
387,1002,8095,-216,0,0,0,0,0
388,1003,8092,-219,0,0,0,0,0
389,996,8093,-226,0,0,0,0,0
390,1006,8086,-222,0,0,0,0,0
391,1407,9296,-767,0,0,0,0,0
392,1033,7814,-192,0,0,0,0,0
393,971,8110,532,0,0,0,0,0
394,1148,8300,-167,0,0,0,0,0
395,972,8254,-158,0,0,0,0,0
396,920,7701,-383,0,0,0,0,0
397,936,8027,518,0,0,0,0,0
398,864,8266,-448,0,0,0,0,0
399,1032,8225,-24,0,0,0,0,0
400,998,8041,-122,0,0,0,0,0
401,1033,8044,-140,0,0,0,0,0
402,975,8128,-246,0,0,0,0,0
403,1015,8144,-231,0,0,0,0,0
404,1018,8049,-212,0,0,0,0,0
405,995,8076,-199,0,0,0,0,0
406,973,8123,-207,0,0,0,0,0
407,977,8094,-215,0,0,0,0,0
408,1005,8063,-213,0,0,0,0,0
409,1008,8115,-174,0,0,0,0,0
410,980,8101,-221,0,0,0,0,0
411,988,8069,-228,0,0,0,0,0
412,999,8104,-270,0,0,0,0,0
413,1008,8100,-195,0,0,0,0,0
414,999,8088,-163,0,0,0,0,0
415,997,8098,-192,0,0,0,0,0
416,985,8106,-228,0,0,0,0,0
417,994,8066,-232,0,0,0,0,0
418,996,8084,-218,0,0,0,0,0
419,990,8093,-198,0,0,0,0,0
420,994,8086,-213,0,0,0,0,0
421,993,8098,-215,0,0,0,0,0
422,991,8085,-217,0,0,0,0,0
423,994,8091,-207,0,0,0,0,0
424,1001,8089,-245,0,0,0,0,0
425,989,8089,-218,0,0,0,0,0
426,994,8082,-204,0,0,0,0,0
427,996,8086,-236,0,0,0,0,0
428,1000,8088,-224,0,0,0,0,0
429,996,8094,-202,0,0,0,0,0
430,1002,8097,-204,0,0,0,0,0
431,988,8082,-210,0,0,0,0,0
432,1001,8093,-233,0,0,0,0,0
433,996,8103,-220,0,0,0,0,0
434,997,8095,-215,0,0,0,0,0
435,992,8103,-203,0,0,0,0,0
436,1000,8096,-220,0,0,0,0,0
437,989,8087,-234,0,0,0,0,0
438,997,8091,-238,0,0,0,0,0
439,990,8098,-207,0,0,0,0,0
440,1000,8086,-201,0,0,0,0,0
441,996,8085,-239,0,0,0,0,0
442,1005,8093,-230,0,0,0,0,0
443,993,8090,-210,0,0,0,0,0
444,1007,8090,-217,0,0,0,0,0
445,993,8098,-211,0,0,0,0,0
446,1000,8097,-198,0,0,0,0,0
447,999,8096,-206,0,0,0,0,0
448,997,8088,-242,0,0,0,0,0
449,998,8087,-215,0,0,0,0,0
450,1001,8083,-216,0,0,0,0,0
451,995,8082,-209,0,0,0,0,0
452,985,8092,-214,0,0,0,0,0
453,997,8096,-211,0,0,0,0,0
454,999,8098,-218,0,0,0,0,0
455,1004,8096,-224,0,0,0,0,0
456,988,8091,-212,0,0,0,0,0
457,992,8088,-217,0,0,0,0,0
458,996,8085,-216,0,0,0,0,0
459,995,8092,-226,0,0,0,0,0
460,991,8083,-212,0,0,0,0,0
461,999,8092,-222,0,0,0,0,0
462,996,8087,-214,0,0,0,0,0
463,1003,8092,-206,0,0,0,0,0
464,994,8085,-218,0,0,0,0,0
465,993,8088,-210,0,0,0,0,0
466,1002,8100,-202,0,0,0,0,0
467,981,8083,-228,0,0,0,0,0
468,1000,8082,-234,0,0,0,0,0
469,994,8090,-208,0,0,0,0,0
470,993,8080,-200,0,0,0,0,0
471,987,8092,-222,0,0,0,0,0
472,1002,8087,-230,0,0,0,0,0
473,999,8088,-214,0,0,0,0,0
474,996,8083,-215,0,0,0,0,0
475,999,8092,-224,0,0,0,0,0
476,1006,8091,-219,0,0,0,0,0
477,992,8088,-216,0,0,0,0,0
478,989,8088,-225,0,0,0,0,0
479,997,8090,-206,0,0,0,0,0
480,987,8084,-226,0,0,0,0,0
481,1000,8090,-218,0,0,0,0,0
482,1005,8096,-224,0,0,0,0,0
483,1002,8084,-210,0,0,0,0,0
484,992,8100,-218,0,0,0,0,0
485,998,8090,-222,0,0,0,0,0
486,1000,8081,-208,0,0,0,0,0
487,991,8092,-208,0,0,0,0,0
488,990,8085,-216,0,0,0,0,0
489,999,8080,-224,0,0,0,0,0
490,1003,8092,-220,0,0,0,0,0
491,996,8088,-217,0,0,0,0,0
492,988,8084,-224,0,0,0,0,0
493,992,8091,-218,0,0,0,0,0
494,993,8097,-222,0,0,0,0,0
495,991,8091,-208,0,0,0,0,0
496,1004,8094,-225,0,0,0,0,0
497,996,8090,-230,0,0,0,0,0
498,990,8082,-213,0,0,0,0,0
499,992,8097,-212,0,0,0,0,0
500,999,8086,-220,0,0,0,0,0
501,994,8084,-230,0,0,0,0,0
502,997,8100,-212,0,0,0,0,0
503,993,8092,-206,0,0,0,0,0
504,989,8089,-222,0,0,0,0,0
505,991,8092,-224,0,0,0,0,0
506,997,8094,-212,0,0,0,0,0
507,987,8089,-214,0,0,0,0,0
508,996,8092,-219,0,0,0,0,0
509,994,8094,-215,0,0,0,0,0
510,983,8087,-212,0,0,0,0,0
511,994,8095,-214,0,0,0,0,0
512,999,8094,-216,0,0,0,0,0
513,1001,8088,-228,0,0,0,0,0
514,990,8089,-211,0,0,0,0,0
515,990,8082,-215,0,0,0,0,0
516,1005,8086,-218,0,0,0,0,0
517,988,8093,-217,0,0,0,0,0
518,991,8085,-211,0,0,0,0,0
519,1006,8092,-218,0,0,0,0,0
520,993,8098,-206,0,0,0,0,0
521,988,8084,-222,0,0,0,0,0
522,998,8084,-220,0,0,0,0,0
523,1004,8100,-214,0,0,0,0,0
524,996,8094,-222,0,0,0,0,0
525,993,8090,-223,0,0,0,0,0
526,986,8088,-221,0,0,0,0,0
527,996,8092,-205,0,0,0,0,0
528,999,8091,-215,0,0,0,0,0
529,1003,8096,-219,0,0,0,0,0
530,996,8090,-212,0,0,0,0,0
531,997,8092,-218,0,0,0,0,0
532,995,8084,-223,0,0,0,0,0
533,986,8073,-236,0,0,0,0,0
534,994,8102,-212,0,0,0,0,0
535,1014,8108,-176,0,0,0,0,0
536,1011,8069,-191,0,0,0,0,0
537,991,8097,-265,0,0,0,0,0
538,994,8113,-225,0,0,0,0,0
539,996,8074,-187,0,0,0,0,0
540,1012,8073,-187,0,0,0,0,0
541,982,8098,-248,0,0,0,0,0
542,986,8094,-250,0,0,0,0,0
543,997,8078,-207,0,0,0,0,0
544,1004,8089,-196,0,0,0,0,0
545,1006,8084,-216,0,0,0,0,0
546,997,8092,-247,0,0,0,0,0
547,998,8081,-226,0,0,0,0,0
548,992,8092,-204,0,0,0,0,0
549,999,8094,-200,0,0,0,0,0
550,1006,8077,-220,0,0,0,0,0
551,998,8090,-230,0,0,0,0,0
552,979,8081,-215,0,0,0,0,0
553,999,8092,-202,0,0,0,0,0
554,996,8096,-216,0,0,0,0,0
555,996,8095,-229,0,0,0,0,0
556,994,8092,-212,0,0,0,0,0
557,996,8098,-218,0,0,0,0,0
558,997,8088,-207,0,0,0,0,0
559,1002,8089,-228,0,0,0,0,0
560,999,8092,-225,0,0,0,0,0
561,999,8090,-205,0,0,0,0,0
562,985,8086,-210,0,0,0,0,0
563,1028,8106,-232,0,0,0,0,0
564,994,8087,-239,0,0,0,0,0
565,963,8052,-224,0,0,0,0,0
566,990,8128,-194,0,0,0,0,0
567,1028,8119,-244,0,0,0,0,0
568,1050,8067,-201,0,0,0,0,0
569,956,8060,-226,0,0,0,0,0
570,970,8118,-241,0,0,0,0,0
571,1025,8072,-228,0,0,0,0,0
572,1029,8080,-244,0,0,0,0,0
573,952,8113,-256,0,0,0,0,0
574,983,8073,-200,0,0,0,0,0
575,1008,8108,-234,0,0,0,0,0
576,978,8078,-236,0,0,0,0,0
577,978,8082,-204,0,0,0,0,0
578,986,8096,-224,0,0,0,0,0
579,1020,8104,-211,0,0,0,0,0
580,981,8086,-212,0,0,0,0,0
581,997,8098,-212,0,0,0,0,0
582,1002,8092,-230,0,0,0,0,0
583,987,8091,-233,0,0,0,0,0
584,996,8080,-203,0,0,0,0,0
585,993,8093,-194,0,0,0,0,0
586,994,8086,-227,0,0,0,0,0
587,988,8102,-228,0,0,0,0,0
588,1000,8086,-221,0,0,0,0,0
589,992,8091,-214,0,0,0,0,0
590,987,8082,-201,0,0,0,0,0
591,996,8097,-232,0,0,0,0,0
592,996,8084,-227,0,0,0,0,0
593,992,8096,-215,0,0,0,0,0
594,996,8072,-221,0,0,0,0,0
595,994,8090,-233,0,0,0,0,0
596,993,8090,-206,0,0,0,0,0
597,982,8086,-200,0,0,0,0,0
598,1007,8085,-236,0,0,0,0,0
599,998,8092,-218,0,0,0,0,0
600,998,8091,-212,0,0,0,0,0
601,999,8096,-212,0,0,0,0,0
602,996,8068,-215,0,0,0,0,0
603,1001,8103,-227,0,0,0,0,0
604,978,8085,-242,0,0,0,0,0
605,1009,8094,-204,0,0,0,0,0
606,1006,8088,-225,0,0,0,0,0
607,975,8084,-214,0,0,0,0,0
608,980,8083,-220,0,0,0,0,0
609,1011,8096,-209,0,0,0,0,0
610,1015,8093,-220,0,0,0,0,0
611,972,8078,-214,0,0,0,0,0
612,998,8097,-210,0,0,0,0,0
613,1005,8092,-229,0,0,0,0,0
614,1002,8089,-225,0,0,0,0,0
615,980,8077,-206,0,0,0,0,0
616,1007,8089,-228,0,0,0,0,0
617,998,8080,-209,0,0,0,0,0
618,982,8090,-204,2,0,0,0,0
619,990,8100,-226,0,0,0,0,0
620,1010,8096,-234,0,0,0,0,0
621,983,8081,-206,0,0,0,0,0
622,983,8090,-210,412,0,0,0,0
623,1003,8092,-217,0,0,0,0,0
624,1005,8078,-238,0,0,0,0,0
625,988,8093,-204,0,0,0,0,0
626,986,8084,-210,0,0,0,0,0
627,1003,8090,-222,0,0,0,0,0
628,1000,8092,-226,0,0,0,0,0
629,1000,8095,-223,3,0,0,0,0
630,992,8092,-226,0,0,0,0,0
631,990,8082,-228,0,0,0,0,0
632,958,8087,-295,0,0,0,0,0
633,970,8085,-210,0,0,0,0,0
634,1057,8098,1166,0,0,0,0,0
635,848,7764,1418,0,0,0,0,0
636,1469,8692,1014,0,0,0,0,0
637,1070,8403,148,995,0,0,0,0
638,761,7699,137,0,0,0,0,0
639,1172,7857,-13,172,0,0,0,0
640,976,8322,226,0,0,0,0,0
641,859,8288,140,0,0,0,0,0
642,1169,8132,423,0,0,0,0,0
643,1004,7748,144,0,0,0,0,0
644,939,8102,274,0,0,0,0,0
645,978,8234,313,0,0,0,0,0
646,1076,8054,367,0,0,0,0,0
647,1042,8106,365,0,0,0,0,0
648,1037,7992,192,0,0,0,0,0
649,986,8069,276,0,0,0,0,0
650,950,7842,478,0,0,0,0,0
651,947,8059,575,0,0,0,0,0
652,1355,8251,1408,967,0,0,0,0
653,584,8144,564,0,0,0,0,0
654,1110,7909,1090,0,0,0,0,0
655,1224,8017,1355,0,0,0,0,0
656,727,8118,203,1134,0,0,0,0
657,850,7883,1234,0,0,0,0,0
658,1224,8281,1336,212,0,0,0,0
659,841,8116,1127,0,0,0,0,0
660,940,7977,1161,777,0,0,0,0
661,978,8179,634,0,0,0,0,0
662,953,8073,1018,0,0,0,0,0
663,1029,7902,1097,0,0,0,0,0
664,865,8145,332,0,0,0,0,0
665,594,8092,1663,0,0,0,0,0
666,624,9021,1454,0,0,0,0,0
667,1364,7555,284,0,0,0,0,0
668,1210,7586,484,0,0,0,0,0
669,690,8051,1331,0,0,0,0,0
670,1160,8031,684,0,0,0,0,0
671,1036,8216,-343,0,0,0,0,0
672,1209,7606,305,0,0,0,0,0
673,827,8149,619,0,0,0,0,0
674,961,7753,186,0,0,0,0,0
675,1010,7650,639,0,0,0,0,0
676,1042,8349,1054,0,0,0,0,0
677,906,8572,-70,0,0,0,0,0
678,722,7538,216,0,0,0,0,0
679,1103,8658,760,542,0,0,0,0
680,158,6862,1240,0,0,0,0,0
681,1634,8050,247,569,0,0,0,0
682,1155,8644,858,0,0,0,0,0
683,1596,8434,945,456,0,0,0,0
684,1205,7510,-938,0,0,0,0,0
685,1084,8011,443,0,0,0,0,0
686,1007,7669,94,0,0,0,0,0
687,1048,8220,28,0,0,0,0,0
688,1187,7654,31,0,0,0,0,0
689,1130,7866,-601,0,0,0,0,0
690,1174,8458,1052,0,0,0,0,0
691,874,8564,407,0,0,0,0,0
692,820,7960,710,0,0,0,0,0
693,1380,8688,917,0,0,0,0,0
694,1209,8054,-590,0,0,0,0,0
695,1087,8004,1760,0,0,0,0,0
696,1464,7890,-240,0,0,0,0,0
697,1486,7728,-527,0,0,0,0,0
698,1538,8744,298,1002,0,0,0,0
699,1160,7951,424,0,0,0,0,0
700,509,8360,654,0,0,0,0,0
701,1168,8365,-179,0,0,0,0,0
702,1055,7838,-701,1046,0,0,0,0
703,597,7710,1178,0,0,0,0,0
704,1435,8504,-20,809,0,0,0,0
705,1566,7913,-413,0,0,0,0,0
706,226,9131,938,823,0,0,0,0
707,942,8456,398,0,0,0,0,0
708,1559,8406,300,0,0,0,0,0
709,1040,7658,580,0,0,0,0,0
710,1013,7503,426,0,0,0,0,0
711,1296,8029,317,0,0,0,0,0
712,1216,7916,-624,0,0,0,0,0
713,1336,9226,2108,0,0,0,0,0
714,1299,8499,-187,0,0,0,0,0
715,843,7532,-479,916,0,0,0,0
716,1545,7544,-227,0,0,0,0,0
717,1976,7308,-707,939,0,0,0,0
718,801,7709,-945,185,0,0,0,0
719,1039,8885,1781,0,0,0,0,0
720,1436,8656,-437,0,0,0,0,0
721,1456,8244,-866,0,0,0,0,0
722,1297,9533,922,0,0,0,0,0
723,1089,8592,483,0,0,0,0,0
724,-17,7477,-515,0,0,0,0,0
725,412,8523,-384,945,0,0,0,0
726,784,7505,-134,0,0,0,0,0
727,2173,8082,931,0,0,0,0,0
728,2980,7856,76,0,0,0,0,0
729,2448,7408,-204,0,0,0,0,0
730,2161,8229,-824,0,0,0,0,0
731,2766,8228,626,0,0,0,0,0
732,2609,8018,373,0,0,0,0,0
733,2212,7616,392,0,0,0,0,0
734,3078,8230,141,0,0,0,0,0
735,3235,8601,-50,0,0,0,0,0
736,3133,8012,1303,0,0,0,0,0
737,2554,8183,352,0,0,0,0,0
738,2866,7591,-94,0,0,0,0,0
739,2496,8145,182,0,0,0,0,0
740,3215,7549,657,1210,0,0,0,0
741,3282,7994,242,0,0,0,0,0
742,3038,7914,315,0,0,0,0,0
743,2359,8096,801,0,0,0,0,0
744,2931,8282,-131,0,0,0,0,0
745,2584,7411,-70,0,0,0,0,0
746,2542,8371,688,0,0,0,0,0
747,2999,7741,386,0,0,0,0,0
748,2581,7196,414,0,0,0,0,0
749,3055,7293,-141,0,0,0,0,0
750,3548,8615,379,0,0,0,0,0
751,3230,7894,-136,0,0,0,0,0
752,2280,7897,192,0,0,0,0,0
753,2761,7547,513,0,0,0,0,0
754,3271,8397,-368,0,0,0,0,0
755,2738,7756,769,0,0,0,0,0
756,3166,7769,623,0,0,0,0,0
757,2366,7771,478,0,0,0,0,0
758,2869,7718,-634,0,0,0,0,0
759,3524,8137,240,0,0,0,0,0
760,2287,7851,124,0,0,0,0,0
761,2594,7666,-10,0,0,0,0,0
762,2302,8172,-261,603,0,0,0,0
763,2299,7746,-82,0,0,0,0,0
764,2771,8130,32,1021,0,0,0,0
765,2721,8310,64,0,0,0,0,0
766,1925,7787,535,595,0,0,0,0
767,2930,7906,471,0,0,0,0,0
768,2884,7818,-571,556,0,0,0,0
769,1802,8376,2,0,0,0,0,0
770,1865,7817,-1034,0,0,0,0,0
771,1740,8255,-32,0,0,0,0,0
772,1917,8422,411,0,0,0,0,0
773,1054,7751,580,0,0,0,0,0
774,1111,8498,-225,0,0,0,0,0
775,1100,8043,-197,0,0,0,0,0
776,1048,7914,-31,0,0,0,0,0
777,1580,7666,-186,0,0,0,0,0
778,1670,9078,772,0,0,0,0,0
779,2117,7590,110,0,0,0,0,0
780,963,7790,489,0,0,0,0,0
781,1461,7796,195,966,0,0,0,0
782,1428,7304,669,0,0,0,0,0
783,1225,8524,1037,957,0,0,0,0
784,1295,8676,1261,0,0,0,0,0
785,1336,7772,357,1120,0,0,0,0
786,1426,7699,754,0,0,0,0,0
787,1418,7766,-142,0,0,0,0,0
788,1401,8431,341,0,0,0,0,0
789,1613,8447,-55,0,0,0,0,0
790,1194,7235,-48,0,0,0,0,0
791,1292,7843,875,0,0,0,0,0
792,1411,8700,322,0,0,0,0,0
793,1798,7536,-193,0,0,0,0,0
794,1413,8091,637,0,0,0,0,0
795,1412,7944,558,0,0,0,0,0
796,1177,7708,140,0,0,0,0,0
797,1578,7626,-176,0,0,0,0,0
798,1410,8992,1794,0,0,0,0,0
799,1855,7498,1148,0,0,0,0,0
800,1078,8898,568,0,0,0,0,0
801,1014,7565,310,0,0,0,0,0
802,1206,7832,935,0,0,0,0,0
803,1034,8256,718,0,0,0,0,0
804,987,7596,774,0,0,0,0,0
805,1147,8620,906,1115,0,0,0,0
806,1563,7803,464,0,0,0,0,0
807,1128,7782,316,0,0,0,0,0
808,1444,8627,707,0,0,0,0,0
809,1681,7610,340,0,0,0,0,0
810,938,9082,516,0,0,0,0,0
811,1354,7810,1138,0,0,0,0,0
812,460,8021,595,0,0,0,0,0
813,1519,8359,946,0,0,0,0,0
814,914,8046,196,0,0,0,0,0
815,1193,8292,1097,0,0,0,0,0
816,1302,7726,791,0,0,0,0,0
817,596,7862,-138,0,0,0,0,0
818,840,7818,696,0,0,0,0,0
819,1209,8652,870,0,0,0,0,0
820,1471,8028,650,0,0,0,0,0
821,883,8151,676,0,0,0,0,0
822,1440,8312,408,0,0,0,0,0
823,1151,8444,249,0,0,0,0,0
824,929,7934,16,0,0,0,0,0
825,1203,7705,71,0,0,0,0,0
826,974,8209,460,939,0,0,0,0
827,1263,7725,517,0,0,0,0,0
828,845,8253,514,940,0,0,0,0
829,1076,8136,852,0,0,0,0,0
830,1289,8594,272,944,0,0,0,0
831,1171,8356,977,0,0,0,0,0
832,1120,8163,782,1128,0,0,0,0
833,866,8288,37,0,0,0,0,0
834,1307,8108,-363,0,0,0,0,0
835,1077,7449,299,0,0,0,0,0
836,800,8155,822,1127,0,0,0,0
837,988,7626,-95,0,0,0,0,0
838,1186,8632,934,1131,0,0,0,0
839,704,7322,356,0,0,0,0,0
840,1323,8130,416,962,0,0,0,0
841,1370,8161,184,0,0,0,0,0
842,1194,8276,915,1130,0,0,0,0
843,869,9156,190,0,0,0,0,0
844,671,8133,507,972,0,0,0,0
845,554,7533,-360,0,0,0,0,0
846,19,7906,-62,1129,0,0,0,0
847,1156,9115,-192,0,0,0,0,0
848,355,7983,438,0,0,0,0,0
849,73,7607,1207,0,0,0,0,0
850,266,8290,807,0,0,0,0,0
851,606,8720,377,0,0,0,0,0
852,371,7876,332,0,0,0,0,0
853,266,8433,166,0,0,0,0,0
854,220,7498,292,0,0,0,0,0
855,-4,8468,1338,0,0,0,0,0
856,395,8190,376,1101,0,0,0,0
857,-27,7331,511,0,0,0,0,0
858,264,8136,154,0,0,0,0,0
859,186,8264,957,0,0,0,0,0
860,-434,8329,454,0,0,0,0,0
861,145,8494,905,0,0,0,0,0
862,138,8018,538,0,0,0,0,0
863,312,7682,466,0,0,0,0,0
864,193,8448,85,0,0,0,0,0
865,-344,8058,695,0,0,0,0,0
866,437,8436,415,0,0,0,0,0
867,135,8609,-5,0,0,0,0,0
868,685,8137,-267,0,0,0,0,0
869,-428,8676,83,0,0,0,0,0
870,552,8088,-1060,0,0,0,0,0
871,144,8281,-732,0,0,0,0,0
872,194,7226,-572,0,0,0,0,0
873,132,8611,-1024,0,0,0,0,0
874,48,8365,-685,0,0,0,0,0
875,-79,8177,-609,0,0,0,0,0
876,291,8009,-656,0,0,0,0,0
877,482,7961,-1075,0,0,0,0,0
878,429,8759,-576,0,0,0,0,0
879,368,8348,-930,0,0,0,0,0
880,58,7486,-206,0,0,0,0,0
881,449,8540,-580,0,0,0,0,0
882,772,7569,-1572,0,0,0,0,0
883,764,7996,-732,0,0,0,0,0
884,902,8166,-523,0,0,0,0,0
885,287,8174,-482,0,0,0,0,0
886,341,8244,-974,0,0,0,0,0
887,459,7686,-992,0,0,0,0,0
888,566,8272,-153,0,0,0,0,0
889,508,7856,-546,0,0,0,0,0
890,713,8131,-649,0,0,0,0,0
891,834,7892,-244,0,0,0,0,0
892,580,8350,-226,0,0,0,0,0
893,658,8068,-461,0,0,0,0,0
894,484,7832,-62,0,0,0,0,0
895,182,7987,-1856,0,0,0,0,0
896,732,8190,-1744,0,0,0,0,0
897,393,8031,-650,0,0,0,0,0
898,390,7156,-1971,793,0,0,0,0
899,1577,8583,-986,0,0,0,0,0
900,517,8084,-665,791,0,0,0,0
901,267,7844,-2417,0,0,0,0,0
902,1592,7808,769,0,0,0,0,0
903,279,7450,-1884,0,0,0,0,0
904,1720,8641,651,251,0,0,0,0
905,549,7912,-705,0,0,0,0,0
906,641,7845,-48,0,0,0,0,0
907,1286,8244,-115,0,0,0,0,0
908,830,8256,116,0,0,0,0,0
909,598,7993,135,0,0,0,0,0
910,1080,7905,1049,1016,0,0,0,0
911,1188,8378,806,0,0,0,0,0
912,666,7959,170,937,0,0,0,0
913,982,7951,567,0,0,0,0,0
914,698,8236,492,782,0,0,0,0
915,884,8160,630,0,0,0,0,0
916,745,8015,328,702,0,0,0,0
917,810,8094,515,0,0,0,0,0
918,807,8138,326,630,0,0,0,0
919,781,8126,288,0,0,0,0,0
920,810,8076,634,0,0,0,0,0
921,822,8110,840,0,0,0,0,0
922,806,8146,771,0,0,0,0,0
923,847,8083,514,0,0,0,0,0
924,824,8062,373,0,0,0,0,0
925,858,8118,413,0,0,0,0,0
926,864,8143,637,0,0,0,0,0
927,823,8074,584,0,0,0,0,0
928,808,8094,462,0,0,0,0,0
929,862,8097,499,0,0,0,0,0
930,845,8124,533,0,0,0,0,0
931,823,8089,580,0,0,0,0,0
932,817,8071,506,0,0,0,0,0
933,843,8132,467,0,0,0,0,0
934,850,8114,510,0,0,0,0,0
935,822,8069,566,0,0,0,0,0
936,836,8124,505,0,0,0,0,0
937,844,8111,495,0,0,0,0,0
938,842,8050,532,0,0,0,0,0
939,821,8127,493,0,0,0,0,0
940,826,8102,524,0,0,0,0,0
941,848,8075,524,0,0,0,0,0
942,808,8132,473,0,0,0,0,0
943,784,8133,502,0,0,0,0,0
944,836,8038,502,0,0,0,0,0
945,852,8110,427,0,0,0,0,0
946,834,8133,486,0,0,0,0,0
947,819,8066,488,0,0,0,0,0
948,863,8117,615,0,0,0,0,0
949,814,8160,523,0,0,0,0,0
950,776,8050,510,0,0,0,0,0
951,861,8140,504,0,0,0,0,0
952,876,8130,488,0,0,0,0,0
953,827,8053,592,0,0,0,0,0
954,800,8088,493,0,0,0,0,0
955,860,8146,498,0,0,0,0,0
956,772,8053,434,0,0,0,0,0
957,848,8154,480,0,0,0,0,0
958,825,8070,506,0,0,0,0,0
959,836,8032,548,0,0,0,0,0
960,819,8213,440,0,0,0,0,0
961,830,8197,400,0,0,0,0,0
962,858,8047,510,0,0,0,0,0
963,803,8027,528,793,0,0,0,0
964,833,8183,596,0,0,0,0,0
965,842,8136,582,790,0,0,0,0
966,833,8060,489,0,0,0,0,0
967,806,8094,475,160,0,0,0,0
968,842,8122,564,0,0,0,0,0
969,839,8081,499,131,0,0,0,0
970,825,8085,508,0,0,0,0,0
971,830,8126,495,95,0,0,0,0
972,846,8089,522,0,0,0,0,0
973,823,8100,497,77,0,0,0,0
974,820,8088,512,0,0,0,0,0
975,844,8116,504,64,0,0,0,0
976,826,8072,504,0,0,0,0,0
977,828,8101,745,62,0,0,0,0
978,824,8074,451,0,0,0,0,0
979,850,8097,536,319,0,0,0,0
980,844,8099,504,0,0,0,0,0
981,843,8093,529,791,0,0,0,0
982,841,8090,521,0,0,0,0,0
983,834,8109,524,1512,0,0,0,0
984,830,8098,521,0,0,0,0,0
985,836,8106,525,1712,0,0,0,0
986,747,8098,480,0,0,0,0,0
987,834,8085,401,1678,0,0,0,0
988,869,8066,568,0,0,0,0,0
989,730,8110,1019,1390,0,0,0,0
990,752,8248,1148,0,0,0,0,0
991,924,8144,1681,-946,0,0,0,0
992,648,8257,521,0,0,0,0,0
993,912,8039,570,0,0,0,0,0
994,800,8062,828,0,0,0,0,0
995,562,8244,534,0,0,0,0,0
996,862,8044,797,0,0,0,0,0
997,861,8057,661,0,0,0,0,0
998,804,8201,672,0,0,0,0,0
999,815,8095,634,0,0,0,0,0
1000,820,8123,680,0,0,0,0,0
1001,863,8068,581,0,0,0,0,0
1002,776,8081,851,0,0,0,0,0
1003,940,8087,1354,0,0,0,0,0
1004,654,8268,1309,0,0,0,0,0
1005,861,7944,762,0,0,0,0,0
1006,1130,8038,1120,0,0,0,0,0
1007,549,8391,1095,0,0,0,0,0
1008,665,8174,927,0,0,0,0,0
1009,946,7999,863,0,0,0,0,0
1010,878,7957,1109,0,0,0,0,0
1011,561,8310,1146,0,0,0,0,0
1012,854,8017,1318,0,0,0,0,0
1013,859,8220,910,1106,0,0,0,0
1014,888,8024,1182,0,0,0,0,0
1015,579,8183,1099,1113,0,0,0,0
1016,776,8110,1258,0,0,0,0,0
1017,816,8150,931,1124,0,0,0,0
1018,850,8118,1259,0,0,0,0,0
1019,575,8094,1408,1133,0,0,0,0
1020,620,8099,1096,0,0,0,0,0
1021,764,8156,1314,0,0,0,0,0
1022,576,8054,729,0,0,0,0,0
1023,564,8323,1478,0,0,0,0,0
1024,586,8244,1140,0,0,0,0,0
1025,320,8157,1186,0,0,0,0,0
1026,532,8432,1685,0,0,0,0,0
1027,251,8111,894,0,0,0,0,0
1028,298,8182,1486,0,0,0,0,0
1029,376,7976,1226,0,0,0,0,0
1030,518,8090,1479,0,0,0,0,0
1031,601,8085,406,0,0,0,0,0
1032,684,8556,1166,0,0,0,0,0
1033,634,8205,926,0,0,0,0,0
1034,443,8046,1243,0,0,0,0,0
1035,360,8346,1651,0,0,0,0,0
1036,642,8278,663,0,0,0,0,0
1037,558,8130,773,0,0,0,0,0
1038,280,8257,1473,0,0,0,0,0
1039,390,7947,224,0,0,0,0,0
1040,792,8413,1010,1240,0,0,0,0
1041,657,8550,894,0,0,0,0,0
1042,556,7720,408,1226,0,0,0,0
1043,674,7898,1600,0,0,0,0,0
1044,390,7844,932,790,0,0,0,0
1045,924,8379,1465,0,0,0,0,0
1046,1258,7962,1836,1228,0,0,0,0
1047,1036,7803,1270,0,0,0,0,0
1048,980,7950,1710,430,0,0,0,0
1049,1070,8499,2052,0,0,0,0,0
1050,1609,8274,584,453,0,0,0,0
1051,841,8197,1558,0,0,0,0,0
1052,896,8412,1176,791,0,0,0,0
1053,1138,7544,855,0,0,0,0,0
1054,132,8384,476,521,0,0,0,0
1055,1291,8199,1944,0,0,0,0,0
1056,1486,8498,2007,550,0,0,0,0
1057,1165,7777,804,0,0,0,0,0
1058,604,7190,1548,789,0,0,0,0
1059,894,8856,2198,0,0,0,0,0
1060,1578,8202,663,0,0,0,0,0
1061,1410,8580,1528,0,0,0,0,0
1062,908,7990,484,0,0,0,0,0
1063,645,7754,726,0,0,0,0,0
1064,868,8282,897,0,0,0,0,0
1065,817,8016,777,0,0,0,0,0
1066,346,8275,1723,0,0,0,0,0
1067,162,7530,1284,0,0,0,0,0
1068,1064,8194,1207,0,0,0,0,0
1069,1019,7874,800,0,0,0,0,0
1070,422,8398,180,0,0,0,0,0
1071,838,7939,1439,1197,0,0,0,0
1072,1048,8448,534,0,0,0,0,0
1073,931,8231,696,0,0,0,0,0
1074,446,8207,-101,0,0,0,0,0
1075,1307,8584,392,0,0,0,0,0
1076,474,7699,190,0,0,0,0,0
1077,313,8124,1728,1101,0,0,0,0
1078,439,8127,319,0,0,0,0,0
1079,56,8793,92,0,0,0,0,0
1080,800,7980,91,0,0,0,0,0
1081,507,8520,283,0,0,0,0,0
1082,-74,7642,658,0,0,0,0,0
1083,-31,8108,746,0,0,0,0,0
1084,270,8236,10,0,0,0,0,0
1085,265,8205,517,0,0,0,0,0
1086,888,7510,-295,0,0,0,0,0
1087,629,8586,239,1088,0,0,0,0
1088,613,8240,114,0,0,0,0,0
1089,849,9144,1070,850,0,0,0,0
1090,-53,7844,540,0,0,0,0,0
1091,615,8352,66,854,0,0,0,0
1092,642,8213,741,0,0,0,0,0
1093,979,8066,-279,429,0,0,0,0
1094,266,8039,138,0,0,0,0,0
1095,617,8878,574,0,0,0,0,0
1096,560,7735,458,0,0,0,0,0
1097,-93,7814,-404,0,0,0,0,0
1098,270,8098,-416,0,0,0,0,0
1099,266,7772,537,0,0,0,0,0
1100,45,8304,-50,0,0,0,0,0
1101,323,7947,753,0,0,0,0,0
1102,227,8178,708,0,0,0,0,0
1103,865,8443,-492,0,0,0,0,0
1104,817,8884,-179,0,0,0,0,0
1105,156,7669,-28,0,0,0,0,0
1106,268,8417,1404,0,0,0,0,0
1107,714,8772,788,0,0,0,0,0
1108,565,8516,-1166,902,0,0,0,0
1109,601,8097,-304,0,0,0,0,0
1110,103,8075,-1094,0,0,0,0,0
1111,806,8281,-200,1008,0,0,0,0
1112,183,7964,-713,0,0,0,0,0
1113,127,7641,-141,968,0,0,0,0
1114,226,8369,138,0,0,0,0,0
1115,248,8550,-170,359,0,0,0,0
1116,567,8137,-722,0,0,0,0,0
1117,224,7790,547,444,0,0,0,0
1118,-679,8321,546,0,0,0,0,0
1119,58,7520,445,0,0,0,0,0
1120,-82,8393,-383,0,0,0,0,0
1121,-322,8042,-159,0,0,0,0,0
1122,41,8042,-272,0,0,0,0,0
1123,-234,7426,-382,0,0,0,0,0
1124,-38,9144,376,0,0,0,0,0
1125,-246,7594,-49,0,0,0,0,0
1126,23,8895,1274,0,0,0,0,0
1127,126,7872,1116,0,0,0,0,0
1128,170,8167,62,0,0,0,0,0
1129,110,7732,-602,0,0,0,0,0
1130,-538,8062,252,1022,0,0,0,0
1131,88,8321,477,0,0,0,0,0
1132,-62,8510,-20,0,0,0,0,0
1133,-16,7988,-94,0,0,0,0,0
1134,-582,7787,371,1049,0,0,0,0
1135,373,8689,682,0,0,0,0,0
1136,93,8149,-192,1065,0,0,0,0
1137,385,8603,-238,0,0,0,0,0
1138,507,8458,666,0,0,0,0,0
1139,424,7370,-866,0,0,0,0,0
1140,72,8320,-1089,0,0,0,0,0
1141,903,8266,659,0,0,0,0,0
1142,118,7990,-1486,0,0,0,0,0
1143,981,8476,-512,0,0,0,0,0
1144,826,8070,-540,0,0,0,0,0
1145,703,8426,-1881,0,0,0,0,0
1146,597,7726,-756,0,0,0,0,0
1147,976,8142,490,0,0,0,0,0
1148,1097,8132,221,0,0,0,0,0
1149,1177,8234,-310,4,0,0,0,0
1150,1237,8290,-602,0,0,0,0,0
1151,891,8364,-546,0,0,0,0,0
1152,730,7735,-384,0,0,0,0,0
1153,777,8356,200,277,0,0,0,0
1154,1208,7861,-194,0,0,0,0,0
1155,479,7353,-1085,227,0,0,0,0
1156,280,8084,-770,0,0,0,0,0
1157,768,8608,-107,165,0,0,0,0
1158,1452,8155,-90,0,0,0,0,0
1159,920,8186,264,482,0,0,0,0
1160,1190,8273,-707,0,0,0,0,0
1161,1110,8332,-73,110,0,0,0,0
1162,1152,7970,-823,0,0,0,0,0
1163,696,7506,-782,90,0,0,0,0
1164,1122,7406,-1,0,0,0,0,0
1165,1502,8654,570,0,0,0,0,0
1166,1983,8731,522,0,0,0,0,0
1167,938,9192,-1414,0,0,0,0,0
1168,1440,8135,-338,0,0,0,0,0
1169,976,7416,-212,0,0,0,0,0
1170,1771,8336,-1006,0,0,0,0,0
1171,1482,7940,-381,0,0,0,0,0
1172,1848,8066,-586,0,0,0,0,0
1173,1529,8588,-630,0,0,0,0,0
1174,1701,8851,-294,0,0,0,0,0
1175,1759,8440,-457,0,0,0,0,0
1176,1856,7344,-719,0,0,0,0,0
1177,1411,7609,-619,0,0,0,0,0
1178,1388,8325,-336,0,0,0,0,0
1179,1517,8181,-576,0,0,0,0,0
1180,1403,7669,-708,0,0,0,0,0
1181,1299,7987,-211,0,0,0,0,0
1182,1642,8032,-1180,0,0,0,0,0
1183,563,7802,-622,0,0,0,0,0
1184,1570,7147,-227,0,0,0,0,0
1185,1516,8470,-806,0,0,0,0,0
1186,1192,7611,-1186,0,0,0,0,0
1187,1984,8078,-1298,0,0,0,0,0
1188,1107,8625,-374,0,0,0,0,0
1189,1689,7086,-1224,15,0,0,0,0
1190,1598,8150,-694,0,0,0,0,0
1191,1761,7984,-982,9,0,0,0,0
1192,1804,7986,-332,0,0,0,0,0
1193,1272,7547,-922,5,0,0,0,0
1194,1847,7639,-666,0,0,0,0,0
1195,1432,8072,-344,0,0,0,0,0
1196,1839,8355,-536,0,0,0,0,0
1197,1448,8209,-883,-883,0,0,0,0
1198,1235,8183,50,0,0,0,0,0
1199,1669,8292,-870,-872,0,0,0,0
1200,928,8168,-672,0,0,0,0,0
1201,1622,7995,-216,0,0,0,0,0
1202,1562,8513,-546,0,0,0,0,0
1203,1449,7687,-522,0,0,0,0,0
1204,997,7956,-631,0,0,0,0,0
1205,1679,7873,-1061,0,0,0,0,0
1206,1172,8910,-838,0,0,0,0,0
1207,957,7743,-409,0,0,0,0,0
1208,1120,7848,-684,0,0,0,0,0
1209,1142,8065,-731,0,0,0,0,0
1210,846,8055,-700,14,0,0,0,0
1211,1269,8068,-677,0,0,0,0,0
1212,1026,8298,-308,-919,0,0,0,0
1213,1066,7914,-622,0,0,0,0,0
1214,942,7888,-681,0,0,0,0,0
1215,1768,8400,-421,0,0,0,0,0
1216,986,8121,-1000,0,0,0,0,0
1217,1174,7789,-1529,0,0,0,0,0
1218,1160,8159,-1021,0,0,0,0,0
1219,842,8480,-254,0,0,0,0,0
1220,944,8189,-597,0,0,0,0,0
1221,1252,8159,-1271,0,0,0,0,0
1222,1048,8249,-786,0,0,0,0,0
1223,785,7880,-1240,0,0,0,0,0
1224,1060,7862,-690,0,0,0,0,0
1225,924,8142,-285,0,0,0,0,0
1226,728,8321,-1508,0,0,0,0,0
1227,1671,8396,-49,0,0,0,0,0
1228,583,8314,-428,0,0,0,0,0
1229,1055,8044,-572,791,0,0,0,0
1230,1319,7800,-550,0,0,0,0,0
1231,978,8319,-1381,19,0,0,0,0
1232,1025,7760,-527,0,0,0,0,0
1233,983,7845,-1642,19,0,0,0,0
1234,1362,8219,-600,0,0,0,0,0
1235,890,7688,-958,19,0,0,0,0
1236,1265,8484,-1351,0,0,0,0,0
1237,1659,8488,-9,19,0,0,0,0
1238,647,7489,-803,0,0,0,0,0
1239,1648,8770,-1212,20,0,0,0,0
1240,858,7866,498,0,0,0,0,0
1241,646,7561,-663,-949,0,0,0,0
1242,1352,8725,-1684,0,0,0,0,0
1243,1160,8514,-960,-950,0,0,0,0
1244,1084,7180,-26,0,0,0,0,0
1245,1090,8026,-531,-963,0,0,0,0
1246,1284,9125,-764,0,0,0,0,0
1247,1130,8153,-1760,968,0,0,0,0
1248,848,7438,-1798,0,0,0,0,0
1249,1228,7616,-349,0,0,0,0,0
1250,849,8786,-1182,0,0,0,0,0
1251,1101,8535,-1087,0,0,0,0,0
1252,1198,7746,-758,0,0,0,0,0
1253,971,7755,-797,1028,0,0,0,0
1254,812,8766,-358,0,0,0,0,0
1255,2062,7211,610,1071,0,0,0,0
1256,748,8532,64,0,0,0,0,0
1257,-542,8114,1702,0,0,0,0,0
1258,2491,8248,-127,0,0,0,0,0
1259,2487,8428,1862,0,0,0,0,0
1260,-652,8162,275,0,0,0,0,0
1261,310,8200,621,0,0,0,0,0
1262,2607,8320,1000,0,0,0,0,0
1263,687,7922,2235,1225,0,0,0,0
1264,-202,7780,575,0,0,0,0,0
1265,1992,8044,650,0,0,0,0,0
1266,1518,8104,1236,0,0,0,0,0
1267,-258,7977,453,0,0,0,0,0
1268,892,8038,728,0,0,0,0,0
1269,1479,8208,843,0,0,0,0,0
1270,515,8073,1345,0,0,0,0,0
1271,1051,7972,1126,0,0,0,0,0
1272,1390,7710,950,0,0,0,0,0
1273,1081,8138,1178,0,0,0,0,0
1274,1038,8422,1456,0,0,0,0,0
1275,866,7928,1138,0,0,0,0,0
1276,1306,7996,840,0,0,0,0,0
1277,1402,7896,1738,0,0,0,0,0
1278,1254,8649,1086,0,0,0,0,0
1279,1576,8067,1820,0,0,0,0,0
1280,1594,8098,944,0,0,0,0,0
1281,1358,8279,1144,0,0,0,0,0
1282,1796,7500,1143,789,0,0,0,0
1283,1676,8070,2282,573,0,0,0,0
1284,1829,7348,1009,0,0,0,0,0
1285,2146,7644,1066,622,0,0,0,0
1286,1858,9048,1249,0,0,0,0,0
1287,1830,7440,903,672,0,0,0,0
1288,1679,7890,238,0,0,0,0,0
1289,1800,8256,641,722,0,0,0,0
1290,1781,7896,591,0,0,0,0,0
1291,1344,7754,1271,802,0,0,0,0
1292,1762,7860,4,0,0,0,0,0
1293,1192,7458,697,850,0,0,0,0
1294,940,7464,482,0,0,0,0,0
1295,540,8477,563,895,0,0,0,0
1296,367,8631,1612,0,0,0,0,0
1297,-411,8364,309,1261,0,0,0,0
1298,-608,8514,40,0,0,0,0,0
1299,-360,7878,-599,0,0,0,0,0
1300,-461,8469,-160,0,0,0,0,0
1301,-652,8526,-347,0,0,0,0,0
1302,-1234,8204,150,1111,0,0,0,0
1303,-1219,8761,-1518,0,0,0,0,0
1304,-1430,7755,-2303,0,0,0,0,0
1305,-1604,8836,-1059,0,0,0,0,0
1306,-1929,8141,-1630,0,0,0,0,0
1307,-1460,9189,-334,0,0,0,0,0
1308,-1733,8121,-1736,0,0,0,0,0
1309,-1273,9177,262,0,0,0,0,0
1310,-1469,8064,-1379,0,0,0,0,0
1311,-1691,9196,-729,0,0,0,0,0
1312,-969,8706,-1354,0,0,0,0,0
1313,-1549,8188,-867,0,0,0,0,0
1314,-1027,8216,-1326,0,0,0,0,0
1315,-1636,8464,-1878,0,0,0,0,0
1316,-858,8635,-1322,0,0,0,0,0
1317,-1002,8420,-1320,0,0,0,0,0
1318,-1317,7750,-1386,0,0,0,0,0
1319,-1455,8298,-710,0,0,0,0,0
1320,-546,8236,-1524,0,0,0,0,0
1321,-982,8973,-1499,0,0,0,0,0
1322,-1054,8372,-914,0,0,0,0,0
1323,-1229,8037,762,0,0,0,0,0
1324,-628,8402,-1390,0,0,0,0,0
1325,-1246,7748,-296,0,0,0,0,0
1326,-2041,8751,-1351,64,0,0,0,0
1327,-1382,8306,-1396,0,0,0,0,0
1328,-33,8264,-1552,790,0,0,0,0
1329,-911,7651,-1242,0,0,0,0,0
1330,-595,8656,-1312,790,0,0,0,0
1331,-977,7435,-2822,0,0,0,0,0
1332,-284,9154,-1670,790,0,0,0,0
1333,-762,8327,552,0,0,0,0,0
1334,-688,9632,286,1514,0,0,0,0
1335,-914,6774,-2063,0,0,0,0,0
1336,-918,8233,-984,1723,0,0,0,0
1337,-466,8218,-820,0,0,0,0,0
1338,-342,8496,-794,1596,0,0,0,0
1339,-208,7550,-1278,0,0,0,0,0
1340,-440,8426,-1907,1079,0,0,0,0
1341,-582,7836,-411,0,0,0,0,0
1342,-306,8156,-2136,327,0,0,0,0
1343,605,9202,612,0,0,0,0,0
1344,4,8330,1190,0,0,0,0,0
1345,229,7685,-1918,0,0,0,0,0
1346,490,7714,-1803,0,0,0,0,0
1347,762,7965,-1054,0,0,0,0,0
1348,932,8048,6,0,0,0,0,0
1349,2449,8084,668,0,0,0,0,0
1350,2540,7514,607,0,0,0,0,0
1351,2273,8312,646,0,0,0,0,0
1352,2365,8172,277,0,0,0,0,0
1353,2535,7836,575,0,0,0,0,0
1354,2610,8348,1278,792,0,0,0,0
1355,1779,7954,1247,0,0,0,0,0
1356,2384,7195,234,1111,0,0,0,0
1357,2025,7629,466,0,0,0,0,0
1358,2474,7970,282,1127,0,0,0,0
1359,1907,7075,-58,0,0,0,0,0
1360,1996,8902,568,1148,0,0,0,0
1361,2346,7587,180,0,0,0,0,0
1362,2190,9385,952,1163,0,0,0,0
1363,1435,7373,268,0,0,0,0,0
1364,1839,7416,1137,1176,0,0,0,0
1365,1440,8610,1982,0,0,0,0,0
1366,1854,7596,12,1252,0,0,0,0
1367,594,8507,-308,0,0,0,0,0
1368,100,7970,118,0,0,0,0,0
1369,802,9005,1203,0,0,0,0,0
1370,888,8005,498,0,0,0,0,0
1371,607,8050,-635,0,0,0,0,0
1372,616,7291,673,0,0,0,0,0
1373,828,8536,1144,0,0,0,0,0
1374,-164,8082,300,1232,0,0,0,0
1375,2110,7438,1589,0,0,0,0,0
1376,1006,7882,-202,0,0,0,0,0
1377,945,7962,1524,0,0,0,0,0
1378,1086,8023,407,0,0,0,0,0
1379,935,7666,1443,0,0,0,0,0
1380,1916,9202,918,0,0,0,0,0
1381,673,7419,417,0,0,0,0,0
1382,967,7982,-400,0,0,0,0,0
1383,796,8505,791,0,0,0,0,0
1384,1708,8025,959,0,0,0,0,0
1385,1971,7698,665,0,0,0,0,0
1386,1944,7792,73,0,0,0,0,0
1387,2158,7865,743,0,0,0,0,0
1388,2066,7372,558,0,0,0,0,0
1389,2416,8059,970,0,0,0,0,0
1390,1738,7143,541,0,0,0,0,0
1391,2275,8487,-396,0,0,0,0,0
1392,2249,7818,194,0,0,0,0,0
1393,1902,8593,1471,0,0,0,0,0
1394,1796,7647,670,0,0,0,0,0
1395,1799,7455,-156,0,0,0,0,0
1396,2109,7810,387,557,0,0,0,0
1397,2204,7410,651,0,0,0,0,0
1398,1804,8574,542,0,0,0,0,0
1399,2479,7695,-726,0,0,0,0,0
1400,1784,8072,536,569,0,0,0,0
1401,1711,8461,-21,0,0,0,0,0
1402,2152,7542,457,0,0,0,0,0
1403,2048,7842,-67,0,0,0,0,0
1404,1798,7620,390,582,0,0,0,0
1405,1432,7935,630,0,0,0,0,0
1406,1526,8262,25,0,0,0,0,0
1407,1873,8385,718,0,0,0,0,0
1408,1573,7573,-152,537,0,0,0,0
1409,1956,7773,-375,0,0,0,0,0
1410,1573,8500,282,0,0,0,0,0
1411,1378,8624,156,0,0,0,0,0
1412,1318,7465,-100,0,0,0,0,0
1413,1683,8117,-1,0,0,0,0,0
1414,1112,7964,-139,0,0,0,0,0
1415,1870,7956,28,0,0,0,0,0
1416,1685,8038,-807,0,0,0,0,0
1417,1162,8515,555,0,0,0,0,0
1418,2245,7726,-259,0,0,0,0,0
1419,1620,7933,173,0,0,0,0,0
1420,1521,8715,238,508,0,0,0,0
1421,1364,6810,-517,0,0,0,0,0
1422,1123,9079,327,0,0,0,0,0
1423,1746,7496,-509,0,0,0,0,0
1424,1762,8056,62,493,0,0,0,0
1425,1340,7943,133,0,0,0,0,0
1426,1213,8250,-422,1273,0,0,0,0
1427,1297,7861,70,0,0,0,0,0
1428,977,8015,402,1106,0,0,0,0
1429,1776,7440,-112,0,0,0,0,0
1430,884,8835,314,0,0,0,0,0
1431,1276,7642,713,0,0,0,0,0
1432,1535,8568,-763,0,0,0,0,0
1433,1133,8108,169,0,0,0,0,0
1434,1720,8355,683,0,0,0,0,0
1435,1685,7864,-187,0,0,0,0,0
1436,896,7184,-599,0,0,0,0,0
1437,1475,8428,221,0,0,0,0,0
1438,1426,8517,1647,0,0,0,0,0
1439,1186,7864,-33,0,0,0,0,0
1440,2025,7790,-1123,1060,0,0,0,0
1441,1465,8393,724,0,0,0,0,0
1442,2244,8331,734,0,0,0,0,0
1443,1478,7481,305,0,0,0,0,0
1444,931,6740,3,0,0,0,0,0
1445,1258,9610,-104,0,0,0,0,0
1446,2625,8282,-468,1083,0,0,0,0
1447,1968,7876,-429,0,0,0,0,0
1448,2859,7920,1793,1090,0,0,0,0
1449,1076,8635,-506,0,0,0,0,0
1450,1530,8308,-211,0,0,0,0,0
1451,1851,7167,556,0,0,0,0,0
1452,2225,9936,734,0,0,0,0,0
1453,2829,8736,-421,0,0,0,0,0
1454,1887,9372,382,0,0,0,0,0
1455,1832,7414,658,0,0,0,0,0
1456,1015,6590,805,0,0,0,0,0
1457,1352,8329,-30,0,0,0,0,0
1458,1676,8400,-84,0,0,0,0,0
1459,1506,8256,855,0,0,0,0,0
1460,991,7866,190,1120,0,0,0,0
1461,1047,8576,1095,0,0,0,0,0
1462,662,7792,708,1116,0,0,0,0
1463,731,8667,241,0,0,0,0,0
1464,958,6738,-944,1165,0,0,0,0
1465,928,7527,-54,0,0,0,0,0
1466,1111,8197,-236,1114,0,0,0,0
1467,1134,7525,-892,0,0,0,0,0
1468,1304,7844,-523,1159,0,0,0,0
1469,1322,8326,-399,0,0,0,0,0
1470,1676,8144,-286,1155,0,0,0,0
1471,790,8133,839,0,0,0,0,0
1472,953,7789,-115,529,0,0,0,0
1473,1122,8398,493,0,0,0,0,0
1474,971,8126,574,529,0,0,0,0
1475,1910,7081,492,0,0,0,0,0
1476,682,8271,-66,0,0,0,0,0
1477,1515,7654,-374,0,0,0,0,0
1478,962,8254,697,527,0,0,0,0
1479,1110,8465,1183,0,0,0,0,0
1480,1380,8192,-981,522,0,0,0,0
1481,1015,7855,402,0,0,0,0,0
1482,1016,8097,419,1143,0,0,0,0
1483,1279,7463,-1598,0,0,0,0,0
1484,1213,8428,-210,522,0,0,0,0
1485,610,6922,466,0,0,0,0,0
1486,995,8636,-540,521,0,0,0,0
1487,2417,8073,-10,0,0,0,0,0
1488,1208,8274,-98,0,0,0,0,0
1489,1035,7660,1343,0,0,0,0,0
1490,1248,7560,-132,0,0,0,0,0
1491,942,6963,737,0,0,0,0,0
1492,1480,8428,-442,0,0,0,0,0
1493,878,7410,-290,0,0,0,0,0
1494,862,8161,970,0,0,0,0,0
1495,1992,8213,-672,0,0,0,0,0
1496,1136,7958,-56,0,0,0,0,0
1497,2135,8310,640,0,0,0,0,0
1498,1505,8560,70,0,0,0,0,0
1499,949,7403,-333,0,0,0,0,0
1500,1270,8189,954,0,0,0,0,0
1501,1142,7620,-691,0,0,0,0,0
1502,1474,7082,-1062,0,0,0,0,0
1503,1338,8138,1269,0,0,0,0,0
1504,1291,8062,-591,0,0,0,0,0
1505,1514,7646,933,974,0,0,0,0
1506,2046,7869,214,0,0,0,0,0
1507,2123,8422,-490,0,0,0,0,0
1508,1108,9051,1232,0,0,0,0,0
1509,1735,8688,838,0,0,0,0,0
1510,844,6951,606,0,0,0,0,0
1511,909,8129,-414,0,0,0,0,0
1512,2477,7876,-1811,0,0,0,0,0
1513,1550,7826,1085,0,0,0,0,0
1514,1674,9629,-206,0,0,0,0,0
1515,2385,7499,-162,0,0,0,0,0
1516,1727,8046,-194,0,0,0,0,0
1517,1721,8318,122,0,0,0,0,0
1518,1391,7259,654,0,0,0,0,0
1519,2288,8416,-761,0,0,0,0,0
1520,1937,7550,-333,0,0,0,0,0
1521,1184,8150,300,0,0,0,0,0
1522,1261,7813,-23,0,0,0,0,0
1523,3056,6967,8,0,0,0,0,0
1524,2319,8668,698,0,0,0,0,0
1525,1004,7537,-101,1079,0,0,0,0
1526,1780,9044,373,0,0,0,0,0
1527,2197,7495,320,415,0,0,0,0
1528,1649,7480,-1108,0,0,0,0,0
1529,1882,8845,101,401,0,0,0,0
1530,2604,7880,-478,0,0,0,0,0
1531,1825,8392,380,0,0,0,0,0
1532,2510,7944,-412,0,0,0,0,0
1533,1642,8016,529,0,0,0,0,0
1534,2540,7538,-278,0,0,0,0,0
1535,2178,9141,297,0,0,0,0,0
1536,1532,7488,120,0,0,0,0,0
1537,1792,8105,90,0,0,0,0,0
1538,2094,8147,158,0,0,0,0,0
1539,2650,8564,-482,0,0,0,0,0
1540,1542,8572,82,0,0,0,0,0
1541,1760,8112,-477,0,0,0,0,0
1542,1832,8624,-732,0,0,0,0,0
1543,2166,7558,-308,0,0,0,0,0
1544,2221,7652,-704,0,0,0,0,0
1545,1972,7591,10,380,0,0,0,0
1546,2866,8153,-391,0,0,0,0,0
1547,2286,7718,329,0,0,0,0,0
1548,2047,7393,-1108,0,0,0,0,0
1549,1775,8033,-184,378,0,0,0,0
1550,2623,6973,-616,0,0,0,0,0
1551,1598,8554,934,0,0,0,0,0
1552,1952,8046,-410,0,0,0,0,0
1553,2213,7374,-1004,0,0,0,0,0
1554,944,7900,171,0,0,0,0,0
1555,2147,7647,-432,0,0,0,0,0
1556,2398,8388,92,0,0,0,0,0
1557,1963,7793,-369,0,0,0,0,0
1558,2067,8746,464,0,0,0,0,0
1559,1277,7814,-734,0,0,0,0,0
1560,1946,9092,-588,0,0,0,0,0
1561,1944,9445,1414,0,0,0,0,0
1562,1943,7832,160,1022,0,0,0,0
1563,1558,8119,-155,0,0,0,0,0
1564,1035,6872,-225,1029,0,0,0,0
1565,2011,8531,-662,0,0,0,0,0
1566,1655,7328,-794,0,0,0,0,0
1567,992,8828,-252,1039,0,0,0,0
1568,1178,7454,-431,0,0,0,0,0
1569,1076,7946,-485,1042,0,0,0,0
1570,802,7652,-674,0,0,0,0,0
1571,1758,7334,447,0,0,0,0,0
1572,1444,8749,-249,0,0,0,0,0
1573,1700,7780,-47,0,0,0,0,0
1574,2006,9212,-586,0,0,0,0,0
1575,956,6890,-3,0,0,0,0,0
1576,1789,7230,-260,0,0,0,0,0
1577,1528,8453,-252,0,0,0,0,0
1578,1180,6854,-86,0,0,0,0,0
1579,970,9130,-147,1075,0,0,0,0
1580,1440,7978,-705,0,0,0,0,0
1581,1340,8710,19,1330,0,0,0,0
1582,1534,7301,-638,0,0,0,0,0
1583,1334,7715,722,0,0,0,0,0
1584,2142,8506,-1234,0,0,0,0,0
1585,1556,7414,1,0,0,0,0,0
1586,1240,8687,940,0,0,0,0,0
1587,1200,8165,-320,0,0,0,0,0
1588,994,8574,104,0,0,0,0,0
1589,996,6399,839,0,0,0,0,0
1590,866,8358,-600,0,0,0,0,0
1591,1584,7166,-496,0,0,0,0,0
1592,1300,8512,10,0,0,0,0,0
1593,1520,7824,-941,0,0,0,0,0
1594,764,8224,210,0,0,0,0,0
1595,1778,8638,488,0,0,0,0,0
1596,1556,8108,286,0,0,0,0,0
1597,1810,9430,-432,0,0,0,0,0
1598,508,8688,-189,0,0,0,0,0
1599,2383,6170,-2086,0,0,0,0,0
1600,877,7686,-1196,0,0,0,0,0
1601,1117,8342,265,0,0,0,0,0
1602,1014,7428,-86,1062,0,0,0,0
1603,1184,8982,-45,0,0,0,0,0
1604,2010,8127,68,1050,0,0,0,0
1605,1665,8246,-637,0,0,0,0,0
1606,1236,8581,-406,1045,0,0,0,0
1607,756,7887,-56,0,0,0,0,0
1608,1596,9269,1040,1044,0,0,0,0
1609,670,8131,-906,0,0,0,0,0
1610,448,7547,454,1046,0,0,0,0
1611,424,7908,-1204,0,0,0,0,0
1612,1350,8462,-543,1373,0,0,0,0
1613,360,7041,-236,0,0,0,0,0
1614,882,6177,-1496,1370,0,0,0,0
1615,1402,8090,606,0,0,0,0,0
1616,1463,8026,810,0,0,0,0,0
1617,1329,8060,705,0,0,0,0,0
1618,1356,8006,814,1104,0,0,0,0
1619,1396,7950,786,0,0,0,0,0
1620,1414,8136,808,0,0,0,0,0
1621,1414,8134,858,0,0,0,0,0
1622,1488,8186,856,0,0,0,0,0
1623,1344,8144,890,0,0,0,0,0
1624,1499,8049,712,0,0,0,0,0
1625,1545,8082,799,0,0,0,0,0
1626,1265,8208,1090,0,0,0,0,0
1627,1423,7997,854,0,0,0,0,0
1628,1515,8200,780,0,0,0,0,0
1629,1518,8149,888,0,0,0,0,0
1630,1366,8043,738,0,0,0,0,0
1631,1436,8080,857,791,0,0,0,0
1632,1443,8008,798,0,0,0,0,0
1633,1430,8111,741,792,0,0,0,0
1634,1442,8029,738,0,0,0,0,0
1635,1548,7765,1032,0,0,0,0,0
1636,1509,7903,645,0,0,0,0,0
1637,1570,8103,920,240,0,0,0,0
1638,1393,8000,1060,0,0,0,0,0
1639,1499,8011,412,1232,0,0,0,0
1640,1550,8101,777,0,0,0,0,0
1641,1452,8032,1066,1226,0,0,0,0
1642,1690,8047,414,0,0,0,0,0
1643,1587,7960,906,0,0,0,0,0
1644,1532,8060,812,0,0,0,0,0
1645,1452,8000,813,0,0,0,0,0
1646,1705,7886,782,0,0,0,0,0
1647,1546,7769,570,1185,0,0,0,0
1648,1488,8100,1050,0,0,0,0,0
1649,1730,7927,1019,0,0,0,0,0
1650,1774,8308,418,0,0,0,0,0
1651,1729,8702,1195,0,0,0,0,0
1652,1644,7312,61,0,0,0,0,0
1653,1708,7731,574,0,0,0,0,0
1654,1373,8151,620,0,0,0,0,0
1655,1713,8296,396,0,0,0,0,0
1656,1766,8508,912,0,0,0,0,0
1657,1486,7424,795,0,0,0,0,0
1658,1783,7713,738,0,0,0,0,0
1659,1538,8020,194,0,0,0,0,0
1660,1842,8146,780,0,0,0,0,0
1661,1721,7960,569,0,0,0,0,0
1662,1602,7732,288,0,0,0,0,0
1663,1718,8219,709,0,0,0,0,0
1664,1669,7903,502,0,0,0,0,0
1665,1955,8128,657,791,0,0,0,0
1666,1564,7878,1374,0,0,0,0,0
1667,1926,8413,664,1238,0,0,0,0
1668,1792,7899,596,0,0,0,0,0
1669,2196,7900,694,0,0,0,0,0
1670,1557,8033,757,0,0,0,0,0
1671,1698,8224,914,0,0,0,0,0
1672,1568,8269,1601,0,0,0,0,0
1673,1944,8215,558,1221,0,0,0,0
1674,2136,8131,682,0,0,0,0,0
1675,1748,8229,255,0,0,0,0,0
1676,1927,7784,572,0,0,0,0,0
1677,1739,7412,318,0,0,0,0,0
1678,1786,7896,1009,1204,0,0,0,0
1679,1566,8546,505,0,0,0,0,0
1680,1533,8149,851,1203,0,0,0,0
1681,1482,7494,1060,0,0,0,0,0
1682,1556,7722,1238,1206,0,0,0,0
1683,1220,8268,298,0,0,0,0,0
1684,1389,8763,1519,1212,0,0,0,0
1685,1499,8050,1030,0,0,0,0,0
1686,1572,7321,-24,0,0,0,0,0
1687,1698,8262,1193,0,0,0,0,0
1688,1767,8162,1018,0,0,0,0,0
1689,1921,7828,688,0,0,0,0,0
1690,1662,8034,200,0,0,0,0,0
1691,1526,8218,72,0,0,0,0,0
1692,1558,8341,815,0,0,0,0,0
1693,1596,7670,1168,0,0,0,0,0
1694,1455,7811,353,0,0,0,0,0
1695,1607,7808,981,0,0,0,0,0
1696,1270,7883,259,0,0,0,0,0
1697,1481,8009,124,0,0,0,0,0
1698,1569,7853,1589,0,0,0,0,0
1699,1662,8169,564,0,0,0,0,0
1700,1400,7696,580,0,0,0,0,0
1701,1211,8576,976,0,0,0,0,0
1702,1398,8116,550,0,0,0,0,0
1703,1783,7936,1224,0,0,0,0,0
1704,1682,7818,713,0,0,0,0,0
1705,1076,8075,983,0,0,0,0,0
1706,1147,7963,836,0,0,0,0,0
1707,982,7546,-300,710,0,0,0,0
1708,1018,7793,848,0,0,0,0,0
1709,1107,7895,628,0,0,0,0,0
1710,904,8508,731,0,0,0,0,0
1711,1229,8544,1024,664,0,0,0,0
1712,1250,8457,840,0,0,0,0,0
1713,1400,6838,597,670,0,0,0,0
1714,1027,8402,1181,0,0,0,0,0
1715,1204,8008,445,659,0,0,0,0
1716,1128,8485,1202,0,0,0,0,0
1717,1119,7536,92,886,0,0,0,0
1718,633,7959,738,0,0,0,0,0
1719,1323,8791,888,1150,0,0,0,0
1720,1706,8111,-22,0,0,0,0,0
1721,1005,7558,431,0,0,0,0,0
1722,1205,7644,-314,0,0,0,0,0
1723,1126,8510,-234,0,0,0,0,0
1724,1835,8111,481,0,0,0,0,0
1725,1388,8781,471,0,0,0,0,0
1726,933,8020,690,0,0,0,0,0
1727,2139,8043,-256,0,0,0,0,0
1728,558,7580,170,0,0,0,0,0
1729,1666,7155,14,1016,0,0,0,0
1730,1390,8456,-653,0,0,0,0,0
1731,1377,8182,-116,0,0,0,0,0
1732,1406,7854,211,0,0,0,0,0
1733,722,7962,432,0,0,0,0,0
1734,1024,8887,999,0,0,0,0,0
1735,1708,8346,241,0,0,0,0,0
1736,1426,8098,-47,0,0,0,0,0
1737,1174,7362,-150,0,0,0,0,0
1738,825,7538,213,0,0,0,0,0
1739,1726,8378,384,0,0,0,0,0
1740,1288,8591,337,0,0,0,0,0
1741,1260,8498,-46,0,0,0,0,0
1742,1456,7332,-84,0,0,0,0,0
1743,1368,8124,-135,0,0,0,0,0
1744,588,8402,628,0,0,0,0,0
1745,1283,8456,253,0,0,0,0,0
1746,1102,8002,1085,829,0,0,0,0
1747,988,7644,-528,0,0,0,0,0
1748,1453,8340,-984,1051,0,0,0,0
1749,1394,8722,620,0,0,0,0,0
1750,1140,7731,-7,1050,0,0,0,0
1751,1406,8191,294,0,0,0,0,0
1752,1488,8681,758,0,0,0,0,0
1753,1298,8618,-200,0,0,0,0,0
1754,890,7570,296,0,0,0,0,0
1755,1140,7762,726,0,0,0,0,0
1756,1733,8450,34,0,0,0,0,0
1757,1230,8002,459,0,0,0,0,0
1758,1011,7836,508,0,0,0,0,0
1759,1196,7696,3,0,0,0,0,0
1760,1289,8464,210,0,0,0,0,0
1761,1710,8531,-120,0,0,0,0,0
1762,908,7775,207,0,0,0,0,0
1763,1142,7887,75,0,0,0,0,0
1764,1074,8171,469,0,0,0,0,0
1765,932,7730,-181,0,0,0,0,0
1766,893,7810,-74,0,0,0,0,0
1767,1223,7879,354,562,0,0,0,0
1768,1274,8022,78,0,0,0,0,0
1769,1180,7946,58,769,0,0,0,0
1770,812,7366,263,0,0,0,0,0
1771,851,8436,1444,1101,0,0,0,0
1772,1360,7834,480,0,0,0,0,0
1773,1244,7848,334,0,0,0,0,0
1774,1061,8146,266,0,0,0,0,0
1775,977,7809,58,0,0,0,0,0
1776,805,8247,274,0,0,0,0,0
1777,985,8104,18,1084,0,0,0,0
1778,996,8099,132,0,0,0,0,0
1779,488,8170,462,0,0,0,0,0
1780,848,8329,592,0,0,0,0,0
1781,537,7894,370,0,0,0,0,0
1782,214,7944,576,0,0,0,0,0
1783,403,8677,799,0,0,0,0,0
1784,739,8488,818,0,0,0,0,0
1785,752,7794,272,0,0,0,0,0
1786,670,8219,649,0,0,0,0,0
1787,411,8191,1042,0,0,0,0,0
1788,593,8360,280,0,0,0,0,0
1789,806,7987,1218,0,0,0,0,0
1790,248,7413,724,0,0,0,0,0
1791,1010,8274,-42,0,0,0,0,0
1792,634,8075,-21,0,0,0,0,0
1793,176,8184,746,0,0,0,0,0
1794,409,7634,80,0,0,0,0,0
1795,186,7650,-32,0,0,0,0,0
1796,593,8605,848,0,0,0,0,0
1797,960,7869,249,0,0,0,0,0
1798,-104,8604,383,0,0,0,0,0
1799,332,8335,-81,0,0,0,0,0
1800,544,7441,590,0,0,0,0,0
1801,357,8274,204,0,0,0,0,0
1802,646,7986,38,0,0,0,0,0
1803,219,8180,394,0,0,0,0,0
1804,266,8901,215,595,0,0,0,0
1805,90,7390,651,0,0,0,0,0
1806,-111,7940,361,829,0,0,0,0
1807,638,9035,232,0,0,0,0,0
1808,231,8536,278,830,0,0,0,0
1809,-264,8310,244,0,0,0,0,0
1810,460,7989,575,1122,0,0,0,0
1811,0,7935,-710,0,0,0,0,0
1812,334,8448,112,0,0,0,0,0
1813,571,8431,230,0,0,0,0,0
1814,-274,8222,408,0,0,0,0,0
1815,-350,7410,-72,0,0,0,0,0
1816,-252,8771,311,0,0,0,0,0
1817,132,8229,-393,0,0,0,0,0
1818,201,8139,497,1100,0,0,0,0
1819,-144,7633,-174,0,0,0,0,0
1820,7,8229,585,0,0,0,0,0
1821,521,9241,776,0,0,0,0,0
1822,89,8408,1004,0,0,0,0,0
1823,193,8444,451,0,0,0,0,0
1824,257,8538,179,0,0,0,0,0
1825,283,8391,294,0,0,0,0,0
1826,-196,8382,165,0,0,0,0,0
1827,489,7882,49,0,0,0,0,0
1828,-6,7854,-419,0,0,0,0,0
1829,182,7178,-203,0,0,0,0,0
1830,184,8961,1916,0,0,0,0,0
1831,685,8531,563,0,0,0,0,0
1832,336,7676,852,0,0,0,0,0
1833,255,8433,-212,0,0,0,0,0
1834,374,7858,-472,0,0,0,0,0
1835,868,8320,-899,0,0,0,0,0
1836,-61,7973,-466,0,0,0,0,0
1837,-25,8512,-228,0,0,0,0,0
1838,1010,8195,-388,0,0,0,0,0
1839,259,7974,-1050,0,0,0,0,0
1840,165,8142,-188,0,0,0,0,0
1841,402,8375,-544,0,0,0,0,0
1842,644,8302,-495,0,0,0,0,0
1843,740,7458,-244,155,0,0,0,0
1844,871,8328,-148,0,0,0,0,0
1845,569,7902,-1240,325,0,0,0,0
1846,730,8494,-209,0,0,0,0,0
1847,723,8770,-518,0,0,0,0,0
1848,584,7767,-533,0,0,0,0,0
1849,698,7878,-1274,0,0,0,0,0
1850,961,7871,-1103,0,0,0,0,0
1851,469,8155,-2207,0,0,0,0,0
1852,915,8330,-1914,0,0,0,0,0
1853,844,8076,-1943,0,0,0,0,0
1854,399,7907,-2257,0,0,0,0,0
1855,834,8106,-2308,0,0,0,0,0
1856,966,8278,-1961,0,0,0,0,0
1857,744,8161,-2278,0,0,0,0,0
1858,778,8050,-2558,0,0,0,0,0
1859,1016,8144,-2172,0,0,0,0,0
1860,800,8302,18,0,0,0,0,0
1861,512,8320,1850,0,0,0,0,0
1862,730,8170,2129,0,0,0,0,0
1863,740,8706,220,0,0,0,0,0
1864,852,7992,164,0,0,0,0,0
1865,750,7644,161,0,0,0,0,0
1866,785,8026,221,0,0,0,0,0
1867,825,8144,861,0,0,0,0,0
1868,810,8312,713,0,0,0,0,0
1869,737,8062,180,0,0,0,0,0
1870,816,7982,412,0,0,0,0,0
1871,834,8216,613,0,0,0,0,0
1872,830,8202,583,0,0,0,0,0
1873,796,8038,395,0,0,0,0,0
1874,817,8058,359,0,0,0,0,0
1875,784,8165,544,0,0,0,0,0
1876,796,8098,570,0,0,0,0,0
1877,820,8071,356,0,0,0,0,0
1878,820,8112,396,0,0,0,0,0
1879,780,8109,540,0,0,0,0,0
1880,806,8115,443,0,0,0,0,0
1881,821,8090,415,0,0,0,0,0
1882,810,8111,477,0,0,0,0,0
1883,810,8119,518,0,0,0,0,0
1884,820,8119,480,0,0,0,0,0
1885,801,8103,493,0,0,0,0,0
1886,797,8118,468,0,0,0,0,0
1887,818,8109,454,0,0,0,0,0
1888,815,8100,440,0,0,0,0,0
1889,807,8095,463,0,0,0,0,0
1890,808,8128,487,0,0,0,0,0
1891,810,8086,478,0,0,0,0,0
1892,816,8113,442,0,0,0,0,0
1893,808,8109,476,0,0,0,0,0
1894,814,8117,478,0,0,0,0,0
1895,816,8098,472,0,0,0,0,0
1896,800,8118,484,0,0,0,0,0
1897,813,8099,473,0,0,0,0,0
1898,817,8106,470,0,0,0,0,0
1899,808,8094,452,0,0,0,0,0
1900,811,8126,468,0,0,0,0,0
1901,816,8104,494,0,0,0,0,0
1902,802,8123,466,0,0,0,0,0
1903,806,8109,492,0,0,0,0,0
1904,801,8118,457,0,0,0,0,0
1905,798,8116,480,0,0,0,0,0
1906,811,8102,485,0,0,0,0,0
1907,811,8110,461,0,0,0,0,0
1908,814,8098,462,0,0,0,0,0
1909,809,8108,472,0,0,0,0,0
1910,810,8101,464,0,0,0,0,0
1911,808,8118,478,0,0,0,0,0
1912,808,8103,456,0,0,0,0,0
1913,809,8104,455,0,0,0,0,0
1914,802,8102,469,0,0,0,0,0
1915,807,8115,466,0,0,0,0,0
1916,806,8090,454,0,0,0,0,0
1917,810,8104,479,0,0,0,0,0
1918,807,8118,493,0,0,0,0,0
1919,802,8107,470,0,0,0,0,0
1920,819,8106,472,0,0,0,0,0
1921,804,8122,509,0,0,0,0,0
1922,818,8126,487,0,0,0,0,0
1923,813,8109,459,0,0,0,0,0
1924,801,8096,474,0,0,0,0,0
1925,805,8120,487,0,0,0,0,0
1926,802,8109,468,0,0,0,0,0
1927,808,8106,474,0,0,0,0,0
1928,814,8099,440,0,0,0,0,0
1929,802,8113,477,0,0,0,0,0
1930,809,8106,484,0,0,0,0,0
1931,808,8107,468,0,0,0,0,0
1932,811,8116,483,0,0,0,0,0
1933,811,8104,465,0,0,0,0,0
1934,798,8119,480,0,0,0,0,0
1935,811,8094,466,0,0,0,0,0
1936,816,8100,446,0,0,0,0,0
1937,802,8115,470,0,0,0,0,0
1938,812,8104,476,0,0,0,0,0
1939,816,8116,466,0,0,0,0,0
1940,813,8105,458,0,0,0,0,0
1941,800,8116,490,0,0,0,0,0
1942,809,8116,491,0,0,0,0,0
1943,814,8103,457,0,0,0,0,0
1944,812,8110,477,0,0,0,0,0
1945,810,8096,500,0,0,0,0,0
1946,805,8114,466,0,0,0,0,0
1947,824,8109,471,0,0,0,0,0
1948,812,8095,492,0,0,0,0,0
1949,816,8117,472,0,0,0,0,0
1950,812,8122,463,0,0,0,0,0
1951,808,8096,467,0,0,0,0,0
1952,814,8110,482,0,0,0,0,0
1953,812,8111,477,0,0,0,0,0
1954,772,8075,462,0,0,0,0,0
1955,834,8092,462,0,0,0,0,0
1956,813,8129,481,0,0,0,0,0
1957,805,8104,475,0,0,0,0,0
1958,814,8074,472,0,0,0,0,0
1959,827,8107,466,0,0,0,0,0
1960,810,8100,454,0,0,0,0,0
1961,801,8106,486,0,0,0,0,0
1962,808,8090,465,0,0,0,0,0
1963,818,8107,469,0,0,0,0,0
1964,812,8124,473,0,0,0,0,0
1965,804,8094,500,0,0,0,0,0
1966,808,8110,462,0,0,0,0,0
1967,815,8112,467,0,0,0,0,0
1968,799,8107,480,0,0,0,0,0
1969,807,8107,481,0,0,0,0,0
1970,806,8108,456,0,0,0,0,0
1971,813,8116,468,0,0,0,0,0
1972,809,8098,478,0,0,0,0,0
1973,800,8109,477,0,0,0,0,0
1974,810,8105,472,0,0,0,0,0
1975,802,8106,476,0,0,0,0,0
1976,803,8112,474,0,0,0,0,0
1977,798,8113,474,0,0,0,0,0
1978,806,8106,477,0,0,0,0,0
1979,813,8106,474,0,0,0,0,0
1980,806,8108,477,0,0,0,0,0
1981,810,8107,471,0,0,0,0,0
1982,812,8104,471,0,0,0,0,0
1983,807,8112,475,0,0,0,0,0
1984,800,8111,461,0,0,0,0,0
1985,814,8104,471,0,0,0,0,0
1986,813,8108,472,0,0,0,0,0
1987,805,8111,472,0,0,0,0,0
1988,809,8099,471,0,0,0,0,0
1989,812,8106,471,0,0,0,0,0
1990,816,8101,472,0,0,0,0,0
1991,810,8112,472,0,0,0,0,0
1992,804,8110,459,0,0,0,0,0
1993,812,8100,472,0,0,0,0,0
1994,810,8106,476,0,0,0,0,0
1995,799,8106,475,0,0,0,0,0
1996,806,8112,461,0,0,0,0,0
1997,807,8106,468,0,0,0,0,0
1998,817,8108,468,0,0,0,0,0
1999,817,8106,472,0,0,0,0,0
2000,803,8108,474,0,0,0,0,0
2001,809,8106,482,0,0,0,0,0
2002,818,8116,473,0,0,0,0,0
2003,808,8112,463,0,0,0,0,0
2004,798,8101,461,0,0,0,0,0
2005,810,8119,474,0,0,0,0,0
2006,813,8121,491,0,0,0,0,0
2007,810,8106,452,0,0,0,0,0
2008,818,8108,463,0,0,0,0,0
2009,805,8107,478,0,0,0,0,0
2010,805,8111,481,0,0,0,0,0
2011,804,8095,474,0,0,0,0,0
2012,836,8126,490,0,0,0,0,0
2013,804,8076,448,0,0,0,0,0
2014,795,8105,465,0,0,0,0,0
2015,786,8117,482,0,0,0,0,0
2016,809,8114,486,0,0,0,0,0
2017,840,8094,472,0,0,0,0,0
2018,827,8116,472,0,0,0,0,0
2019,774,8106,476,0,0,0,0,0
2020,796,8099,483,0,0,0,0,0
2021,832,8108,449,0,0,0,0,0
2022,818,8114,474,0,0,0,0,0
2023,796,8110,472,0,0,0,0,0
2024,810,8107,475,0,0,0,0,0
2025,811,8110,466,0,0,0,0,0
2026,810,8116,476,0,0,0,0,0
2027,822,8112,470,0,0,0,0,0
2028,812,8101,472,0,0,0,0,0
2029,800,8103,482,0,0,0,0,0
2030,814,8117,462,0,0,0,0,0
2031,816,8095,462,0,0,0,0,0
2032,807,8106,480,0,0,0,0,0
2033,789,8121,462,0,0,0,0,0
2034,803,8102,472,0,0,0,0,0
2035,815,8106,474,0,0,0,0,0
2036,817,8114,468,0,0,0,0,0
2037,793,8112,462,0,0,0,0,0
2038,803,8102,476,0,0,0,0,0
2039,821,8110,484,0,0,0,0,0
2040,812,8106,464,0,0,0,0,0
2041,799,8100,462,0,0,0,0,0
2042,814,8104,479,0,0,0,0,0
2043,811,8111,476,0,0,0,0,0
2044,807,8108,467,0,0,0,0,0
2045,805,8111,483,0,0,0,0,0
2046,810,8111,485,0,0,0,0,0
2047,799,8104,463,0,0,0,0,0
2048,815,8103,466,0,0,0,0,0
2049,812,8104,479,0,0,0,0,0
2050,814,8114,467,0,0,0,0,0
2051,812,8108,469,0,0,0,0,0
2052,819,8108,472,0,0,0,0,0
2053,809,8107,480,0,0,0,0,0
2054,806,8108,467,0,0,0,0,0
2055,807,8114,472,0,0,0,0,0
2056,812,8102,470,0,0,0,0,0
2057,812,8112,468,0,0,0,0,0
2058,817,8105,468,0,0,0,0,0
2059,811,8114,472,0,0,0,0,0
2060,806,8106,472,0,0,0,0,0
2061,806,8100,466,0,0,0,0,0
2062,813,8116,479,0,0,0,0,0
2063,807,8104,476,0,0,0,0,0
2064,810,8098,474,0,0,0,0,0
2065,807,8113,468,0,0,0,0,0
2066,809,8102,468,0,0,0,0,0
2067,814,8104,474,0,0,0,0,0
2068,808,8106,481,0,0,0,0,0
2069,806,8108,467,0,0,0,0,0
2070,804,8110,478,0,0,0,0,0
2071,816,8102,467,0,0,0,0,0
2072,804,8112,464,0,0,0,0,0
2073,808,8106,480,0,0,0,0,0
2074,805,8110,456,0,0,0,0,0
2075,817,8102,483,0,0,0,0,0
2076,808,8108,467,0,0,0,0,0
2077,807,8113,473,0,0,0,0,0
2078,808,8097,477,0,0,0,0,0
2079,811,8114,478,0,0,0,0,0
2080,812,8110,474,0,0,0,0,0
2081,809,8098,467,0,0,0,0,0
2082,816,8108,467,0,0,0,0,0
2083,798,8109,472,0,0,0,0,0
2084,806,8111,476,0,0,0,0,0
2085,812,8105,470,0,0,0,0,0
2086,814,8100,454,0,0,0,0,0
2087,785,8110,482,0,0,0,0,0
2088,799,8096,478,0,0,0,0,0
2089,824,8106,464,0,0,0,0,0
2090,808,8105,478,0,0,0,0,0
2091,794,8108,476,0,0,0,0,0
2092,810,8115,466,0,0,0,0,0
2093,816,8108,465,0,0,0,0,0
2094,792,8097,482,0,0,0,0,0
2095,825,8114,478,0,0,0,0,0
2096,831,8107,456,0,0,0,0,0
2097,790,8096,473,0,0,0,0,0
2098,780,8117,472,0,0,0,0,0
2099,837,8097,470,0,0,0,0,0
2100,810,8108,488,0,0,0,0,0
2101,756,8108,477,0,0,0,0,0
2102,820,8100,461,0,0,0,0,0
2103,841,8107,472,0,0,0,0,0
2104,789,8130,463,0,0,0,0,0
2105,803,8089,512,0,0,0,0,0
2106,842,8137,429,0,0,0,0,0
2107,796,8096,476,0,0,0,0,0
2108,796,8085,489,0,0,0,0,0
2109,826,8143,444,0,0,0,0,0
2110,807,8065,498,0,0,0,0,0
2111,796,8133,474,0,0,0,0,0
2112,803,8110,487,0,0,0,0,0
2113,810,8065,513,0,0,0,0,0
2114,821,8154,411,0,0,0,0,0
2115,794,8082,511,0,0,0,0,0
2116,806,8110,459,0,0,0,0,0
2117,815,8108,470,0,0,0,0,0
2118,794,8082,490,0,0,0,0,0
2119,828,8130,465,0,0,0,0,0
2120,810,8085,504,0,0,0,0,0
2121,806,8120,459,0,0,0,0,0
2122,802,8109,459,0,0,0,0,0
2123,813,8100,471,0,0,0,0,0
2124,798,8112,483,0,0,0,0,0
2125,802,8111,456,0,0,0,0,0
2126,813,8105,470,0,0,0,0,0
2127,809,8104,472,0,0,0,0,0
2128,806,8104,472,0,0,0,0,0
2129,808,8106,482,0,0,0,0,0
2130,801,8107,472,0,0,0,0,0
2131,814,8101,483,0,0,0,0,0
2132,816,8109,470,0,0,0,0,0
2133,812,8105,476,0,0,0,0,0
2134,808,8100,474,0,0,0,0,0
2135,808,8107,466,0,0,0,0,0
2136,810,8106,469,0,0,0,0,0
2137,806,8098,478,0,0,0,0,0
2138,804,8120,461,0,0,0,0,0
2139,805,8092,486,0,0,0,0,0
2140,806,8114,464,0,0,0,0,0
2141,820,8112,457,0,0,0,0,0
2142,802,8113,495,0,0,0,0,0
2143,807,8122,490,0,0,0,0,0
2144,806,8089,438,0,0,0,0,0
2145,823,8128,488,0,0,0,0,0
2146,817,8129,491,0,0,0,0,0
2147,802,8088,476,0,0,0,0,0
2148,795,8096,449,0,0,0,0,0
2149,832,8124,480,0,0,0,0,0
2150,812,8101,462,0,0,0,0,0
2151,816,8098,468,0,0,0,0,0
2152,803,8118,484,0,0,0,0,0
2153,813,8089,463,0,0,0,0,0
2154,807,8106,478,0,0,0,0,0
2155,812,8117,466,0,0,0,0,0
2156,806,8095,465,0,0,0,0,0
2157,807,8120,475,0,0,0,0,0
2158,812,8114,481,0,0,0,0,0
2159,804,8105,468,0,0,0,0,0
2160,808,8110,471,0,0,0,0,0
2161,808,8104,476,0,0,0,0,0
2162,810,8114,468,0,0,0,0,0
2163,808,8097,453,0,0,0,0,0
2164,808,8106,465,0,0,0,0,0
2165,804,8117,491,0,0,0,0,0
2166,808,8108,454,0,0,0,0,0
2167,814,8103,463,0,0,0,0,0
2168,814,8111,482,0,0,0,0,0
2169,808,8108,473,0,0,0,0,0
2170,804,8100,461,0,0,0,0,0
2171,806,8111,481,0,0,0,0,0
2172,812,8108,480,0,0,0,0,0
2173,816,8103,465,0,0,0,0,0
2174,806,8120,495,0,0,0,0,0
2175,790,8108,481,0,0,0,0,0
2176,812,8102,447,0,0,0,0,0
2177,810,8106,500,0,0,0,0,0
2178,785,8104,450,0,0,0,0,0
2179,796,8126,473,0,0,0,0,0
2180,821,8106,475,0,0,0,0,0
2181,810,8112,460,0,0,0,0,0
2182,796,8106,471,0,0,0,0,0
2183,807,8116,487,0,0,0,0,0
2184,809,8104,447,0,0,0,0,0
2185,803,8105,472,0,0,0,0,0
2186,806,8121,487,0,0,0,0,0
2187,808,8099,466,0,0,0,0,0
2188,820,8104,428,0,0,0,0,0
2189,802,8114,543,0,0,0,0,0
2190,826,8143,483,0,0,0,0,0
2191,804,8079,382,0,0,0,0,0
2192,792,8085,475,0,0,0,0,0
2193,840,8174,562,0,0,0,0,0
2194,816,8112,476,0,0,0,0,0
2195,777,8054,413,0,0,0,0,0
2196,824,8122,453,0,0,0,0,0
2197,830,8122,532,0,0,0,0,0
2198,788,8076,457,0,0,0,0,0
2199,807,8111,424,0,0,0,0,0
2200,810,8113,501,0,0,0,0,0
2201,812,8096,522,0,0,0,0,0
2202,806,8105,435,0,0,0,0,0
2203,810,8108,454,0,0,0,0,0
2204,815,8121,493,0,0,0,0,0
2205,796,8106,456,0,0,0,0,0
2206,814,8118,447,0,0,0,0,0
2207,813,8098,479,0,0,0,0,0
2208,804,8143,510,0,0,0,0,0
2209,812,8120,480,0,0,0,0,0
2210,801,8086,468,0,0,0,0,0
2211,812,8103,472,0,0,0,0,0
2212,798,8063,455,0,0,0,0,0
2213,820,8081,464,0,0,0,0,0
2214,811,8148,473,0,0,0,0,0
2215,806,8072,502,0,0,0,0,0
2216,797,8111,437,0,0,0,0,0
2217,807,8109,477,0,0,0,0,0
2218,812,8119,497,0,0,0,0,0
2219,805,8103,458,0,0,0,0,0
2220,818,8124,473,0,0,0,0,0
2221,810,8108,485,0,0,0,0,0
2222,805,8100,469,0,0,0,0,0
2223,818,8120,454,0,0,0,0,0
2224,821,8107,490,0,0,0,0,0
2225,801,8100,488,0,0,0,0,0
2226,806,8118,456,0,0,0,0,0
2227,804,8096,446,0,0,0,0,0
2228,806,8102,493,0,0,0,0,0
2229,806,8108,492,0,0,0,0,0
2230,814,8104,463,0,0,0,0,0
2231,806,8103,466,0,0,0,0,0
2232,812,8112,488,0,0,0,0,0
2233,805,8097,469,0,0,0,0,0
2234,813,8116,468,0,0,0,0,0
2235,796,8100,480,0,0,0,0,0
2236,812,8113,470,0,0,0,0,0
2237,808,8110,463,0,0,0,0,0
2238,804,8108,470,0,0,0,0,0
2239,811,8114,479,0,0,0,0,0
2240,812,8095,475,0,0,0,0,0
2241,795,8111,461,0,0,0,0,0
2242,812,8115,462,0,0,0,0,0
2243,810,8104,474,0,0,0,0,0
2244,814,8098,478,0,0,0,0,0
2245,814,8121,455,0,0,0,0,0
2246,800,8094,460,0,0,0,0,0
2247,808,8096,482,0,0,0,0,0
2248,825,8122,482,0,0,0,0,0
2249,812,8098,457,0,0,0,0,0
2250,801,8106,489,0,0,0,0,0
2251,816,8117,489,0,0,0,0,0
2252,818,8100,458,0,0,0,0,0
2253,810,8094,472,0,0,0,0,0
2254,803,8103,494,0,0,0,0,0
2255,820,8090,474,0,0,0,0,0
2256,818,8122,430,0,0,0,0,0
2257,797,8099,498,0,0,0,0,0
2258,812,8095,503,0,0,0,0,0
2259,800,8114,422,0,0,0,0,0
2260,793,8098,480,0,0,0,0,0
2261,820,8109,479,0,0,0,0,0
2262,809,8109,465,0,0,0,0,0
2263,794,8100,471,0,0,0,0,0
2264,811,8110,490,0,0,0,0,0
2265,823,8096,459,0,0,0,0,0
2266,810,8118,446,0,0,0,0,0
2267,814,8094,487,0,0,0,0,0
2268,799,8111,470,0,0,0,0,0
2269,806,8112,464,0,0,0,0,0
2270,815,8106,475,0,0,0,0,0
2271,813,8108,479,0,0,0,0,0
2272,800,8114,468,0,0,0,0,0
2273,798,8092,452,0,0,0,0,0
2274,821,8115,490,0,0,0,0,0
2275,806,8130,484,0,0,0,0,0
2276,818,8107,440,0,0,0,0,0
2277,822,8108,454,0,0,0,0,0
2278,780,8107,509,0,0,0,0,0
2279,811,8097,529,0,0,0,0,0
2280,861,8086,434,0,0,0,0,0
2281,757,8038,452,0,0,0,0,0
2282,760,8084,555,0,0,0,0,0
2283,860,8149,456,0,0,0,0,0
2284,875,8012,478,0,0,0,0,0
2285,778,8144,356,0,0,0,0,0
2286,720,8178,502,0,0,0,0,0
2287,877,8162,586,0,0,0,0,0
2288,923,8202,434,0,0,0,0,0
2289,711,7970,270,0,0,0,0,0
2290,672,8074,624,0,0,0,0,0
2291,967,8288,474,0,0,0,0,0
2292,630,8004,494,0,0,0,0,0
2293,840,8242,560,0,0,0,0,0
2294,986,8104,521,0,0,0,0,0
2295,709,8056,374,0,0,0,0,0
2296,911,8114,519,0,0,0,0,0
2297,794,8094,452,0,0,0,0,0
2298,722,8094,413,0,0,0,0,0
2299,846,8099,503,0,0,0,0,0
2300,807,8136,459,0,0,0,0,0
2301,838,8099,487,0,0,0,0,0
2302,832,8111,478,0,0,0,0,0
2303,800,8102,471,0,0,0,0,0
2304,793,8108,480,0,0,0,0,0
2305,813,8108,476,0,0,0,0,0
2306,812,8102,472,0,0,0,0,0
2307,799,8106,487,0,0,0,0,0
2308,818,8105,463,0,0,0,0,0
2309,813,8095,465,0,0,0,0,0
2310,814,8106,476,0,0,0,0,0
2311,812,8106,467,0,0,0,0,0
2312,811,8107,473,0,0,0,0,0
2313,806,8106,476,0,0,0,0,0
2314,811,8102,477,0,0,0,0,0
2315,802,8106,474,0,0,0,0,0
2316,817,8117,462,0,0,0,0,0
2317,807,8104,464,0,0,0,0,0
2318,815,8112,468,0,0,0,0,0
2319,820,8108,471,0,0,0,0,0
2320,806,8114,483,0,0,0,0,0
2321,812,8100,466,0,0,0,0,0
2322,810,8110,464,0,0,0,0,0
2323,794,8097,474,0,0,0,0,0
2324,808,8116,468,0,0,0,0,0
2325,809,8099,462,0,0,0,0,0
2326,815,8112,478,0,0,0,0,0
2327,807,8111,470,0,0,0,0,0
2328,810,8106,478,0,0,0,0,0
2329,811,8117,462,0,0,0,0,0
2330,808,8103,471,0,0,0,0,0
2331,807,8107,475,0,0,0,0,0
2332,812,8104,474,0,0,0,0,0
2333,806,8108,477,0,0,0,0,0
2334,806,8108,472,0,0,0,0,0
2335,805,8106,467,0,0,0,0,0
2336,799,8106,460,0,0,0,0,0
2337,809,8112,486,0,0,0,0,0
2338,817,8105,476,0,0,0,0,0
2339,803,8108,470,0,0,0,0,0
2340,813,8107,472,0,0,0,0,0
2341,806,8109,463,0,0,0,0,0
2342,810,8111,476,0,0,0,0,0
2343,810,8105,486,0,0,0,0,0
2344,806,8106,450,0,0,0,0,0
2345,812,8104,482,0,0,0,0,0
2346,814,8111,478,0,0,0,0,0
2347,808,8110,465,0,0,0,0,0
2348,811,8103,462,0,0,0,0,0
2349,808,8105,474,0,0,0,0,0
2350,810,8101,474,0,0,0,0,0
2351,807,8114,463,0,0,0,0,0
2352,804,8099,477,0,0,0,0,0
2353,809,8109,484,0,0,0,0,0
2354,816,8101,461,0,0,0,0,0
2355,811,8102,474,0,0,0,0,0
2356,804,8106,476,0,0,0,0,0
2357,810,8107,470,0,0,0,0,0
2358,811,8104,475,0,0,0,0,0
2359,810,8107,477,0,0,0,0,0
2360,801,8106,463,0,0,0,0,0
2361,803,8108,464,0,0,0,0,0
2362,814,8112,475,0,0,0,0,0
2363,794,8096,473,0,0,0,0,0
2364,808,8107,473,0,0,0,0,0
2365,814,8111,478,0,0,0,0,0
2366,818,8102,465,0,0,0,0,0
2367,804,8106,474,0,0,0,0,0
2368,803,8112,472,0,0,0,0,0
2369,810,8107,472,0,0,0,0,0
2370,807,8110,471,0,0,0,0,0
2371,815,8112,479,0,0,0,0,0
2372,810,8107,478,0,0,0,0,0
2373,804,8104,454,0,0,0,0,0
2374,812,8111,477,0,0,0,0,0
2375,801,8098,464,0,0,0,0,0
2376,809,8108,475,0,0,0,0,0
2377,809,8111,473,0,0,0,0,0
2378,804,8107,468,0,0,0,0,0
2379,800,8106,471,0,0,0,0,0
2380,814,8105,480,0,0,0,0,0
2381,806,8114,471,0,0,0,0,0
2382,819,8116,469,0,0,0,0,0
2383,812,8107,480,0,0,0,0,0
2384,798,8103,460,0,0,0,0,0
2385,805,8112,496,0,0,0,0,0
2386,809,8117,464,0,0,0,0,0
2387,808,8097,458,0,0,0,0,0
2388,806,8107,466,0,0,0,0,0
2389,813,8112,476,0,0,0,0,0
2390,807,8107,472,0,0,0,0,0
2391,799,8106,468,0,0,0,0,0
2392,807,8104,480,0,0,0,0,0
2393,813,8106,471,0,0,0,0,0
2394,812,8108,472,0,0,0,0,0
2395,813,8114,473,0,0,0,0,0
2396,807,8104,478,0,0,0,0,0
2397,812,8112,477,0,0,0,0,0
2398,808,8106,470,0,0,0,0,0
2399,807,8093,474,0,0,0,0,0
2400,808,8109,470,0,0,0,0,0
2401,812,8102,476,0,0,0,0,0
2402,800,8108,474,0,0,0,0,0
2403,802,8104,475,0,0,0,0,0
2404,808,8105,466,0,0,0,0,0
2405,808,8104,466,0,0,0,0,0
2406,816,8104,475,0,0,0,0,0
2407,805,8099,472,0,0,0,0,0
2408,808,8110,467,0,0,0,0,0
2409,810,8109,475,0,0,0,0,0
2410,810,8107,481,0,0,0,0,0
2411,806,8107,470,0,0,0,0,0
2412,809,8105,468,0,0,0,0,0
2413,811,8106,477,0,0,0,0,0
2414,801,8106,474,0,0,0,0,0
2415,806,8100,466,0,0,0,0,0
2416,804,8102,463,0,0,0,0,0
2417,808,8105,477,0,0,0,0,0
2418,804,8103,456,0,0,0,0,0
2419,808,8109,456,0,0,0,0,0
2420,811,8104,490,0,0,0,0,0
2421,813,8118,469,0,0,0,0,0
2422,820,8097,464,0,0,0,0,0
2423,806,8094,469,0,0,0,0,0
2424,820,8105,483,0,0,0,0,0
2425,803,8108,465,0,0,0,0,0
2426,818,8104,467,0,0,0,0,0
2427,826,8098,447,0,0,0,0,0
2428,807,8103,466,0,0,0,0,0
2429,802,8122,486,0,0,0,0,0
2430,814,8086,469,0,0,0,0,0
2431,789,8108,469,0,0,0,0,0
2432,802,8104,492,0,0,0,0,0
2433,810,8123,462,0,0,0,0,0
2434,805,8096,472,0,0,0,0,0
2435,801,8072,490,0,0,0,0,0
2436,821,8162,402,0,0,0,0,0
2437,812,8108,462,0,0,0,0,0
2438,809,8100,529,0,0,0,0,0
2439,798,8135,418,0,0,0,0,0
2440,812,8088,479,0,0,0,0,0
2441,790,8096,486,1,0,0,0,0
2442,823,8124,446,0,0,0,0,0
2443,788,8113,455,0,0,0,0,0
2444,814,8084,524,0,0,0,0,0
2445,797,8114,474,0,0,0,0,0
2446,808,8114,465,0,0,0,0,0
2447,810,8102,465,0,0,0,0,0
2448,804,8102,492,0,0,0,0,0
2449,796,8118,478,0,0,0,0,0
2450,809,8097,461,0,0,0,0,0
2451,799,8108,474,0,0,0,0,0
2452,804,8120,485,0,0,0,0,0
2453,816,8102,476,0,0,0,0,0
2454,803,8099,470,0,0,0,0,0
2455,803,8113,504,0,0,0,0,0
2456,817,8110,475,0,0,0,0,0
2457,802,8113,460,0,0,0,0,0
2458,788,8105,469,0,0,0,0,0
2459,816,8105,472,0,0,0,0,0
2460,820,8108,466,0,0,0,0,0
2461,799,8098,474,0,0,0,0,0
2462,810,8114,472,0,0,0,0,0
2463,816,8114,467,0,0,0,0,0
2464,810,8095,469,0,0,0,0,0
2465,808,8110,479,0,0,0,0,0
2466,813,8104,470,0,0,0,0,0
2467,809,8105,472,0,0,0,0,0
2468,810,8102,483,0,0,0,0,0
2469,805,8109,476,0,0,0,0,0
2470,812,8110,462,0,0,0,0,0
2471,814,8103,470,0,0,0,0,0
2472,816,8108,471,0,0,0,0,0
2473,808,8111,478,0,0,0,0,0
2474,809,8121,474,0,0,0,0,0
2475,801,8101,478,0,0,0,0,0
2476,822,8108,473,0,0,0,0,0
2477,830,8120,484,0,0,0,0,0
2478,786,8087,478,0,0,0,0,0
2479,804,8114,482,0,0,0,0,0
2480,820,8120,497,0,0,0,0,0
2481,792,8084,461,0,0,0,0,0
2482,804,8120,495,0,0,0,0,0
2483,817,8116,483,0,0,0,0,0
2484,803,8107,460,0,0,0,0,0
2485,801,8094,485,0,0,0,0,0
2486,805,8105,469,0,0,0,0,0
2487,808,8127,478,0,0,0,0,0
2488,812,8081,447,0,0,0,0,0
2489,812,8121,465,0,0,0,0,0
2490,799,8100,458,0,0,0,0,0
2491,816,8116,487,0,0,0,0,0
2492,808,8111,472,0,0,0,0,0
2493,791,8104,468,0,0,0,0,0
2494,804,8105,466,0,0,0,0,0
2495,875,8144,316,0,0,0,0,0
2496,910,8111,656,0,0,0,0,0
2497,760,7986,440,0,0,0,0,0
2498,734,8116,425,0,0,0,0,0
2499,880,8204,513,0,0,0,0,0
2500,797,8102,488,0,0,0,0,0
2501,802,8044,446,0,0,0,0,0
2502,806,8143,455,0,0,0,0,0
2503,814,8102,458,0,0,0,0,0
2504,797,8076,500,0,0,0,0,0
2505,805,8114,444,0,0,0,0,0
2506,805,8122,459,0,0,0,0,0
2507,794,8108,473,0,0,0,0,0
2508,833,8108,481,0,0,0,0,0
2509,810,8110,444,0,0,0,0,0
2510,797,8097,486,0,0,0,0,0
2511,797,8112,462,0,0,0,0,0
2512,856,8110,495,0,0,0,0,0
2513,786,8101,439,0,0,0,0,0
2514,800,8092,468,0,0,0,0,0
2515,805,8106,450,0,0,0,0,0
2516,816,8108,494,0,0,0,0,0
2517,798,8101,478,0,0,0,0,0
2518,815,8099,467,0,0,0,0,0
2519,814,8102,422,0,0,0,0,0
2520,823,8092,456,0,0,0,0,0
2521,804,8094,471,0,0,0,0,0
2522,815,8116,452,0,0,0,0,0
2523,812,8102,476,0,0,0,0,0
2524,817,8092,475,0,0,0,0,0
2525,793,8118,474,0,0,0,0,0
2526,811,8110,472,0,0,0,0,0
2527,811,8093,460,0,0,0,0,0
2528,824,8114,479,0,0,0,0,0
2529,800,8111,468,0,0,0,0,0
2530,808,8104,464,0,0,0,0,0
2531,810,8114,461,0,0,0,0,0
2532,805,8104,476,0,0,0,0,0
2533,810,8105,474,0,0,0,0,0
2534,808,8106,459,0,0,0,0,0
2535,812,8112,468,0,0,0,0,0
2536,806,8094,481,0,0,0,0,0
2537,814,8112,467,0,0,0,0,0
2538,813,8104,456,0,0,0,0,0
2539,814,8106,474,0,0,0,0,0
2540,802,8110,465,0,0,0,0,0
2541,812,8103,470,0,0,0,0,0
2542,804,8104,461,0,0,0,0,0
2543,811,8118,477,0,0,0,0,0
2544,810,8102,474,0,0,0,0,0
2545,810,8105,473,0,0,0,0,0
2546,812,8109,474,0,0,0,0,0
2547,812,8102,474,0,0,0,0,0
2548,814,8110,472,0,0,0,0,0
2549,810,8102,442,0,0,0,0,0
2550,812,8110,474,0,0,0,0,0
2551,804,8100,468,0,0,0,0,0
2552,816,8118,471,0,0,0,0,0
2553,813,8103,470,0,0,0,0,0
2554,807,8101,483,0,0,0,0,0
2555,820,8109,461,0,0,0,0,0
2556,809,8109,468,0,0,0,0,0
2557,806,8100,468,0,0,0,0,0
2558,808,8109,464,0,0,0,0,0
2559,810,8103,485,0,0,0,0,0
2560,803,8099,467,0,0,0,0,0
2561,812,8111,478,0,0,0,0,0
2562,798,8110,482,0,0,0,0,0
2563,810,8108,472,0,0,0,0,0
2564,826,8103,457,0,0,0,0,0
2565,812,8108,466,1,0,0,0,0
2566,817,8107,476,0,0,0,0,0
2567,808,8095,456,0,0,0,0,0
2568,819,8116,483,0,0,0,0,0
2569,808,8107,466,0,0,0,0,0
2570,814,8097,482,0,0,0,0,0
2571,810,8112,468,0,0,0,0,0
2572,814,8111,461,0,0,0,0,0
2573,806,8107,454,0,0,0,0,0
2574,809,8110,468,0,0,0,0,0
2575,811,8112,478,0,0,0,0,0
2576,799,8100,468,0,0,0,0,0
2577,811,8112,466,0,0,0,0,0
2578,808,8106,459,0,0,0,0,0
2579,811,8110,472,0,0,0,0,0
2580,806,8103,458,0,0,0,0,0
2581,810,8110,474,0,0,0,0,0
2582,810,8104,460,0,0,0,0,0
2583,812,8107,473,0,0,0,0,0
2584,814,8108,461,0,0,0,0,0
2585,815,8104,478,0,0,0,0,0
2586,797,8102,462,0,0,0,0,0
2587,820,8108,474,0,0,0,0,0
2588,826,8103,475,0,0,0,0,0
2589,814,8113,473,0,0,0,0,0
2590,809,8107,471,0,0,0,0,0
2591,820,8109,473,0,0,0,0,0
2592,815,8117,483,0,0,0,0,0
2593,806,8108,442,0,0,0,0,0
2594,804,8118,494,1,0,0,0,0
2595,796,8100,473,0,0,0,0,0
2596,808,8118,480,0,0,0,0,0
2597,813,8099,466,0,0,0,0,0
2598,810,8102,479,0,0,0,0,0
2599,812,8104,473,0,0,0,0,0
2600,805,8103,470,0,0,0,0,0
2601,814,8105,466,0,0,0,0,0
2602,810,8106,478,0,0,0,0,0
2603,814,8104,463,0,0,0,0,0
2604,804,8106,466,0,0,0,0,0
2605,816,8100,477,0,0,0,0,0
2606,808,8112,458,0,0,0,0,0
2607,815,8105,473,0,0,0,0,0
2608,804,8106,471,0,0,0,0,0
2609,810,8108,466,0,0,0,0,0
2610,813,8109,466,0,0,0,0,0
2611,805,8112,470,0,0,0,0,0
2612,809,8103,474,0,0,0,0,0
2613,808,8108,476,0,0,0,0,0
2614,810,8111,465,0,0,0,0,0
2615,810,8106,473,0,0,0,0,0
2616,813,8105,470,0,0,0,0,0
2617,810,8105,457,0,0,0,0,0
2618,811,8111,476,0,0,0,0,0
2619,814,8111,466,0,0,0,0,0
2620,802,8113,467,0,0,0,0,0
2621,814,8096,442,0,0,0,0,0
2622,809,8106,467,0,0,0,0,0
2623,811,8107,460,0,0,0,0,0
2624,816,8104,464,0,0,0,0,0
2625,812,8100,465,0,0,0,0,0
2626,810,8108,472,0,0,0,0,0
2627,808,8106,462,0,0,0,0,0
2628,799,8106,474,0,0,0,0,0
2629,813,8105,489,0,0,0,0,0
2630,809,8103,459,0,0,0,0,0
2631,816,8110,481,0,0,0,0,0
2632,812,8102,459,0,0,0,0,0
2633,813,8105,477,0,0,0,0,0
2634,812,8106,471,0,0,0,0,0
2635,810,8109,458,0,0,0,0,0
2636,805,8104,472,0,0,0,0,0
2637,813,8118,488,0,0,0,0,0
2638,806,8112,463,0,0,0,0,0
2639,809,8105,466,0,0,0,0,0
2640,812,8098,465,0,0,0,0,0
2641,808,8107,474,0,0,0,0,0
2642,806,8110,456,0,0,0,0,0
2643,812,8106,466,0,0,0,0,0
2644,808,8106,480,0,0,0,0,0
2645,813,8112,475,0,0,0,0,0
2646,802,8110,460,0,0,0,0,0
2647,809,8105,481,0,0,0,0,0
2648,805,8110,464,0,0,0,0,0
2649,806,8099,453,0,0,0,0,0
2650,810,8111,476,0,0,0,0,0
2651,800,8094,465,0,0,0,0,0
2652,822,8112,466,0,0,0,0,0
2653,801,8112,459,0,0,0,0,0
2654,818,8109,486,0,0,0,0,0
2655,807,8104,452,0,0,0,0,0
2656,801,8105,476,0,0,0,0,0
2657,812,8103,468,0,0,0,0,0
2658,804,8110,452,0,0,0,0,0
2659,796,8104,466,0,0,0,0,0
2660,811,8103,476,0,0,0,0,0
2661,822,8112,458,0,0,0,0,0
2662,806,8096,456,0,0,0,0,0
2663,811,8112,480,0,0,0,0,0
2664,808,8104,464,0,0,0,0,0
2665,820,8098,460,0,0,0,0,0
2666,818,8115,470,0,0,0,0,0
2667,806,8106,470,0,0,0,0,0
2668,808,8108,467,0,0,0,0,0
2669,812,8111,472,0,0,0,0,0
2670,817,8110,466,0,0,0,0,0
2671,798,8101,468,0,0,0,0,0
2672,802,8110,466,0,0,0,0,0
2673,814,8110,462,0,0,0,0,0
2674,814,8106,479,0,0,0,0,0
2675,805,8118,460,0,0,0,0,0
2676,803,8108,472,0,0,0,0,0
2677,815,8108,472,0,0,0,0,0
2678,802,8109,468,0,0,0,0,0
2679,806,8111,470,0,0,0,0,0
2680,805,8102,472,0,0,0,0,0
2681,816,8115,454,0,0,0,0,0
2682,818,8120,488,1,0,0,0,0
2683,807,8111,473,0,0,0,0,0
2684,811,8108,477,0,0,0,0,0
2685,812,8112,474,0,0,0,0,0
2686,817,8104,470,0,0,0,0,0
2687,810,8107,466,0,0,0,0,0
2688,808,8100,458,0,0,0,0,0
2689,822,8105,469,0,0,0,0,0
2690,805,8105,466,0,0,0,0,0
2691,807,8123,496,1,0,0,0,0
2692,822,8106,484,0,0,0,0,0
2693,819,8116,487,0,0,0,0,0
2694,814,8097,477,0,0,0,0,0
2695,810,8153,501,0,0,0,0,0
2696,797,8098,441,0,0,0,0,0
2697,810,8123,484,0,0,0,0,0
2698,809,8098,464,0,0,0,0,0
2699,804,8108,464,0,0,0,0,0
2700,824,8108,483,0,0,0,0,0
2701,812,8096,470,0,0,0,0,0
2702,798,8100,462,0,0,0,0,0
2703,804,8112,464,0,0,0,0,0
2704,817,8106,476,0,0,0,0,0
2705,810,8096,460,0,0,0,0,0
2706,806,8107,464,0,0,0,0,0
2707,812,8113,473,0,0,0,0,0
2708,809,8108,472,0,0,0,0,0
2709,798,8099,472,0,0,0,0,0
2710,820,8101,471,0,0,0,0,0
2711,811,8109,475,0,0,0,0,0
2712,866,8203,688,0,0,0,0,0
2713,777,8050,516,0,0,0,0,0
2714,766,8113,462,0,0,0,0,0
2715,854,8168,477,0,0,0,0,0
2716,767,8065,434,0,0,0,0,0
2717,809,8092,452,0,0,0,0,0
2718,809,8056,460,0,0,0,0,0
2719,832,8123,508,0,0,0,0,0
2720,807,8143,448,0,0,0,0,0
2721,813,8079,449,0,0,0,0,0
2722,819,8101,497,1,0,0,0,0
2723,782,8104,448,1,0,0,0,0
2724,820,8114,495,0,0,0,0,0
2725,854,8115,453,0,0,0,0,0
2726,753,8043,462,0,0,0,0,0
2727,748,8113,424,0,0,0,0,0
2728,868,8128,494,0,0,0,0,0
2729,859,8081,499,0,0,0,0,0
2730,746,8112,426,0,0,0,0,0
2731,771,8126,440,0,0,0,0,0
2732,870,8122,530,0,0,0,0,0
2733,782,8100,460,0,0,0,0,0
2734,753,8063,408,0,0,0,0,0
2735,834,8149,531,0,0,0,0,0
2736,836,8102,494,0,0,0,0,0
2737,811,8105,419,0,0,0,0,0
2738,810,8132,457,0,0,0,0,0
2739,792,8135,508,0,0,0,0,0
2740,819,8066,379,0,0,0,0,0
2741,833,8118,517,0,0,0,0,0
2742,788,8125,517,0,0,0,0,0
2743,817,8092,428,0,0,0,0,0
2744,833,8091,438,0,0,0,0,0
2745,802,8142,499,0,0,0,0,0
2746,792,8090,467,0,0,0,0,0
2747,825,8111,436,0,0,0,0,0
2748,814,8114,501,0,0,0,0,0
2749,798,8118,494,0,0,0,0,0
2750,811,8108,448,0,0,0,0,0
2751,828,8100,442,0,0,0,0,0
2752,777,8081,487,0,0,0,0,0
2753,829,8142,477,0,0,0,0,0
2754,819,8078,431,0,0,0,0,0
2755,793,8086,490,0,0,0,0,0
2756,784,8128,475,1,0,0,0,0
2757,814,8101,428,0,0,0,0,0
2758,825,8094,450,0,0,0,0,0
2759,780,8105,517,0,0,0,0,0
2760,812,8124,470,0,0,0,0,0
2761,808,8089,441,0,0,0,0,0
2762,804,8090,458,0,0,0,0,0
2763,802,8114,446,0,0,0,0,0
2764,824,8092,486,0,0,0,0,0
2765,814,8111,463,0,0,0,0,0
2766,812,8116,463,0,0,0,0,0
2767,809,8113,464,0,0,0,0,0
2768,821,8104,474,0,0,0,0,0
2769,816,8105,475,0,0,0,0,0
2770,802,8110,457,0,0,0,0,0
2771,813,8103,470,0,0,0,0,0
2772,818,8112,482,0,0,0,0,0
2773,812,8105,435,0,0,0,0,0
2774,829,8106,531,0,0,0,0,0
2775,806,8084,412,0,0,0,0,0
2776,792,8108,422,0,0,0,0,0
2777,827,8112,521,0,0,0,0,0
2778,831,8122,501,0,0,0,0,0
2779,795,8090,415,0,0,0,0,0
2780,814,8107,450,0,0,0,0,0
2781,826,8136,540,0,0,0,0,0
2782,807,8112,444,0,0,0,0,0
2783,792,8096,423,0,0,0,0,0
2784,819,8112,476,0,0,0,0,0
2785,822,8122,512,0,0,0,0,0
2786,804,8102,433,0,0,0,0,0
2787,798,8101,442,0,0,0,0,0
2788,818,8104,495,0,0,0,0,0
2789,820,8114,493,0,0,0,0,0
2790,802,8116,438,0,0,0,0,0
2791,806,8101,454,0,0,0,0,0
2792,817,8116,477,0,0,0,0,0
2793,807,8110,501,0,0,0,0,0
2794,813,8116,461,0,0,0,0,0
2795,806,8104,466,0,0,0,0,0
2796,814,8110,486,0,0,0,0,0
2797,821,8101,458,0,0,0,0,0
2798,804,8106,463,0,0,0,0,0
2799,809,8104,486,0,0,0,0,0
2800,808,8107,459,0,0,0,0,0
2801,800,8098,456,0,0,0,0,0
2802,809,8110,472,0,0,0,0,0
2803,818,8105,482,0,0,0,0,0
2804,802,8111,470,0,0,0,0,0
2805,816,8116,466,0,0,0,0,0
2806,817,8114,474,0,0,0,0,0
2807,800,8112,462,0,0,0,0,0
2808,816,8109,472,0,0,0,0,0
2809,816,8111,464,0,0,0,0,0
2810,817,8107,456,0,0,0,0,0
2811,802,8113,474,0,0,0,0,0
2812,807,8109,462,0,0,0,0,0
2813,816,8111,469,0,0,0,0,0
2814,816,8118,468,0,0,0,0,0
2815,806,8111,470,0,0,0,0,0
2816,817,8100,461,0,0,0,0,0
2817,811,8122,509,1,0,0,0,0
2818,808,8112,494,0,0,0,0,0
2819,813,8105,471,1,0,0,0,0
2820,812,8096,454,0,0,0,0,0
2821,799,8110,464,0,0,0,0,0
2822,812,8105,466,0,0,0,0,0
2823,808,8108,470,0,0,0,0,0
2824,808,8112,478,0,0,0,0,0
2825,817,8112,460,0,0,0,0,0
2826,809,8106,462,0,0,0,0,0
2827,812,8116,486,0,0,0,0,0
2828,814,8098,492,0,0,0,0,0
2829,816,8106,490,0,0,0,0,0
2830,798,8107,452,0,0,0,0,0
2831,822,8096,462,0,0,0,0,0
2832,810,8119,472,0,0,0,0,0
2833,808,8095,466,0,0,0,0,0
2834,816,8108,475,0,0,0,0,0
2835,814,8108,456,0,0,0,0,0
2836,812,8110,476,0,0,0,0,0
2837,810,8104,442,0,0,0,0,0
2838,808,8110,474,1,0,0,0,0
2839,810,8120,504,0,0,0,0,0
2840,946,8194,609,0,0,0,0,0
2841,769,8263,816,0,0,0,0,0
2842,822,8077,417,0,0,0,0,0
2843,864,8063,377,0,0,0,0,0
2844,814,8130,543,0,0,0,0,0
2845,802,8116,453,0,0,0,0,0
2846,811,8116,495,0,0,0,0,0
2847,820,8128,517,0,0,0,0,0
2848,796,8155,458,0,0,0,0,0
2849,812,8128,480,0,0,0,0,0
2850,765,8076,479,0,0,0,0,0
2851,839,8081,438,0,0,0,0,0
2852,818,8133,447,0,0,0,0,0
2853,874,8090,525,0,0,0,0,0
2854,718,8140,372,0,0,0,0,0
2855,850,8157,462,0,0,0,0,0
2856,836,8078,406,0,0,0,0,0
2857,731,8076,462,0,0,0,0,0
2858,846,8156,457,0,0,0,0,0
2859,795,8108,439,0,0,0,0,0
2860,823,8082,488,0,0,0,0,0
2861,800,8124,482,0,0,0,0,0
2862,821,8111,482,0,0,0,0,0
2863,794,8096,447,0,0,0,0,0
2864,824,8122,466,0,0,0,0,0
2865,794,8103,480,0,0,0,0,0
2866,824,8112,464,0,0,0,0,0
2867,808,8126,446,0,0,0,0,0
2868,814,8101,488,0,0,0,0,0
2869,800,8097,479,0,0,0,0,0
2870,805,8120,456,0,0,0,0,0
2871,819,8106,454,0,0,0,0,0
2872,824,8109,494,0,0,0,0,0
2873,805,8125,462,1,0,0,0,0
2874,808,8102,467,0,0,0,0,0
2875,828,8096,472,0,0,0,0,0
2876,821,8108,469,0,0,0,0,0
2877,813,8117,477,0,0,0,0,0
2878,802,8087,459,0,0,0,0,0
2879,819,8100,484,0,0,0,0,0
2880,821,8127,488,0,0,0,0,0
2881,812,8128,481,0,0,0,0,0
2882,819,8101,505,0,0,0,0,0
2883,810,8119,476,0,0,0,0,0
2884,807,8097,449,0,0,0,0,0
2885,811,8119,459,0,0,0,0,0
2886,815,8113,474,0,0,0,0,0
2887,812,8100,479,0,0,0,0,0
2888,811,8122,503,0,0,0,0,0
2889,814,8104,455,0,0,0,0,0
2890,809,8109,466,0,0,0,0,0
2891,804,8096,442,0,0,0,0,0
2892,808,8109,474,0,0,0,0,0
2893,808,8106,449,0,0,0,0,0
2894,814,8098,455,0,0,0,0,0
2895,808,8116,465,0,0,0,0,0
2896,807,8104,470,0,0,0,0,0
2897,816,8105,463,0,0,0,0,0
2898,809,8107,457,0,0,0,0,0
2899,807,8111,462,0,0,0,0,0
2900,804,8096,466,0,0,0,0,0
2901,807,8112,456,0,0,0,0,0
2902,817,8110,467,0,0,0,0,0
2903,806,8104,464,0,0,0,0,0
2904,814,8102,452,0,0,0,0,0
2905,813,8116,472,0,0,0,0,0
2906,815,8106,462,0,0,0,0,0
2907,812,8110,468,0,0,0,0,0
2908,818,8104,470,0,0,0,0,0
2909,812,8110,461,0,0,0,0,0
2910,817,8108,467,0,0,0,0,0
2911,819,8112,466,0,0,0,0,0
2912,811,8102,465,0,0,0,0,0
2913,812,8099,425,0,0,0,0,0
2914,806,8094,473,0,0,0,0,0
2915,810,8102,474,0,0,0,0,0
2916,807,8110,450,0,0,0,0,0
2917,816,8108,471,0,0,0,0,0
2918,815,8104,476,0,0,0,0,0
2919,814,8106,460,0,0,0,0,0
2920,820,8114,468,0,0,0,0,0
2921,813,8104,475,0,0,0,0,0
2922,810,8106,473,1,0,0,0,0
2923,810,8107,458,0,0,0,0,0
2924,807,8098,474,1,0,0,0,0
2925,832,8132,482,0,0,0,0,0
2926,802,8090,434,1,0,0,0,0
2927,784,8088,446,0,0,0,0,0
2928,816,8127,465,0,0,0,0,0
2929,820,8118,487,0,0,0,0,0
2930,808,8097,460,0,0,0,0,0
2931,814,8103,457,0,0,0,0,0
2932,820,8109,472,0,0,0,0,0
2933,812,8106,472,0,0,0,0,0
2934,798,8098,456,0,0,0,0,0
2935,804,8104,460,0,0,0,0,0
2936,820,8109,474,0,0,0,0,0
2937,822,8106,473,0,0,0,0,0
2938,809,8100,456,0,0,0,0,0
2939,811,8117,472,0,0,0,0,0
2940,814,8121,484,0,0,0,0,0
2941,809,8049,485,0,0,0,0,0
2942,840,8136,457,0,0,0,0,0
2943,780,8040,458,0,0,0,0,0
2944,812,8146,474,0,0,0,0,0
2945,812,8095,459,0,0,0,0,0
2946,808,8100,460,0,0,0,0,0
2947,822,8114,483,0,0,0,0,0
2948,813,8108,468,0,0,0,0,0
2949,804,8086,463,0,0,0,0,0
2950,810,8116,468,0,0,0,0,0
2951,821,8116,472,0,0,0,0,0
2952,804,8099,472,0,0,0,0,0
2953,810,8099,464,0,0,0,0,0
2954,811,8116,474,0,0,0,0,0
2955,810,8108,481,0,0,0,0,0
2956,806,8106,468,0,0,0,0,0
2957,807,8110,461,0,0,0,0,0
2958,813,8104,462,0,0,0,0,0
2959,817,8094,475,0,0,0,0,0
2960,807,8098,474,0,0,0,0,0
2961,819,8110,472,0,0,0,0,0
2962,815,8101,468,0,0,0,0,0
2963,812,8114,484,1,0,0,0,0
2964,811,8097,479,0,0,0,0,0
2965,810,8105,474,0,0,0,0,0
2966,810,8108,480,0,0,0,0,0
2967,822,8110,468,0,0,0,0,0
2968,812,8098,463,0,0,0,0,0
2969,808,8112,468,0,0,0,0,0
2970,804,8110,485,0,0,0,0,0
2971,816,8102,474,0,0,0,0,0
2972,816,8108,476,0,0,0,0,0
2973,809,8108,472,0,0,0,0,0
2974,806,8107,477,0,0,0,0,0
2975,817,8100,458,0,0,0,0,0
2976,806,8104,474,0,0,0,0,0
2977,803,8111,474,0,0,0,0,0
2978,816,8114,468,0,0,0,0,0
2979,810,8098,466,0,0,0,0,0
2980,806,8116,475,1,0,0,0,0
2981,813,8112,483,0,0,0,0,0
2982,814,8109,459,0,0,0,0,0
2983,803,8106,468,0,0,0,0,0
2984,810,8108,478,0,0,0,0,0
2985,815,8108,471,0,0,0,0,0
2986,808,8109,464,0,0,0,0,0
2987,814,8109,461,0,0,0,0,0
2988,809,8106,484,0,0,0,0,0
2989,808,8102,432,0,0,0,0,0
2990,812,8110,536,0,0,0,0,0
2991,816,8120,478,0,0,0,0,0
2992,807,8112,479,0,0,0,0,0
2993,816,8130,569,0,0,0,0,0
2994,794,8080,418,0,0,0,0,0
2995,815,8140,544,0,0,0,0,0
2996,810,8095,464,0,0,0,0,0
2997,804,8113,496,0,0,0,0,0
2998,812,8119,496,0,0,0,0,0
2999,811,8102,447,0,0,0,0,0
3000,817,8103,478,0,0,0,0,0
3001,800,8107,459,0,0,0,0,0
3002,816,8114,476,0,0,0,0,0
3003,810,8102,453,0,0,0,0,0
3004,811,8107,479,0,0,0,0,0
3005,818,8116,487,0,0,0,0,0
3006,809,8107,462,0,0,0,0,0
3007,808,8099,486,0,0,0,0,0
3008,817,8108,456,0,0,0,0,0
3009,814,8103,486,0,0,0,0,0
3010,802,8095,460,0,0,0,0,0
3011,815,8115,456,0,0,0,0,0
3012,812,8103,464,0,0,0,0,0
3013,811,8113,478,0,0,0,0,0
3014,807,8105,466,1,0,0,0,0
3015,807,8112,472,0,0,0,0,0
3016,812,8101,456,0,0,0,0,0
3017,808,8106,474,0,0,0,0,0
3018,816,8106,467,0,0,0,0,0
3019,812,8110,482,0,0,0,0,0
3020,814,8102,472,0,0,0,0,0
3021,818,8104,474,0,0,0,0,0
3022,812,8107,466,0,0,0,0,0
3023,806,8105,473,0,0,0,0,0
3024,813,8111,473,0,0,0,0,0
3025,813,8104,478,0,0,0,0,0
3026,808,8105,468,0,0,0,0,0
3027,816,8116,460,0,0,0,0,0
3028,816,8103,474,0,0,0,0,0
3029,820,8113,474,0,0,0,0,0
3030,812,8108,467,0,0,0,0,0
3031,808,8110,470,0,0,0,0,0
3032,800,8112,482,0,0,0,0,0
3033,822,8105,475,0,0,0,0,0
3034,814,8112,467,0,0,0,0,0
3035,814,8094,463,0,0,0,0,0
3036,811,8114,491,0,0,0,0,0
3037,816,8095,447,0,0,0,0,0
3038,819,8107,458,0,0,0,0,0
3039,788,8111,480,0,0,0,0,0
3040,806,8129,547,0,0,0,0,0
3041,802,8090,433,0,0,0,0,0
3042,813,8113,506,0,0,0,0,0
3043,808,8113,456,0,0,0,0,0
3044,794,8103,460,0,0,0,0,0
3045,807,8111,462,0,0,0,0,0
3046,811,8113,464,0,0,0,0,0
3047,807,8104,460,0,0,0,0,0
3048,812,8130,520,0,0,0,0,0
3049,797,8110,504,0,0,0,0,0
3050,850,8124,414,0,0,0,0,0
3051,806,8018,221,0,0,0,0,0
3052,797,8141,642,0,0,0,0,0
3053,806,8096,390,0,0,0,0,0
3054,833,8142,511,0,0,0,0,0
3055,800,8112,459,0,0,0,0,0
3056,801,8107,458,0,0,0,0,0
3057,816,8106,442,0,0,0,0,0
3058,818,8107,466,0,0,0,0,0
3059,812,8102,460,0,0,0,0,0
3060,814,8116,475,0,0,0,0,0
3061,812,8111,466,1,0,0,0,0
3062,813,8099,472,0,0,0,0,0
3063,809,8103,472,0,0,0,0,0
3064,801,8104,474,0,0,0,0,0
3065,814,8105,464,0,0,0,0,0
3066,812,8099,472,0,0,0,0,0
3067,811,8114,472,0,0,0,0,0
3068,810,8108,476,0,0,0,0,0
3069,817,8104,474,0,0,0,0,0
3070,807,8108,476,0,0,0,0,0
3071,814,8102,476,0,0,0,0,0
3072,814,8107,471,0,0,0,0,0
3073,816,8106,469,0,0,0,0,0
3074,804,8109,467,0,0,0,0,0
3075,820,8104,470,0,0,0,0,0
3076,817,8115,464,0,0,0,0,0
3077,805,8111,469,0,0,0,0,0
3078,814,8106,466,0,0,0,0,0
3079,820,8109,475,0,0,0,0,0
3080,809,8108,464,0,0,0,0,0
3081,809,8104,471,0,0,0,0,0
3082,810,8097,469,0,0,0,0,0
3083,810,8110,469,0,0,0,0,0
3084,811,8112,473,0,0,0,0,0
3085,799,8103,468,0,0,0,0,0
3086,815,8108,481,0,0,0,0,0
3087,817,8108,476,0,0,0,0,0
3088,808,8105,472,0,0,0,0,0
3089,810,8105,463,0,0,0,0,0
3090,818,8101,478,0,0,0,0,0
3091,823,8105,447,0,0,0,0,0
3092,818,8102,448,0,0,0,0,0
3093,803,8104,468,0,0,0,0,0
3094,809,8120,483,0,0,0,0,0
3095,806,8104,475,0,0,0,0,0
3096,816,8101,464,0,0,0,0,0
3097,808,8107,484,0,0,0,0,0
3098,812,8109,478,0,0,0,0,0
3099,811,8104,471,0,0,0,0,0
3100,804,8116,483,0,0,0,0,0
3101,810,8098,460,0,0,0,0,0
3102,813,8105,473,0,0,0,0,0
3103,820,8118,472,0,0,0,0,0
3104,820,8095,475,0,0,0,0,0
3105,814,8112,466,0,0,0,0,0
3106,814,8110,479,0,0,0,0,0
3107,809,8105,471,0,0,0,0,0
3108,818,8103,472,0,0,0,0,0
3109,808,8104,456,0,0,0,0,0
3110,805,8096,491,0,0,0,0,0
3111,806,8095,487,0,0,0,0,0
3112,812,8114,440,0,0,0,0,0
3113,807,8104,454,0,0,0,0,0
3114,825,8102,498,0,0,0,0,0
3115,817,8108,477,0,0,0,0,0
3116,815,8094,457,0,0,0,0,0
3117,812,8100,478,0,0,0,0,0
3118,814,8129,475,0,0,0,0,0
3119,819,8106,468,0,0,0,0,0
3120,810,8094,464,0,0,0,0,0
3121,806,8114,475,0,0,0,0,0
3122,811,8102,475,0,0,0,0,0
3123,812,8108,474,0,0,0,0,0
3124,814,8106,464,0,0,0,0,0
3125,805,8098,480,0,0,0,0,0
3126,808,8107,469,0,0,0,0,0
3127,814,8114,469,0,0,0,0,0
3128,812,8103,470,0,0,0,0,0
3129,814,8114,466,0,0,0,0,0
3130,816,8104,473,0,0,0,0,0
3131,808,8088,453,0,0,0,0,0
3132,794,8084,426,0,0,0,0,0
3133,816,8096,457,0,0,0,0,0
3134,820,8122,481,0,0,0,0,0
3135,801,8077,460,0,0,0,0,0
3136,822,8109,484,0,0,0,0,0
3137,819,8106,466,0,0,0,0,0
3138,804,8105,456,0,0,0,0,0
3139,827,8107,500,0,0,0,0,0
3140,817,8104,491,0,0,0,0,0
3141,805,8107,456,0,0,0,0,0
3142,807,8092,454,0,0,0,0,0
3143,809,8110,492,0,0,0,0,0
3144,797,8104,470,0,0,0,0,0
3145,809,8102,440,0,0,0,0,0
3146,810,8111,476,0,0,0,0,0
3147,806,8104,487,0,0,0,0,0
3148,794,8107,448,0,0,0,0,0
3149,810,8100,455,0,0,0,0,0
3150,817,8108,472,0,0,0,0,0
3151,806,8097,499,0,0,0,0,0
3152,824,8186,482,0,0,0,0,0
3153,806,8114,510,0,0,0,0,0
3154,816,8082,486,0,0,0,0,0
3155,817,8138,441,0,0,0,0,0
3156,796,8086,425,0,0,0,0,0
3157,826,8102,495,0,0,0,0,0
3158,788,8165,507,0,0,0,0,0
3159,819,8114,427,0,0,0,0,0
3160,824,8109,485,0,0,0,0,0
3161,792,8116,502,0,0,0,0,0
3162,827,8101,468,0,0,0,0,0
3163,819,8102,433,0,0,0,0,0
3164,806,8126,505,0,0,0,0,0
3165,804,8101,481,0,0,0,0,0
3166,820,8114,453,0,0,0,0,0
3167,797,8123,476,0,0,0,0,0
3168,819,8092,460,0,0,0,0,0
3169,803,8109,474,0,0,0,0,0
3170,796,8115,454,0,0,0,0,0
3171,818,8100,458,0,0,0,0,0
3172,818,8110,474,0,0,0,0,0
3173,810,8106,504,0,0,0,0,0
3174,808,8112,452,0,0,0,0,0
3175,817,8104,460,0,0,0,0,0
3176,796,8101,464,1,0,0,0,0
3177,810,8109,484,0,0,0,0,0
3178,816,8107,459,0,0,0,0,0
3179,814,8111,468,0,0,0,0,0
3180,803,8105,472,0,0,0,0,0
3181,817,8102,473,0,0,0,0,0
3182,794,8084,492,0,0,0,0,0
3183,820,8153,576,0,0,0,0,0
3184,810,8105,414,0,0,0,0,0
3185,818,8116,472,0,0,0,0,0
3186,807,8117,492,0,0,0,0,0
3187,816,8099,478,0,0,0,0,0
3188,809,8104,459,0,0,0,0,0
3189,809,8124,471,0,0,0,0,0
3190,814,8102,469,0,0,0,0,0
3191,814,8100,459,0,0,0,0,0
3192,801,8113,467,0,0,0,0,0
3193,814,8125,468,0,0,0,0,0
3194,813,8104,460,0,0,0,0,0
3195,799,8088,470,0,0,0,0,0
3196,814,8117,467,0,0,0,0,0
3197,814,8104,460,0,0,0,0,0
3198,810,8102,470,0,0,0,0,0
3199,804,8109,476,0,0,0,0,0
3200,808,8109,458,0,0,0,0,0
3201,805,8092,474,0,0,0,0,0
3202,800,8104,473,0,0,0,0,0
3203,814,8108,465,0,0,0,0,0
3204,817,8105,455,0,0,0,0,0
3205,814,8106,466,0,0,0,0,0
3206,808,8104,474,0,0,0,0,0
3207,811,8106,456,0,0,0,0,0
3208,816,8114,472,0,0,0,0,0
3209,808,8111,479,0,0,0,0,0
3210,807,8095,466,0,0,0,0,0
3211,804,8098,444,0,0,0,0,0
3212,808,8120,470,0,0,0,0,0
3213,806,8065,472,0,0,0,0,0
3214,811,8128,466,0,0,0,0,0
3215,820,8132,466,0,0,0,0,0
3216,810,8081,470,0,0,0,0,0
3217,808,8106,477,0,0,0,0,0
3218,806,8095,451,0,0,0,0,0
3219,810,8109,452,0,0,0,0,0
3220,822,8127,478,0,0,0,0,0
3221,810,8104,451,0,0,0,0,0
3222,811,8090,460,0,0,0,0,0
3223,820,8108,471,0,0,0,0,0
3224,804,8105,474,0,0,0,0,0
3225,806,8099,436,0,0,0,0,0
3226,809,8108,470,0,0,0,0,0
3227,806,8108,484,0,0,0,0,0
3228,806,8108,469,0,0,0,0,0
3229,826,8111,454,0,0,0,0,0
3230,811,8107,476,0,0,0,0,0
3231,808,8105,484,0,0,0,0,0
3232,805,8112,440,0,0,0,0,0
3233,810,8110,482,0,0,0,0,0
3234,806,8106,460,0,0,0,0,0
3235,817,8101,464,0,0,0,0,0
3236,811,8108,482,0,0,0,0,0
3237,808,8097,458,0,0,0,0,0
3238,815,8107,472,0,0,0,0,0
3239,816,8108,490,0,0,0,0,0
3240,806,8112,461,0,0,0,0,0
3241,811,8102,460,0,0,0,0,0
3242,807,8110,472,0,0,0,0,0
3243,818,8114,475,0,0,0,0,0
3244,810,8106,451,0,0,0,0,0
3245,809,8099,480,0,0,0,0,0
3246,814,8104,474,1,0,0,0,0
3247,811,8112,463,0,0,0,0,0
3248,803,8098,468,0,0,0,0,0
3249,822,8107,478,0,0,0,0,0
3250,814,8102,467,1,0,0,0,0
3251,800,8102,466,0,0,0,0,0
3252,802,8114,459,0,0,0,0,0
3253,818,8106,472,0,0,0,0,0
3254,818,8092,472,0,0,0,0,0
3255,806,8116,468,0,0,0,0,0
3256,816,8106,472,0,0,0,0,0
3257,806,8111,460,0,0,0,0,0
3258,819,8109,460,0,0,0,0,0
3259,828,8098,471,0,0,0,0,0
3260,800,8118,460,0,0,0,0,0
3261,801,8110,454,0,0,0,0,0
3262,816,8095,455,0,0,0,0,0
3263,797,8093,456,0,0,0,0,0
3264,812,8110,469,0,0,0,0,0
3265,816,8113,482,0,0,0,0,0
3266,799,8105,467,0,0,0,0,0
3267,801,8107,463,0,0,0,0,0
3268,810,8115,480,0,0,0,0,0
3269,818,8098,466,0,0,0,0,0
3270,803,8104,459,0,0,0,0,0
3271,804,8124,471,0,0,0,0,0
3272,806,8099,465,0,0,0,0,0
3273,832,8119,460,0,0,0,0,0
3274,820,8126,489,0,0,0,0,0
3275,807,8096,464,0,0,0,0,0
3276,808,8090,470,0,0,0,0,0
3277,818,8111,486,0,0,0,0,0
3278,804,8121,457,0,0,0,0,0
3279,812,8103,454,0,0,0,0,0
3280,806,8100,466,0,0,0,0,0
3281,812,8114,470,0,0,0,0,0
3282,808,8112,457,0,0,0,0,0
3283,806,8100,474,0,0,0,0,0
3284,813,8094,472,0,0,0,0,0
3285,801,8112,470,0,0,0,0,0
3286,803,8114,456,0,0,0,0,0
3287,817,8105,482,0,0,0,0,0
3288,806,8115,461,1,0,0,0,0
3289,808,8112,468,0,0,0,0,0
3290,803,8106,461,0,0,0,0,0
3291,830,8113,473,0,0,0,0,0
3292,821,8126,462,0,0,0,0,0
3293,800,8095,463,0,0,0,0,0
3294,810,8112,471,0,0,0,0,0
3295,815,8109,480,0,0,0,0,0
3296,811,8105,449,0,0,0,0,0
3297,812,8108,469,0,0,0,0,0
3298,812,8101,462,0,0,0,0,0
3299,810,8106,452,0,0,0,0,0
3300,799,8094,466,0,0,0,0,0
3301,815,8120,470,0,0,0,0,0
3302,816,8109,472,0,0,0,0,0
3303,811,8107,466,0,0,0,0,0
3304,802,8112,472,0,0,0,0,0
3305,820,8111,482,0,0,0,0,0
3306,813,8100,462,0,0,0,0,0
3307,808,8107,470,0,0,0,0,0
3308,803,8100,463,0,0,0,0,0
3309,810,8102,463,0,0,0,0,0
3310,809,8106,455,0,0,0,0,0
3311,814,8106,466,0,0,0,0,0
3312,809,8099,464,0,0,0,0,0
3313,804,8119,478,0,0,0,0,0
3314,809,8100,462,0,0,0,0,0
3315,814,8108,473,0,0,0,0,0
3316,812,8108,465,0,0,0,0,0
3317,813,8110,475,0,0,0,0,0
3318,798,8102,460,0,0,0,0,0
3319,812,8109,465,0,0,0,0,0
3320,811,8102,470,0,0,0,0,0
3321,814,8115,475,0,0,0,0,0
3322,812,8110,476,0,0,0,0,0
3323,814,8112,474,0,0,0,0,0
3324,815,8108,471,0,0,0,0,0
3325,814,8106,468,0,0,0,0,0
3326,813,8112,462,0,0,0,0,0
3327,811,8092,465,0,0,0,0,0
3328,818,8105,473,0,0,0,0,0
3329,804,8102,468,0,0,0,0,0
3330,808,8104,472,0,0,0,0,0
3331,809,8103,468,0,0,0,0,0
3332,815,8099,472,0,0,0,0,0
3333,807,8107,468,0,0,0,0,0
3334,805,8107,464,0,0,0,0,0
3335,810,8111,464,0,0,0,0,0
3336,815,8107,468,0,0,0,0,0
3337,804,8104,475,0,0,0,0,0
3338,815,8100,470,0,0,0,0,0
3339,810,8105,472,0,0,0,0,0
3340,807,8106,468,0,0,0,0,0
3341,813,8107,468,0,0,0,0,0
3342,809,8112,473,0,0,0,0,0
3343,817,8106,463,0,0,0,0,0
3344,809,8106,466,0,0,0,0,0
3345,810,8110,475,0,0,0,0,0
3346,812,8106,466,0,0,0,0,0
3347,805,8114,468,0,0,0,0,0
3348,808,8113,464,0,0,0,0,0
3349,805,8102,461,0,0,0,0,0
3350,814,8102,475,0,0,0,0,0
3351,802,8106,465,0,0,0,0,0
3352,810,8104,472,0,0,0,0,0
3353,811,8105,471,0,0,0,0,0
3354,804,8112,468,0,0,0,0,0
3355,810,8101,475,0,0,0,0,0
3356,810,8104,470,1,0,0,0,0
3357,808,8105,470,0,0,0,0,0
3358,807,8108,470,1,0,0,0,0
3359,811,8103,471,0,0,0,0,0
3360,802,8107,471,0,0,0,0,0
3361,805,8106,470,0,0,0,0,0
3362,806,8110,464,0,0,0,0,0
3363,802,8107,474,0,0,0,0,0
3364,812,8108,468,0,0,0,0,0
3365,813,8106,474,0,0,0,0,0
3366,806,8113,472,0,0,0,0,0
3367,810,8106,472,0,0,0,0,0
3368,814,8099,468,0,0,0,0,0
3369,809,8103,471,0,0,0,0,0
3370,812,8110,465,0,0,0,0,0
3371,816,8108,468,0,0,0,0,0
3372,814,8103,462,0,0,0,0,0
3373,812,8108,474,0,0,0,0,0
3374,812,8102,472,0,0,0,0,0
3375,804,8105,463,0,0,0,0,0
3376,810,8114,472,0,0,0,0,0
3377,809,8098,476,0,0,0,0,0
3378,815,8107,469,0,0,0,0,0
3379,814,8107,458,0,0,0,0,0
3380,807,8110,469,0,0,0,0,0
3381,811,8105,474,0,0,0,0,0
3382,806,8106,459,0,0,0,0,0
3383,816,8112,464,0,0,0,0,0
3384,815,8104,478,0,0,0,0,0
3385,808,8114,474,0,0,0,0,0
3386,813,8097,474,0,0,0,0,0
3387,808,8099,467,0,0,0,0,0
3388,814,8110,462,0,0,0,0,0
3389,814,8105,455,0,0,0,0,0
3390,812,8107,475,0,0,0,0,0
3391,808,8108,475,0,0,0,0,0
3392,808,8104,470,0,0,0,0,0
3393,808,8112,474,0,0,0,0,0
3394,809,8102,480,0,0,0,0,0
3395,810,8103,474,0,0,0,0,0
3396,811,8115,467,1,0,0,0,0
3397,814,8107,464,0,0,0,0,0
3398,814,8106,472,0,0,0,0,0
3399,803,8102,478,0,0,0,0,0
3400,811,8110,464,0,0,0,0,0
3401,807,8101,468,0,0,0,0,0
3402,814,8110,470,0,0,0,0,0
3403,811,8114,471,0,0,0,0,0
3404,807,8104,464,0,0,0,0,0
3405,821,8106,474,0,0,0,0,0
3406,808,8107,476,0,0,0,0,0
3407,808,8098,468,0,0,0,0,0
3408,810,8101,472,0,0,0,0,0
3409,808,8108,466,0,0,0,0,0
3410,809,8111,466,0,0,0,0,0
3411,812,8095,474,0,0,0,0,0
3412,808,8106,459,0,0,0,0,0
3413,813,8117,473,0,0,0,0,0
3414,824,8109,482,0,0,0,0,0
3415,803,8085,446,0,0,0,0,0
3416,804,8120,464,0,0,0,0,0
3417,819,8117,514,0,0,0,0,0
3418,821,8097,475,0,0,0,0,0
3419,794,8112,436,0,0,0,0,0
3420,808,8108,464,0,0,0,0,0
3421,835,8102,485,0,0,0,0,0
3422,804,8101,439,0,0,0,0,0
3423,799,8106,460,0,0,0,0,0
3424,825,8108,508,0,0,0,0,0
3425,822,8114,474,0,0,0,0,0
3426,798,8094,438,0,0,0,0,0
3427,810,8112,465,0,0,0,0,0
3428,821,8120,501,0,0,0,0,0
3429,806,8108,481,1,0,0,0,0
3430,802,8099,470,0,0,0,0,0
3431,818,8117,481,0,0,0,0,0
3432,807,8093,454,0,0,0,0,0
3433,788,8105,438,1,0,0,0,0
3434,804,8105,447,0,0,0,0,0
3435,825,8102,494,0,0,0,0,0
3436,812,8097,474,0,0,0,0,0
3437,812,8112,436,0,0,0,0,0
3438,828,8101,474,0,0,0,0,0
3439,797,8102,460,0,0,0,0,0
3440,810,8105,471,0,0,0,0,0
3441,802,8106,452,0,0,0,0,0
3442,808,8108,482,0,0,0,0,0
3443,814,8101,482,0,0,0,0,0
3444,817,8104,446,0,0,0,0,0
3445,807,8111,456,0,0,0,0,0
3446,809,8108,484,0,0,0,0,0
3447,806,8106,476,0,0,0,0,0
3448,809,8100,460,0,0,0,0,0
3449,818,8109,476,0,0,0,0,0
3450,806,8102,468,0,0,0,0,0
3451,810,8104,469,0,0,0,0,0
3452,826,8112,482,0,0,0,0,0
3453,804,8102,474,0,0,0,0,0
3454,808,8108,464,0,0,0,0,0
3455,818,8115,457,0,0,0,0,0
3456,813,8108,469,0,0,0,0,0
3457,801,8102,448,0,0,0,0,0
3458,807,8112,473,0,0,0,0,0
3459,805,8108,462,0,0,0,0,0
3460,816,8122,468,0,0,0,0,0
3461,812,8108,484,0,0,0,0,0
3462,804,8130,439,0,0,0,0,0
3463,808,8098,454,0,0,0,0,0
3464,816,8090,490,0,0,0,0,0
3465,809,8129,460,0,0,0,0,0
3466,800,8093,478,0,0,0,0,0
3467,810,8096,475,0,0,0,0,0
3468,818,8119,470,0,0,0,0,0
3469,805,8118,466,0,0,0,0,0
3470,832,8123,437,0,0,0,0,0
3471,832,8100,466,0,0,0,0,0
3472,766,8094,405,0,0,0,0,0
3473,818,8073,546,0,0,0,0,0
3474,792,8113,484,0,0,0,0,0
3475,878,8069,458,0,0,0,0,0
3476,726,8089,306,0,0,0,0,0
3477,765,8127,558,0,0,0,0,0
3478,827,8104,491,0,0,0,0,0
3479,813,8068,292,0,0,0,0,0
3480,867,8528,530,0,0,0,0,0
3481,744,7957,-12,0,0,0,0,0
3482,900,8174,366,0,0,0,0,0
3483,813,7950,326,0,0,0,0,0
3484,745,8099,401,0,0,0,0,0
3485,851,8143,427,0,0,0,0,0
3486,839,8105,467,0,0,0,0,0
3487,758,8066,406,0,0,0,0,0
3488,828,8123,487,0,0,0,0,0
3489,814,8126,562,0,0,0,0,0
3490,794,8070,543,0,0,0,0,0
3491,796,8114,678,0,0,0,0,0
3492,790,8138,644,0,0,0,0,0
3493,806,8090,617,0,0,0,0,0
3494,810,8119,581,0,0,0,0,0
3495,806,8117,436,0,0,0,0,0
3496,804,8095,411,0,0,0,0,0
3497,815,8102,392,0,0,0,0,0
3498,822,8112,486,0,0,0,0,0
3499,790,8093,548,0,0,0,0,0
3500,807,8112,446,0,0,0,0,0
3501,799,8104,413,0,0,0,0,0
3502,820,8102,448,0,0,0,0,0
3503,803,8123,488,0,0,0,0,0
3504,817,8092,507,0,0,0,0,0
3505,806,8113,457,0,0,0,0,0
3506,795,8099,442,0,0,0,0,0
3507,822,8102,464,0,0,0,0,0
3508,808,8106,474,0,0,0,0,0
3509,800,8092,472,0,0,0,0,0
3510,816,8104,470,0,0,0,0,0
3511,807,8106,446,0,0,0,0,0
3512,804,8109,460,0,0,0,0,0
3513,806,8118,484,0,0,0,0,0
3514,810,8098,496,0,0,0,0,0
3515,805,8112,446,0,0,0,0,0
3516,802,8104,448,0,0,0,0,0
3517,807,8120,493,0,0,0,0,0
3518,802,8093,484,0,0,0,0,0
3519,806,8116,480,0,0,0,0,0
3520,794,8102,436,0,0,0,0,0
3521,828,8096,490,0,0,0,0,0
3522,808,8090,446,0,0,0,0,0
3523,823,8136,499,0,0,0,0,0
3524,793,8086,460,0,0,0,0,0
3525,806,8150,485,0,0,0,0,0
3526,804,8109,458,0,0,0,0,0
3527,814,8113,446,0,0,0,0,0
3528,810,8104,466,0,0,0,0,0
3529,821,8091,512,0,0,0,0,0
3530,806,8095,486,0,0,0,0,0
3531,792,8122,414,0,0,0,0,0
3532,818,8084,498,0,0,0,0,0
3533,830,8094,485,0,0,0,0,0
3534,832,8149,462,0,0,0,0,0
3535,786,8069,467,0,0,0,0,0
3536,802,8112,459,0,0,0,0,0
3537,806,8126,444,0,0,0,0,0
3538,816,8093,496,0,0,0,0,0
3539,803,8110,465,0,0,0,0,0
3540,814,8118,468,0,0,0,0,0
3541,799,8110,473,0,0,0,0,0
3542,810,8102,482,0,0,0,0,0
3543,814,8109,452,0,0,0,0,0
3544,808,8114,462,0,0,0,0,0
3545,799,8100,478,0,0,0,0,0
3546,804,8100,480,0,0,0,0,0
3547,812,8107,464,0,0,0,0,0
3548,803,8106,477,0,0,0,0,0
3549,807,8105,464,0,0,0,0,0
3550,805,8108,482,0,0,0,0,0
3551,808,8100,470,0,0,0,0,0
3552,816,8104,463,0,0,0,0,0
3553,812,8111,473,0,0,0,0,0
3554,793,8104,479,0,0,0,0,0
3555,796,8106,468,0,0,0,0,0
3556,820,8110,478,0,0,0,0,0
3557,798,8095,468,0,0,0,0,0
3558,803,8112,466,0,0,0,0,0
3559,813,8105,470,0,0,0,0,0
3560,822,8102,480,0,0,0,0,0
3561,797,8104,466,0,0,0,0,0
3562,800,8114,460,0,0,0,0,0
3563,802,8106,467,0,0,0,0,0
3564,808,8096,472,0,0,0,0,0
3565,806,8144,445,420,0,0,0,0
3566,806,8126,480,0,0,0,0,0
3567,838,8130,426,0,0,0,0,0
3568,817,8108,513,0,0,0,0,0
3569,820,8102,428,0,0,0,0,0
3570,843,8116,516,0,0,0,0,0
3571,774,8108,441,0,0,0,0,0
3572,803,8098,479,0,0,0,0,0
3573,830,8111,454,0,0,0,0,0
3574,822,8108,463,4,0,0,0,0
3575,800,8117,466,0,0,0,0,0
3576,800,8104,465,0,0,0,0,0
3577,818,8113,459,0,0,0,0,0
3578,814,8095,464,1,0,0,0,0
3579,799,8122,459,0,0,0,0,0
3580,812,8105,474,1,0,0,0,0
3581,791,8106,396,0,0,0,0,0
3582,815,8126,459,788,0,0,0,0
3583,803,8087,430,0,0,0,0,0
3584,802,8086,389,0,0,0,0,0
3585,824,8088,447,0,0,0,0,0
3586,745,8047,927,0,0,0,0,0
3587,1065,8068,1920,0,0,0,0,0
3588,466,8212,1368,0,0,0,0,0
3589,722,8303,610,0,0,0,0,0
3590,1153,8090,1074,0,0,0,0,0
3591,556,7854,648,1084,0,0,0,0
3592,840,8228,836,0,0,0,0,0
3593,1078,8227,835,0,0,0,0,0
3594,768,8068,716,0,0,0,0,0
3595,662,8041,706,0,0,0,0,0
3596,808,8155,628,0,0,0,0,0
3597,819,8126,597,1024,0,0,0,0
3598,800,8124,704,0,0,0,0,0
3599,836,8171,762,0,0,0,0,0
3600,711,8046,656,0,0,0,0,0
3601,780,8094,534,0,0,0,0,0
3602,812,8150,573,0,0,0,0,0
3603,814,8160,631,991,0,0,0,0
3604,723,8047,599,0,0,0,0,0
3605,634,8045,861,981,0,0,0,0
3606,834,8077,1044,0,0,0,0,0
3607,850,8336,894,0,0,0,0,0
3608,648,8062,914,0,0,0,0,0
3609,627,8000,867,1062,0,0,0,0
3610,722,8057,955,0,0,0,0,0
3611,645,8395,882,1094,0,0,0,0
3612,757,8047,778,0,0,0,0,0
3613,733,7985,947,0,0,0,0,0
3614,477,7999,812,0,0,0,0,0
3615,656,8110,1046,1121,0,0,0,0
3616,649,8341,768,0,0,0,0,0
3617,498,8144,518,0,0,0,0,0
3618,757,8255,979,0,0,0,0,0
3619,484,8000,798,0,0,0,0,0
3620,533,7996,722,0,0,0,0,0
3621,558,8164,1007,0,0,0,0,0
3622,702,8092,901,0,0,0,0,0
3623,381,8041,902,0,0,0,0,0
3624,949,8295,1315,0,0,0,0,0
3625,711,8235,666,0,0,0,0,0
3626,600,8066,855,0,0,0,0,0
3627,710,8143,928,0,0,0,0,0
3628,194,8269,1321,0,0,0,0,0
3629,544,7696,898,0,0,0,0,0
3630,443,8580,1562,0,0,0,0,0
3631,54,8117,861,0,0,0,0,0
3632,199,7761,841,0,0,0,0,0
3633,610,7942,778,0,0,0,0,0
3634,476,8086,754,0,0,0,0,0
3635,1306,7847,586,0,0,0,0,0
3636,680,8422,364,0,0,0,0,0
3637,1214,7758,373,0,0,0,0,0
3638,792,7851,432,0,0,0,0,0
3639,1317,8709,-250,0,0,0,0,0
3640,1954,7812,-97,0,0,0,0,0
3641,1978,7900,158,0,0,0,0,0
3642,1280,7996,824,0,0,0,0,0
3643,935,8485,-75,0,0,0,0,0
3644,1139,8692,1079,0,0,0,0,0
3645,1209,8164,279,0,0,0,0,0
3646,680,7152,634,0,0,0,0,0
3647,1274,7778,599,454,0,0,0,0
3648,1699,7942,922,0,0,0,0,0
3649,1495,7252,661,0,0,0,0,0
3650,1431,7876,432,1073,0,0,0,0
3651,1850,8278,2024,0,0,0,0,0
3652,717,7769,535,0,0,0,0,0
3653,1031,8060,-286,0,0,0,0,0
3654,1610,7494,441,0,0,0,0,0
3655,889,8863,984,0,0,0,0,0
3656,1125,7830,49,1036,0,0,0,0
3657,831,7790,487,0,0,0,0,0
3658,1326,8018,-402,1034,0,0,0,0
3659,1365,8338,1006,0,0,0,0,0
3660,1014,8514,756,0,0,0,0,0
3661,1646,8040,117,0,0,0,0,0
3662,1256,8536,1026,0,0,0,0,0
3663,546,7541,611,0,0,0,0,0
3664,1786,8573,-83,1005,0,0,0,0
3665,1593,8500,-402,0,0,0,0,0
3666,1349,7852,75,1011,0,0,0,0
3667,868,8318,619,0,0,0,0,0
3668,1606,8141,-144,1014,0,0,0,0
3669,1421,8331,692,0,0,0,0,0
3670,1409,8600,1260,1077,0,0,0,0
3671,940,7496,1160,0,0,0,0,0
3672,837,7752,601,0,0,0,0,0
3673,1434,7780,-30,0,0,0,0,0
3674,1150,8044,128,0,0,0,0,0
3675,910,8049,652,0,0,0,0,0
3676,575,7494,-621,0,0,0,0,0
3677,1325,8214,833,0,0,0,0,0
3678,1514,7730,-1625,0,0,0,0,0
3679,1046,8249,390,0,0,0,0,0
3680,795,7995,176,0,0,0,0,0
3681,1070,7431,594,0,0,0,0,0
3682,580,7556,-250,0,0,0,0,0
3683,1155,7334,106,0,0,0,0,0
3684,785,8102,695,0,0,0,0,0
3685,930,8372,358,0,0,0,0,0
3686,1090,7955,625,0,0,0,0,0
3687,960,7991,760,0,0,0,0,0
3688,844,7996,182,0,0,0,0,0
3689,1880,8374,-283,0,0,0,0,0
3690,1124,8270,183,1029,0,0,0,0
3691,1056,8068,-293,0,0,0,0,0
3692,977,7622,-408,1018,0,0,0,0
3693,1511,8259,4,0,0,0,0,0
3694,1539,7630,-684,0,0,0,0,0
3695,1331,8443,9,975,0,0,0,0
3696,241,8118,1646,0,0,0,0,0
3697,1324,8303,-256,965,0,0,0,0
3698,1173,7728,-35,0,0,0,0,0
3699,1046,8392,-1273,962,0,0,0,0
3700,1226,8475,1435,0,0,0,0,0
3701,1220,7807,968,965,0,0,0,0
3702,1688,7959,-192,0,0,0,0,0
3703,1347,7132,-446,979,0,0,0,0
3704,1266,9220,832,0,0,0,0,0
3705,1628,6874,-1364,989,0,0,0,0
3706,1657,9076,-94,0,0,0,0,0
3707,1700,7934,434,0,0,0,0,0
3708,735,6867,1636,0,0,0,0,0
3709,1318,8083,662,0,0,0,0,0
3710,1626,8107,1668,0,0,0,0,0
3711,1652,8320,-288,1002,0,0,0,0
3712,1149,9166,514,0,0,0,0,0
3713,446,9270,609,0,0,0,0,0
3714,1590,8184,443,1006,0,0,0,0
3715,900,7435,-1269,0,0,0,0,0
3716,1745,7367,-779,0,0,0,0,0
3717,1569,7966,-587,0,0,0,0,0
3718,1505,8306,-99,0,0,0,0,0
3719,1571,8774,-462,0,0,0,0,0
3720,1051,7634,60,0,0,0,0,0
3721,1189,7476,-1366,0,0,0,0,0
3722,1249,7401,-148,0,0,0,0,0
3723,1256,8768,-324,0,0,0,0,0
3724,842,8338,93,0,0,0,0,0
3725,1381,7345,-142,0,0,0,0,0
3726,489,7568,536,0,0,0,0,0
3727,1295,9139,-385,0,0,0,0,0
3728,594,8276,-602,0,0,0,0,0
3729,400,8278,657,0,0,0,0,0
3730,1360,8756,1646,0,0,0,0,0
3731,2356,8894,-1427,0,0,0,0,0
3732,426,6626,151,0,0,0,0,0
3733,1620,8662,-132,0,0,0,0,0
3734,1799,8132,844,0,0,0,0,0
3735,1624,6853,-531,0,0,0,0,0
3736,1676,8928,1276,188,0,0,0,0
3737,2174,8819,-214,0,0,0,0,0
3738,1117,5974,-2,187,0,0,0,0
3739,1643,8706,574,0,0,0,0,0
3740,2460,8318,-1508,1000,0,0,0,0
3741,1162,7976,-590,0,0,0,0,0
3742,845,7720,838,995,0,0,0,0
3743,1975,8213,603,0,0,0,0,0
3744,1925,7604,-1045,0,0,0,0,0
3745,2618,7728,-126,0,0,0,0,0
3746,1847,8420,1794,1009,0,0,0,0
3747,2708,8076,-176,0,0,0,0,0
3748,2690,7756,-1093,0,0,0,0,0
3749,2430,8305,-783,0,0,0,0,0
3750,2362,7533,346,0,0,0,0,0
3751,1872,7685,-240,0,0,0,0,0
3752,2122,8300,-21,0,0,0,0,0
3753,1721,7889,-216,0,0,0,0,0
3754,1572,7580,-317,0,0,0,0,0
3755,2346,8718,83,0,0,0,0,0
3756,1766,8139,-385,0,0,0,0,0
3757,2237,7651,161,0,0,0,0,0
3758,2052,8633,-190,0,0,0,0,0
3759,1836,7494,-415,0,0,0,0,0
3760,2441,8312,-207,0,0,0,0,0
3761,2827,8496,-559,0,0,0,0,0
3762,2054,8160,-464,0,0,0,0,0
3763,1756,8011,-868,0,0,0,0,0
3764,1925,7014,-400,0,0,0,0,0
3765,2007,8421,-659,0,0,0,0,0
3766,2134,7774,332,309,0,0,0,0
3767,1912,7328,-284,0,0,0,0,0
3768,2241,7872,96,309,0,0,0,0
3769,1260,7556,-366,0,0,0,0,0
3770,1442,8198,-238,311,0,0,0,0
3771,2284,8106,-1447,0,0,0,0,0
3772,2540,7230,133,313,0,0,0,0
3773,1456,7553,-289,0,0,0,0,0
3774,1977,7994,524,899,0,0,0,0
3775,1040,8420,264,0,0,0,0,0
3776,2335,8482,987,313,0,0,0,0
3777,1784,8062,1076,0,0,0,0,0
3778,1686,7779,-70,882,0,0,0,0
3779,1614,7170,70,0,0,0,0,0
3780,2213,8399,46,875,0,0,0,0
3781,1454,8249,365,870,0,0,0,0
3782,1852,7468,-290,0,0,0,0,0
3783,1313,8535,299,0,0,0,0,0
3784,1235,8403,204,0,0,0,0,0
3785,1922,7837,-98,1012,0,0,0,0
3786,2488,7810,-744,0,0,0,0,0
3787,1792,8265,28,0,0,0,0,0
3788,1885,8829,295,0,0,0,0,0
3789,1635,8231,391,0,0,0,0,0
3790,1977,8106,-992,0,0,0,0,0
3791,1711,7897,-115,0,0,0,0,0
3792,1999,8175,-432,0,0,0,0,0
3793,1448,7956,-814,0,0,0,0,0
3794,1163,7758,-1031,0,0,0,0,0
3795,1694,7774,-516,0,0,0,0,0
3796,1390,7325,-551,0,0,0,0,0
3797,1236,8098,-48,0,0,0,0,0
3798,1514,8192,-190,0,0,0,0,0
3799,1252,9162,244,0,0,0,0,0
3800,1087,8038,-784,0,0,0,0,0
3801,883,7743,-209,0,0,0,0,0
3802,1123,7695,-1008,0,0,0,0,0
3803,1400,8238,-324,0,0,0,0,0
3804,1433,8060,-796,0,0,0,0,0
3805,1319,8188,-908,0,0,0,0,0
3806,1369,7750,-635,0,0,0,0,0
3807,1035,8084,90,0,0,0,0,0
3808,850,8011,-492,0,0,0,0,0
3809,977,8147,-315,0,0,0,0,0
3810,1019,7972,-336,0,0,0,0,0
3811,1000,7892,-100,0,0,0,0,0
3812,818,8262,-407,0,0,0,0,0
3813,1052,8020,-945,0,0,0,0,0
3814,816,8123,-827,0,0,0,0,0
3815,818,8178,-664,0,0,0,0,0
3816,856,7885,-1134,0,0,0,0,0
3817,429,8101,-1403,209,0,0,0,0
3818,875,8340,-1252,0,0,0,0,0
3819,514,8106,-1762,210,0,0,0,0
3820,610,8058,-1353,0,0,0,0,0
3821,948,8175,-250,1218,0,0,0,0
3822,949,8063,76,0,0,0,0,0
3823,980,8163,789,1029,0,0,0,0
3824,1183,8167,741,0,0,0,0,0
3825,1116,8044,518,644,0,0,0,0
3826,1060,7916,630,0,0,0,0,0
3827,1104,8116,846,592,0,0,0,0
3828,1186,8088,882,0,0,0,0,0
3829,1194,8080,848,546,0,0,0,0
3830,1115,8079,581,0,0,0,0,0
3831,1028,8089,472,0,0,0,0,0
3832,987,8063,360,0,0,0,0,0
3833,1085,8146,435,0,0,0,0,0
3834,1117,8067,693,0,0,0,0,0
3835,1019,8038,574,0,0,0,0,0
3836,1104,8094,581,0,0,0,0,0
3837,1006,8100,428,0,0,0,0,0
3838,1067,8056,569,0,0,0,0,0
3839,1030,8100,571,0,0,0,0,0
3840,1118,8072,519,0,0,0,0,0
3841,1019,8075,448,0,0,0,0,0
3842,1058,8070,493,0,0,0,0,0
3843,1052,8060,510,0,0,0,0,0
3844,1064,8075,512,0,0,0,0,0
3845,1058,8067,464,0,0,0,0,0
3846,1084,8083,497,0,0,0,0,0
3847,1052,8066,530,0,0,0,0,0
3848,1052,8072,519,0,0,0,0,0
3849,1075,8076,496,0,0,0,0,0
3850,1064,8088,496,0,0,0,0,0
3851,1050,8058,512,0,0,0,0,0
3852,1065,8084,496,0,0,0,0,0
3853,1086,8076,513,0,0,0,0,0
3854,1064,8073,518,0,0,0,0,0
3855,1060,8070,507,0,0,0,0,0
3856,1073,8073,480,0,0,0,0,0
3857,1065,8072,532,0,0,0,0,0
3858,1064,8080,507,0,0,0,0,0
3859,1057,8066,483,0,0,0,0,0
3860,1076,8071,493,0,0,0,0,0
3861,1065,8070,514,0,0,0,0,0
3862,1066,8074,498,0,0,0,0,0
3863,1063,8066,500,0,0,0,0,0
3864,1064,8083,507,0,0,0,0,0
3865,1068,8065,494,0,0,0,0,0
3866,1069,8086,508,0,0,0,0,0
3867,1066,8065,518,0,0,0,0,0
3868,1064,8082,498,0,0,0,0,0
3869,1057,8078,503,0,0,0,0,0
3870,1058,8070,494,0,0,0,0,0
3871,1062,8075,500,0,0,0,0,0
3872,1064,8070,509,0,0,0,0,0
3873,1054,8064,501,0,0,0,0,0
3874,1064,8069,508,0,0,0,0,0
3875,1068,8072,506,0,0,0,0,0
3876,1058,8086,500,0,0,0,0,0
3877,1062,8067,530,0,0,0,0,0
3878,1068,8085,515,0,0,0,0,0
3879,1058,8069,507,0,0,0,0,0
3880,1027,8071,508,0,0,0,0,0
3881,1032,8073,419,0,0,0,0,0
3882,1046,8076,464,0,0,0,0,0
3883,1052,8080,509,0,0,0,0,0
3884,1066,8076,520,0,0,0,0,0
3885,1072,8079,524,0,0,0,0,0
3886,1078,8068,545,0,0,0,0,0
3887,1064,8073,542,0,0,0,0,0
3888,1064,8077,535,0,0,0,0,0
3889,1070,8068,536,0,0,0,0,0
3890,1063,8080,509,0,0,0,0,0
3891,1066,8078,504,0,0,0,0,0
3892,1049,8074,503,0,0,0,0,0
3893,1057,8074,515,0,0,0,0,0
3894,1065,8090,509,0,0,0,0,0
3895,1075,8069,515,0,0,0,0,0
3896,1062,8070,260,0,0,0,0,0
3897,1058,8071,498,0,0,0,0,0
3898,1071,8074,501,0,0,0,0,0
3899,1056,8070,504,0,0,0,0,0
3900,1062,8092,530,0,0,0,0,0
3901,1051,8062,480,0,0,0,0,0
3902,1079,8082,524,0,0,0,0,0
3903,1076,8075,539,0,0,0,0,0
3904,1067,8082,539,0,0,0,0,0
3905,1070,8077,497,0,0,0,0,0
3906,1071,8082,529,0,0,0,0,0
3907,1062,8075,528,0,0,0,0,0
3908,1075,8080,477,0,0,0,0,0
3909,1066,8070,513,0,0,0,0,0
3910,1055,8072,520,0,0,0,0,0
3911,1063,8068,453,0,0,0,0,0
3912,1063,8071,512,0,0,0,0,0
3913,1064,8056,478,0,0,0,0,0
3914,1085,8083,505,0,0,0,0,0
3915,1048,8076,517,0,0,0,0,0
3916,1066,8080,511,0,0,0,0,0
3917,1058,8078,516,0,0,0,0,0
3918,1067,8066,491,0,0,0,0,0
3919,1069,8081,514,0,0,0,0,0
3920,1067,8078,497,0,0,0,0,0
3921,1060,8079,506,0,0,0,0,0
3922,1068,8075,510,0,0,0,0,0
3923,1059,8061,504,0,0,0,0,0
3924,1046,8061,502,0,0,0,0,0
3925,1066,8071,530,0,0,0,0,0
3926,1080,8087,532,0,0,0,0,0
3927,1060,8068,496,0,0,0,0,0
3928,1066,8066,504,0,0,0,0,0
3929,1067,8076,506,0,0,0,0,0
3930,1062,8066,519,0,0,0,0,0
3931,1062,8078,504,0,0,0,0,0
3932,1066,8082,500,0,0,0,0,0
3933,1062,8070,504,0,0,0,0,0
3934,1056,8066,510,0,0,0,0,0
3935,1058,8076,522,0,0,0,0,0
3936,1062,8072,497,0,0,0,0,0
3937,1053,8080,498,0,0,0,0,0
3938,1075,8074,511,0,0,0,0,0
3939,1070,8072,512,0,0,0,0,0
3940,1051,8074,503,0,0,0,0,0
3941,1061,8074,509,0,0,0,0,0
3942,1060,8074,489,0,0,0,0,0
3943,1074,8094,523,0,0,0,0,0
3944,1077,8066,474,0,0,0,0,0
3945,1047,8083,526,0,0,0,0,0
3946,1070,8070,501,0,0,0,0,0
3947,1071,8071,519,0,0,0,0,0
3948,1070,8066,518,0,0,0,0,0
3949,1070,8079,503,1,0,0,0,0
3950,1074,8077,508,0,0,0,0,0
3951,1058,8076,508,0,0,0,0,0
3952,1064,8063,488,0,0,0,0,0
3953,1066,8084,489,0,0,0,0,0
3954,1058,8070,494,0,0,0,0,0
3955,1052,8085,496,0,0,0,0,0
3956,1073,8072,502,0,0,0,0,0
3957,1070,8071,506,0,0,0,0,0
3958,1061,8078,510,0,0,0,0,0
3959,1068,8066,512,2,0,0,0,0
3960,1064,8066,500,0,0,0,0,0
3961,1065,8087,503,0,0,0,0,0
3962,1062,8067,505,0,0,0,0,0
3963,1060,8074,496,785,0,0,0,0
3964,1070,8074,510,0,0,0,0,0
3965,1048,8051,500,0,0,0,0,0
3966,1055,8106,524,0,0,0,0,0
3967,1057,8075,564,0,0,0,0,0
3968,1236,8038,1376,0,0,0,0,0
3969,1164,8145,776,0,0,0,0,0
3970,967,8031,546,0,0,0,0,0
3971,1156,8154,460,0,0,0,0,0
3972,1034,8068,624,0,0,0,0,0
3973,1034,8068,581,0,0,0,0,0
3974,1072,8070,432,0,0,0,0,0
3975,1077,8098,343,0,0,0,0,0
3976,1005,7987,218,0,0,0,0,0
3977,1056,7966,1665,0,0,0,0,0
3978,1798,8007,2153,0,0,0,0,0
3979,1019,8400,1071,0,0,0,0,0
3980,996,7765,382,0,0,0,0,0
3981,1377,8154,1324,0,0,0,0,0
3982,944,8172,1404,0,0,0,0,0
3983,1038,8116,754,0,0,0,0,0
3984,1629,8073,1074,1040,0,0,0,0
3985,1126,8054,1161,0,0,0,0,0
3986,790,8043,740,1026,0,0,0,0
3987,1218,8081,1103,0,0,0,0,0
3988,1158,7996,976,0,0,0,0,0
3989,1136,8019,803,0,0,0,0,0
3990,1093,8073,1223,0,0,0,0,0
3991,1221,8082,726,0,0,0,0,0
3992,1225,7895,836,0,0,0,0,0
3993,1371,8471,1510,0,0,0,0,0
3994,1068,7859,840,0,0,0,0,0
3995,1400,8071,1321,0,0,0,0,0
3996,1352,8194,1616,0,0,0,0,0
3997,1192,8226,1146,0,0,0,0,0
3998,1297,7944,1011,0,0,0,0,0
3999,1407,7890,1465,0,0,0,0,0
4000,1449,8090,1508,0,0,0,0,0
4001,1246,8029,1310,1202,0,0,0,0
4002,1580,8294,1288,0,0,0,0,0
4003,1526,7678,596,609,0,0,0,0
4004,1624,8572,788,0,0,0,0,0
4005,1318,8100,1736,0,0,0,0,0
4006,1714,8106,192,0,0,0,0,0
4007,1893,8053,1129,0,0,0,0,0
4008,1598,7811,798,0,0,0,0,0
4009,1650,8322,536,0,0,0,0,0
4010,1365,7424,190,0,0,0,0,0
4011,1218,8363,584,0,0,0,0,0
4012,1568,8094,578,0,0,0,0,0
4013,1356,7853,276,0,0,0,0,0
4014,1138,7956,357,0,0,0,0,0
4015,1489,8148,103,0,0,0,0,0
4016,1276,8084,937,0,0,0,0,0
4017,1383,8195,734,0,0,0,0,0
4018,1511,7774,356,0,0,0,0,0
4019,1010,7853,-200,0,0,0,0,0
4020,805,8268,-384,923,0,0,0,0
4021,1162,7646,-1049,0,0,0,0,0
4022,963,7860,-1249,0,0,0,0,0
4023,1208,8168,-286,0,0,0,0,0
4024,1257,7971,341,0,0,0,0,0
4025,1156,8108,-129,0,0,0,0,0
4026,1385,7978,778,454,0,0,0,0
4027,1308,8748,30,0,0,0,0,0
4028,1165,8249,-539,953,0,0,0,0
4029,1272,8646,141,0,0,0,0,0
4030,868,7415,248,951,0,0,0,0
4031,586,8328,657,0,0,0,0,0
4032,1850,8544,17,0,0,0,0,0
4033,1105,7841,29,0,0,0,0,0
4034,997,8450,-53,0,0,0,0,0
4035,826,8238,-934,0,0,0,0,0
4036,892,7896,-130,0,0,0,0,0
4037,1186,7895,104,0,0,0,0,0
4038,812,8157,-19,0,0,0,0,0
4039,792,8304,-307,0,0,0,0,0
4040,780,7791,-17,0,0,0,0,0
4041,963,8082,88,0,0,0,0,0
4042,809,8314,-346,0,0,0,0,0
4043,706,7924,-60,0,0,0,0,0
4044,941,8068,-164,0,0,0,0,0
4045,970,8292,58,0,0,0,0,0
4046,760,8116,-467,0,0,0,0,0
4047,812,8141,213,0,0,0,0,0
4048,878,7894,9,88,0,0,0,0
4049,947,8336,-257,0,0,0,0,0
4050,809,8286,-239,72,0,0,0,0
4051,810,7887,-394,0,0,0,0,0
4052,889,8077,-282,0,0,0,0,0
4053,770,8172,-268,0,0,0,0,0
4054,788,7945,-173,0,0,0,0,0
4055,702,8084,-300,0,0,0,0,0
4056,846,8168,-99,0,0,0,0,0
4057,848,8162,-47,0,0,0,0,0
4058,810,8087,-44,0,0,0,0,0
4059,739,8216,-314,0,0,0,0,0
4060,622,8337,-389,0,0,0,0,0
4061,689,7799,-399,0,0,0,0,0
4062,535,8510,164,0,0,0,0,0
4063,1203,7896,2746,0,0,0,0,0
4064,822,8744,528,0,0,0,0,0
4065,858,8092,544,0,0,0,0,0
4066,812,7643,165,0,0,0,0,0
4067,1048,8407,824,0,0,0,0,0
4068,889,8022,234,215,0,0,0,0
4069,1012,8066,391,0,0,0,0,0
4070,792,7946,519,204,0,0,0,0
4071,1140,7978,1401,0,0,0,0,0
4072,1327,8190,1164,0,0,0,0,0
4073,914,8195,308,0,0,0,0,0
4074,1424,7735,1362,0,0,0,0,0
4075,869,8204,777,0,0,0,0,0
4076,1229,8121,1242,0,0,0,0,0
4077,1118,7947,1144,0,0,0,0,0
4078,967,8068,1003,0,0,0,0,0
4079,1029,7982,1116,0,0,0,0,0
4080,1269,8138,742,0,0,0,0,0
4081,1423,8290,901,0,0,0,0,0
4082,1414,8239,676,305,0,0,0,0
4083,1452,7894,1050,0,0,0,0,0
4084,1284,7674,486,0,0,0,0,0
4085,1179,8182,350,0,0,0,0,0
4086,1376,8333,324,360,0,0,0,0
4087,1333,8075,-277,0,0,0,0,0
4088,1196,7939,173,0,0,0,0,0
4089,1315,8543,86,0,0,0,0,0
4090,944,7792,-411,0,0,0,0,0
4091,1038,8042,141,0,0,0,0,0
4092,1515,7648,-92,0,0,0,0,0
4093,1364,8430,-261,0,0,0,0,0
4094,1220,7790,3,0,0,0,0,0
4095,858,7650,521,0,0,0,0,0
4096,1145,7934,254,0,0,0,0,0
4097,1800,8299,-78,0,0,0,0,0
4098,1220,8096,626,0,0,0,0,0
4099,1171,7827,490,0,0,0,0,0
4100,1195,7417,947,0,0,0,0,0
4101,1268,7482,521,0,0,0,0,0
4102,691,8478,1134,604,0,0,0,0
4103,574,8654,540,0,0,0,0,0
4104,897,7564,570,0,0,0,0,0
4105,303,7841,1244,0,0,0,0,0
4106,711,7912,1341,1069,0,0,0,0
4107,427,7772,548,0,0,0,0,0
4108,237,9106,1030,0,0,0,0,0
4109,660,7081,570,0,0,0,0,0
4110,616,8405,1075,0,0,0,0,0
4111,134,7906,315,0,0,0,0,0
4112,609,8580,1222,0,0,0,0,0
4113,566,8737,512,0,0,0,0,0
4114,492,9007,252,0,0,0,0,0
4115,511,8276,-478,0,0,0,0,0
4116,1104,8086,-1340,0,0,0,0,0
4117,901,8700,-30,0,0,0,0,0
4118,714,7248,-403,0,0,0,0,0
4119,437,8370,-2128,0,0,0,0,0
4120,1270,8422,-664,0,0,0,0,0
4121,379,7815,-650,0,0,0,0,0
4122,-41,8419,-1883,0,0,0,0,0
4123,1328,8115,-745,0,0,0,0,0
4124,1066,7833,750,0,0,0,0,0
4125,-154,7874,-3534,0,0,0,0,0
4126,618,8602,-2255,0,0,0,0,0
4127,958,8222,-1022,0,0,0,0,0
4128,314,7474,-232,0,0,0,0,0
4129,388,8186,-2006,0,0,0,0,0
4130,618,8312,-1571,0,0,0,0,0
4131,670,8411,-1913,0,0,0,0,0
4132,789,7630,34,0,0,0,0,0
4133,543,8140,140,0,0,0,0,0
4134,390,8766,-1329,0,0,0,0,0
4135,655,8047,-448,0,0,0,0,0
4136,678,7893,-1250,0,0,0,0,0
4137,626,7964,-1262,0,0,0,0,0
4138,616,8386,-855,0,0,0,0,0
4139,633,7970,-676,0,0,0,0,0
4140,753,7997,-482,0,0,0,0,0
4141,554,8222,-338,0,0,0,0,0
4142,505,8234,25,0,0,0,0,0
4143,618,8120,-317,0,0,0,0,0
4144,700,8126,-296,0,0,0,0,0
4145,606,8117,-174,0,0,0,0,0
4146,606,8170,-194,0,0,0,0,0
4147,678,8134,-251,0,0,0,0,0
4148,582,8098,-205,0,0,0,0,0
4149,623,8125,-233,0,0,0,0,0
4150,606,8114,-216,0,0,0,0,0
4151,649,8146,-234,0,0,0,0,0
4152,642,8141,-192,0,0,0,0,0
4153,625,8105,-161,0,0,0,0,0
4154,664,8155,-120,0,0,0,0,0
4155,625,8076,-88,0,0,0,0,0
4156,635,8224,-44,0,0,0,0,0
4157,640,8144,-78,1,0,0,0,0
4158,632,8067,-103,0,0,0,0,0
4159,629,8118,-99,1,0,0,0,0
4160,629,8194,-68,0,0,0,0,0
4161,642,8066,-53,0,0,0,0,0
4162,658,8300,-38,0,0,0,0,0
4163,629,8102,-124,0,0,0,0,0
4164,614,8040,-178,0,0,0,0,0
4165,645,8148,-144,0,0,0,0,0
4166,631,8199,-133,0,0,0,0,0
4167,628,8067,-75,0,0,0,0,0
4168,634,8105,-70,0,0,0,0,0
4169,640,8165,-51,0,0,0,0,0
4170,625,8116,-34,0,0,0,0,0
4171,640,8135,-69,0,0,0,0,0
4172,642,8131,-110,0,0,0,0,0
4173,622,8130,8,0,0,0,0,0
4174,653,8151,-60,0,0,0,0,0
4175,634,8128,-147,0,0,0,0,0
4176,602,8119,-150,585,0,0,0,0
4177,652,8149,-151,0,0,0,0,0
4178,639,8112,-131,0,0,0,0,0
4179,632,8139,-92,0,0,0,0,0
4180,625,8141,-86,821,0,0,0,0
4181,670,8122,6,0,0,0,0,0
4182,622,8135,-159,0,0,0,0,0
4183,671,8196,-285,0,0,0,0,0
4184,595,8014,-143,0,0,0,0,0
4185,672,7964,214,0,0,0,0,0
4186,748,7851,2817,687,0,0,0,0
4187,718,8166,1488,0,0,0,0,0
4188,625,8508,480,0,0,0,0,0
4189,804,7631,938,0,0,0,0,0
4190,404,7882,1296,0,0,0,0,0
4191,317,8270,1184,0,0,0,0,0
4192,724,8571,972,0,0,0,0,0
4193,436,7774,1093,0,0,0,0,0
4194,306,8119,488,0,0,0,0,0
4195,154,8260,968,0,0,0,0,0
4196,302,8162,1084,0,0,0,0,0
4197,342,8218,402,0,0,0,0,0
4198,201,7830,230,0,0,0,0,0
4199,136,8228,818,0,0,0,0,0
