index,date,ACCEL_X,ACCEL_Y,ACCEL_Z,1,2,3,4,5
0,1762969984508,65240,8140,203,3.31,0,0,0,0
1,1762969984593,65237,8134,207,0,0,0,0,0
2,1762969984659,65242,8138,210,0,0,0,0,0
3,1762969984776,65241,8138,202,0,0,0,0,0
4,1762969984825,65236,8139,208,0,0,0,0,0
5,1762969984909,65230,8132,202,0,0,0,0,0
6,1762969985025,65251,8140,198,0,0,0,0,0
7,1762969985108,65240,8138,208,3.26,0,0,0,0
8,1762969985242,65236,8140,204,0,0,0,0,0
9,1762969985276,65237,8134,210,0,0,0,0,0
10,1762969985341,65241,8139,216,0,0,0,0,0
11,1762969985391,65236,8139,203,0,0,0,0,0
12,1762969985474,65235,8138,199,0,0,0,0,0
13,1762969985524,65238,8131,206,0,0,0,0,0
14,1762969985591,65246,8132,200,0,0,0,0,0
15,1762969985642,65237,8138,203,0,0,0,0,0
16,1762969985708,65232,8127,200,0,0,0,0,0
17,1762969985758,65238,8142,204,0,0,0,0,0
18,1762969985858,65242,8130,207,0,0,0,0,0
19,1762969985909,65242,8137,215,0,0,0,0,0
20,1762969986042,65242,8140,204,0,0,0,0,0
21,1762969986125,65244,8133,206,0,0,0,0,0
22,1762969986158,65238,8133,201,0,0,0,0,0
23,1762969986241,65243,8134,206,0,0,0,0,0
24,1762969986275,65240,8132,204,0,0,0,0,0
25,1762969986358,65238,8139,208,3.31,0,0,0,0
26,1762969986408,65242,8132,205,0,0,0,0,0
27,1762969986474,65243,8135,207,0,0,0,0,0
28,1762969986508,65238,8139,202,0,0,0,0,0
29,1762969986574,65236,8128,207,0,0,0,0,0
30,1762969986624,65238,8133,205,0,0,0,0,0
31,1762969986707,65236,8133,211,0,0,0,0,0
32,1762969986757,65240,8136,212,0,0,0,0,0
33,1762969986841,65243,8138,202,3.32,0,0,0,0
34,1762969986973,65244,8130,207,0,0,0,0,0
35,1762969987006,65231,8137,210,0,0,0,0,0
36,1762969987107,65239,8132,197,1,0,0,0,0
37,1762969987174,65239,8144,209,0,0,0,0,0
38,1762969987190,65234,8130,198,0,0,0,0,0
39,1762969987240,65240,8136,209,0,0,0,0,0
40,1762969987357,65242,8137,202,0,0,0,0,0
41,1762969987473,65242,8137,204,0,0,0,0,0
42,1762969987607,65230,8142,202,0,0,0,0,0
43,1762969987690,65233,8138,204,0,0,0,0,0
44,1762969987707,65242,8132,202,3.28,0,0,0,0
45,1762969987873,65239,8139,193,0,0,0,0,0
46,1762969987924,65232,8140,207,0,0,0,0,0
47,1762969988024,65241,8133,218,0,0,0,0,0
48,1762969988106,65246,8137,205,0,0,0,0,0
49,1762969988190,65233,8136,205,0,0,0,0,0
50,1762969988240,65241,8130,203,0,0,0,0,0
51,1762969988240,65237,8137,199,0,0,0,0,0
52,1762969988323,65242,8134,209,0,0,0,0,0
53,1762969988356,65234,8139,196,0,0,0,0,0
54,1762969988422,65234,8127,210,0,0,0,0,0
55,1762969988472,65236,8137,200,0,0,0,0,0
56,1762969988557,65242,8134,205,0,0,0,0,0
57,1762969988589,65244,8135,206,0,0,0,0,0
58,1762969988673,65242,8140,208,0,0,0,0,0
59,1762969988741,65234,8134,208,0,0,0,0,0
60,1762969988839,65238,8137,199,0,0,0,0,0
61,1762969988906,65238,8128,198,0,0,0,0,0
62,1762969989056,65233,8141,209,0,0,0,0,0
63,1762969989123,65235,8135,204,0,0,0,0,0
64,1762969989138,65229,8131,205,0,0,0,0,0
65,1762969989190,65246,8133,208,0,0,0,0,0
66,1762969989223,65238,8134,204,0,0,0,0,0
67,1762969989307,65236,8140,202,0,0,0,0,0
68,1762969989339,65242,8132,215,0,0,0,0,0
69,1762969989405,65242,8136,205,0,0,0,0,0
70,1762969989455,65240,8138,202,0,0,0,0,0
71,1762969989522,65239,8132,208,0,0,0,0,0
72,1762969989572,65244,8138,210,0,0,0,0,0
73,1762969989655,65239,8143,200,0,0,0,0,0
74,1762969989721,65239,8137,210,0,0,0,0,0
75,1762969989921,65236,8144,210,0,0,0,0,0
76,1762969990072,65243,8144,201,3.28,0,0,0,0
77,1762969990122,65239,8144,210,0,0,0,0,0
78,1762969990154,65239,8138,218,0,0,0,0,0
79,1762969990188,65237,8134,204,0,0,0,0,0
80,1762969990238,65236,8136,208,1,0,0,0,0
81,1762969990338,65240,8134,210,0,0,0,0,0
82,1762969990421,65241,8136,212,0,0,0,0,0
83,1762969990537,65242,8140,213,0,0,0,0,0
84,1762969990654,65240,8137,207,0,0,0,0,0
85,1762969990837,65238,8137,206,0,0,0,0,0
86,1762969990938,65237,8137,202,0,0,0,0,0
87,1762969991037,65244,8144,206,0,0,0,0,0
88,1762969991154,65248,8140,202,0,0,0,0,0
89,1762969991188,65235,8136,186,0,0,0,0,0
90,1762969991220,65239,8135,204,0,0,0,0,0
91,1762969991271,65244,8135,201,0,0,0,0,0
92,1762969991320,65246,8140,197,0,0,0,0,0
93,1762969991407,65234,8134,203,0,0,0,0,0
94,1762969991421,65242,8138,201,0,0,0,0,0
95,1762969991488,65232,8134,198,0,0,0,0,0
96,1762969991539,65236,8142,207,0,0,0,0,0
97,1762969991622,65245,8130,205,1,0,0,0,0
98,1762969991654,65244,8134,200,0,0,0,0,0
99,1762969991704,65240,8134,208,0,0,0,0,0
100,1762969991788,65238,8135,208,0,0,0,0,0
101,1762969991904,65241,8142,203,0,0,0,0,0
102,1762969991954,65236,8132,205,0,0,0,0,0
103,1762969992004,65239,8134,196,0,0,0,0,0
104,1762969992055,65237,8140,202,0,0,0,0,0
105,1762969992122,65236,8140,198,0,0,0,0,0
106,1762969992154,65238,8136,202,0,0,0,0,0
107,1762969992204,65238,8136,203,0,0,0,0,0
108,1762969992221,65238,8133,206,0,0,0,0,0
109,1762969992304,65240,8137,204,0,0,0,0,0
110,1762969992370,65244,8136,209,0,0,0,0,0
111,1762969992404,65235,8142,201,0,0,0,0,0
112,1762969992487,65238,8128,199,0,0,0,0,0
113,1762969992536,65244,8141,209,1,0,0,0,0
114,1762969992603,65238,8136,202,0,0,0,0,0
115,1762969992641,65243,8138,202,0,0,0,0,0
116,1762969992719,65246,8136,194,0,0,0,0,0
117,1762969992770,65240,8137,205,0,0,0,0,0
118,1762969992921,65241,8135,200,0,0,0,0,0
119,1762969992939,65240,8142,200,0,0,0,0,0
120,1762969993019,65238,8135,209,0,0,0,0,0
121,1762969993053,65248,8130,201,0,0,0,0,0
122,1762969993152,65232,8136,200,0,0,0,0,0
123,1762969993202,65240,8141,208,0,0,0,0,0
124,1762969993285,65232,8147,204,0,0,0,0,0
125,1762969993336,65235,8135,202,0,0,0,0,0
126,1762969993419,65234,8131,197,0,0,0,0,0
127,1762969993518,65241,8136,204,0,0,0,0,0
128,1762969993553,65240,8141,197,0,0,0,0,0
129,1762969993602,65240,8139,208,0,0,0,0,0
130,1762969993669,65234,8135,215,33196,0,0,0,0
131,1762969993735,65232,8130,213,0,0,0,0,0
132,1762969993785,65245,8140,206,0,0,0,0,0
133,1762969993886,65241,8138,207,0,0,0,0,0
134,1762969993920,65243,8140,197,0,0,0,0,0
135,1762969993953,65238,8139,202,0,0,0,0,0
136,1762969994002,65241,8138,200,0,0,0,0,0
137,1762969994070,65235,8130,212,0,0,0,0,0
138,1762969994135,65241,8140,205,0,0,0,0,0
139,1762969994170,65248,8145,211,0,0,0,0,0
140,1762969994286,65238,8133,206,0,0,0,0,0
141,1762969994353,65235,8134,202,0,0,0,0,0
142,1762969994402,65239,8137,206,0,0,0,0,0
143,1762969994469,65236,8132,212,0,0,0,0,0
144,1762969994503,65246,8134,195,0,0,0,0,0
145,1762969994602,65241,8135,210,0,0,0,0,0
146,1762969994635,65238,8138,209,0,0,0,0,0
147,1762969994718,65231,8130,210,0,0,0,0,0
148,1762969994752,65241,8131,202,0,0,0,0,0
149,1762969994902,65238,8131,213,0,0,0,0,0
150,1762969994935,65233,8136,210,0,0,0,0,0
151,1762969995036,65237,8142,199,0,0,0,0,0
152,1762969995070,65242,8140,208,0,0,0,0,0
153,1762969995186,65238,8133,208,0,0,0,0,0
154,1762969995203,65237,8131,198,0,0,0,0,0
155,1762969995270,65239,8127,204,0,0,0,0,0
156,1762969995352,65245,8130,208,0,0,0,0,0
157,1762969995385,65244,8127,204,0,0,0,0,0
158,1762969995484,65236,8133,202,3.32,0,0,0,0
159,1762969995518,65242,8131,205,0,0,0,0,0
160,1762969995585,65237,8136,201,0,0,0,0,0
161,1762969995636,65238,8138,205,0,0,0,0,0
162,1762969995718,65237,8134,207,1,0,0,0,0
163,1762969995767,65236,8140,197,0,0,0,0,0
164,1762969995884,65238,8133,200,0,0,0,0,0
165,1762969995899,65237,8140,202,0,0,0,0,0
166,1762969996052,65243,8133,214,33196,0,0,0,0
167,1762969996135,65244,8140,204,0,0,0,0,0
168,1762969996184,65240,8142,203,0,0,0,0,0
169,1762969996252,65234,8137,198,0,0,0,0,0
170,1762969996268,65237,8140,200,0,0,0,0,0
171,1762969996351,65236,8137,204,0,0,0,0,0
172,1762969996416,65235,8138,198,0,0,0,0,0
173,1762969996482,65238,8136,212,0,0,0,0,0
174,1762969996516,65232,8136,205,0,0,0,0,0
175,1762969996584,65235,8138,207,0,0,0,0,0
176,1762969996634,65242,8135,199,0,0,0,0,0
177,1762969996700,65240,8136,207,0,0,0,0,0
178,1762969996750,65237,8132,205,0,0,0,0,0
179,1762969996867,65236,8136,204,0,0,0,0,0
180,1762969996983,65242,8136,200,0,0,0,0,0
181,1762969997083,65235,8139,200,0,0,0,0,0
182,1762969997216,65244,8143,216,0,0,0,0,0
183,1762969997266,65233,8136,208,0,0,0,0,0
184,1762969997349,65230,8132,210,0,0,0,0,0
185,1762969997399,65234,8132,200,0,0,0,0,0
186,1762969997465,65248,8135,198,0,0,0,0,0
187,1762969997517,65242,8136,200,0,0,0,0,0
188,1762969997581,65240,8130,199,0,0,0,0,0
189,1762969997632,65239,8134,202,0,0,0,0,0
190,1762969997683,65243,8134,200,0,0,0,0,0
191,1762969997934,65240,8134,203,0,0,0,0,0
192,1762969998052,65235,8130,202,0,0,0,0,0
193,1762969998083,65236,8142,200,0,0,0,0,0
194,1762969998167,65238,8141,199,0,0,0,0,0
195,1762969998250,65234,8138,201,3.26,0,0,0,0
196,1762969998301,65244,8140,202,0,0,0,0,0
197,1762969998364,65230,8134,202,0,0,0,0,0
198,1762969998414,65242,8134,206,0,0,0,0,0
199,1762969998465,65234,8132,204,0,0,0,0,0
200,1762969998531,65243,8134,202,0,0,0,0,0
201,1762969998582,65244,8139,201,0,0,0,0,0
202,1762969998716,65243,8131,194,0,0,0,0,0
203,1762969998816,65231,8136,208,0,0,0,0,0
204,1762969998848,65246,8126,199,0,0,0,0,0
205,1762969998999,65239,8130,191,0,0,0,0,0
206,1762969999181,65238,8138,199,3.32,0,0,0,0
207,1762969999249,65242,8130,197,0,0,0,0,0
208,1762969999381,65246,8130,199,0,0,0,0,0
209,1762969999482,65248,8132,201,1,0,0,0,0
210,1762969999548,65238,8134,204,0,0,0,0,0
211,1762969999616,65235,8130,199,0,0,0,0,0
212,1762969999731,65237,8134,204,0,0,0,0,0
213,1762969999848,65242,8132,205,0,0,0,0,0
214,1762969999964,65236,8135,208,0,0,0,0,0
215,1762969999998,65239,8134,236,0,0,0,0,0
216,1762970000082,65245,8136,219,0,0,0,0,0
217,1762970000165,65230,8140,214,0,0,0,0,0
218,1762970000198,65243,8132,187,0,0,0,0,0
219,1762970000319,65250,8136,202,0,0,0,0,0
220,1762970000365,65237,8134,200,0,0,0,0,0
221,1762970000431,65236,8131,202,0,0,0,0,0
222,1762970000516,65243,8130,202,0,0,0,0,0
223,1762970000548,65238,8131,201,0,0,0,0,0
224,1762970000598,65239,8136,198,0,0,0,0,0
225,1762970000664,65236,8137,206,0,0,0,0,0
226,1762970000715,65239,8134,206,0,0,0,0,0
227,1762970000831,65237,8135,199,0,0,0,0,0
228,1762970000981,65236,8138,205,0,0,0,0,0
229,1762970001098,65238,8139,198,0,0,0,0,0
230,1762970001181,65237,8139,207,0,0,0,0,0
231,1762970001231,65240,8134,199,0,0,0,0,0
232,1762970001329,65240,8134,198,0,0,0,0,0
233,1762970001363,65242,8132,199,0,0,0,0,0
234,1762970001413,65241,8138,201,3.26,0,0,0,0
235,1762970001548,65247,8132,200,0,0,0,0,0
236,1762970001597,65235,8138,206,0,0,0,0,0
237,1762970001649,65239,8127,201,0,0,0,0,0
238,1762970001931,65236,8137,205,0,0,0,0,0
239,1762970002047,65233,8136,202,0,0,0,0,0
240,1762970002097,65238,8146,203,0,0,0,0,0
241,1762970002113,65234,8132,203,0,0,0,0,0
242,1762970002214,65244,8134,200,0,0,0,0,0
243,1762970002247,65242,8134,200,0,0,0,0,0
244,1762970002314,65236,8136,192,3.31,0,0,0,0
245,1762970002365,65237,8133,208,0,0,0,0,0
246,1762970002479,65241,8135,200,0,0,0,0,0
247,1762970002596,65234,8142,205,0,0,0,0,0
248,1762970002647,65236,8139,208,0,0,0,0,0
249,1762970002713,65241,8138,203,0,0,0,0,0
250,1762970003013,65237,8130,194,0,0,0,0,0
251,1762970003064,65244,8134,190,1,0,0,0,0
252,1762970003130,65238,8134,198,0,0,0,0,0
253,1762970003163,65238,8132,208,0,0,0,0,0
254,1762970003296,65236,8136,198,0,0,0,0,0
255,1762970003365,65229,8136,210,0,0,0,0,0
256,1762970003430,65234,8131,204,0,0,0,0,0
257,1762970003479,65242,8127,207,0,0,0,0,0
258,1762970003529,65244,8134,207,0,0,0,0,0
259,1762970003596,65243,8138,208,0,0,0,0,0
260,1762970003646,65236,8142,205,0,0,0,0,0
261,1762970003728,65235,8140,206,0,0,0,0,0
262,1762970003761,65236,8140,198,0,0,0,0,0
263,1762970003897,65236,8139,210,0,0,0,0,0
264,1762970003962,65231,8134,198,0,0,0,0,0
265,1762970004045,65244,8138,205,0,0,0,0,0
266,1762970004062,65234,8135,194,0,0,0,0,0
267,1762970004162,65230,8131,210,0,0,0,0,0
268,1762970004195,65236,8139,188,0,0,0,0,0
269,1762970004261,65240,8138,214,0,0,0,0,0
270,1762970004295,65234,8136,212,0,0,0,0,0
271,1762970004378,65243,8132,203,0,0,0,0,0
272,1762970004429,65235,8136,202,0,0,0,0,0
273,1762970004477,65235,8131,192,0,0,0,0,0
274,1762970004511,65243,8141,204,0,0,0,0,0
275,1762970004646,65229,8136,207,0,0,0,0,0
276,1762970004728,65244,8130,202,0,0,0,0,0
277,1762970004778,65240,8132,206,0,0,0,0,0
278,1762970004945,65239,8128,202,0,0,0,0,0
279,1762970004995,65234,8132,212,0,0,0,0,0
280,1762970005093,65240,8136,209,0,0,0,0,0
281,1762970005111,65237,8134,206,0,0,0,0,0
282,1762970005194,65238,8126,193,33140,0,0,0,0
283,1762970005243,65240,8137,192,0,0,0,0,0
284,1762970005311,65238,8134,207,0,0,0,0,0
285,1762970005377,65238,8135,204,0,0,0,0,0
286,1762970005410,65242,8128,199,0,0,0,0,0
287,1762970005476,65237,8128,195,0,0,0,0,0
288,1762970005527,65238,8134,203,33196,0,0,0,0
289,1762970005609,65235,8136,203,0,0,0,0,0
290,1762970005643,65239,8136,204,0,0,0,0,0
291,1762970005743,65248,8128,199,0,0,0,0,0
292,1762970005811,65234,8136,206,0,0,0,0,0
293,1762970005927,65238,8136,210,0,0,0,0,0
294,1762970005962,65231,8135,202,0,0,0,0,0
295,1762970006045,65236,8136,202,3.31,0,0,0,0
296,1762970006078,65236,8135,204,0,0,0,0,0
297,1762970006127,65234,8138,198,0,0,0,0,0
298,1762970006178,65235,8132,203,0,0,0,0,0
299,1762970006226,65245,8126,208,1,0,0,0,0
300,1762970006295,65236,8134,199,0,0,0,0,0
301,1762970006344,65242,8130,200,0,0,0,0,0
302,1762970006394,65238,8134,195,3.32,0,0,0,0
303,1762970006477,65247,8130,209,0,0,0,0,0
304,1762970006508,65242,8130,208,0,0,0,0,0
305,1762970006576,65232,8132,200,0,0,0,0,0
306,1762970006627,65244,8130,196,0,0,0,0,0
307,1762970006742,65238,8138,206,0,0,0,0,0
308,1762970006875,65234,8137,202,0,0,0,0,0
309,1762970006908,65234,8140,203,3.31,0,0,0,0
310,1762970007042,65242,8136,200,0,0,0,0,0
311,1762970007092,65239,8142,203,0,0,0,0,0
312,1762970007158,65243,8132,210,0,0,0,0,0
313,1762970007208,65241,8136,199,0,0,0,0,0
314,1762970007258,65242,8133,202,0,0,0,0,0
315,1762970007277,65237,8136,206,0,0,0,0,0
316,1762970007375,65230,8133,207,0,0,0,0,0
317,1762970007425,65241,8133,203,0,0,0,0,0
318,1762970007475,65244,8141,203,0,0,0,0,0
319,1762970007542,65241,8136,201,0,0,0,0,0
320,1762970007642,65243,8139,199,0,0,0,0,0
321,1762970007742,65231,8135,205,0,0,0,0,0
322,1762970007924,65238,8132,202,0,0,0,0,0
323,1762970007958,65236,8142,210,0,0,0,0,0
324,1762970008024,65244,8135,196,0,0,0,0,0
325,1762970008142,65237,8132,199,0,0,0,0,0
326,1762970008174,65238,8134,204,0,0,0,0,0
327,1762970008275,65238,8139,203,0,0,0,0,0
328,1762970008340,65237,8134,205,0,0,0,0,0
329,1762970008391,65240,8140,202,0,0,0,0,0
330,1762970008441,65240,8138,210,0,0,0,0,0
331,1762970008490,65241,8138,207,0,0,0,0,0
332,1762970008557,65241,8136,212,0,0,0,0,0
333,1762970008590,65236,8132,201,0,0,0,0,0
334,1762970008657,65232,8144,204,0,0,0,0,0
335,1762970008741,65238,8132,209,33196,0,0,0,0
336,1762970008841,65235,8136,208,0,0,0,0,0
337,1762970008891,65241,8130,209,0,0,0,0,0
338,1762970008957,65241,8130,212,0,0,0,0,0
339,1762970009008,65236,8132,209,1,0,0,0,0
340,1762970009092,65245,8137,201,0,0,0,0,0
341,1762970009158,65243,8140,200,0,0,0,0,0
342,1762970009241,65241,8136,208,0,0,0,0,0
343,1762970009291,65236,8136,204,0,0,0,0,0
344,1762970009326,65237,8136,206,0,0,0,0,0
345,1762970009375,65242,8130,206,1,0,0,0,0
346,1762970009441,65239,8132,204,0,0,0,0,0
347,1762970009474,65232,8136,202,0,0,0,0,0
348,1762970009557,65245,8134,200,0,0,0,0,0
349,1762970009607,65241,8132,212,3.32,0,0,0,0
350,1762970009674,65229,8132,197,0,0,0,0,0
351,1762970009724,65237,8133,196,0,0,0,0,0
352,1762970009874,65236,8138,203,0,0,0,0,0
353,1762970009923,65243,8133,210,0,0,0,0,0
354,1762970010008,65238,8130,194,0,0,0,0,0
355,1762970010024,65237,8134,200,0,0,0,0,0
356,1762970010142,65231,8134,196,0,0,0,0,0
357,1762970010190,65244,8140,204,3.28,0,0,0,0
358,1762970010241,65236,8141,200,0,0,0,0,0
359,1762970010356,65242,8130,203,0,0,0,0,0
360,1762970010374,65232,8130,204,0,0,0,0,0
361,1762970010423,65240,8135,198,0,0,0,0,0
362,1762970010457,65246,8136,206,0,0,0,0,0
363,1762970010540,65229,8131,202,0,0,0,0,0
364,1762970010572,65243,8132,213,0,0,0,0,0
365,1762970010641,65232,8135,200,0,0,0,0,0
366,1762970010673,65243,8134,204,0,0,0,0,0
367,1762970010807,65239,8132,207,0,0,0,0,0
368,1762970010923,65240,8126,200,0,0,0,0,0
369,1762970010990,65238,8134,198,0,0,0,0,0
370,1762970011157,65239,8133,195,0,0,0,0,0
371,1762970011157,65237,8137,208,0,0,0,0,0
372,1762970011238,65235,8136,206,0,0,0,0,0
373,1762970011288,65244,8133,198,0,0,0,0,0
374,1762970011321,65244,8134,205,0,0,0,0,0
375,1762970011388,65237,8136,206,0,0,0,0,0
376,1762970011472,65238,8128,212,0,0,0,0,0
377,1762970011522,65240,8136,206,0,0,0,0,0
378,1762970011557,65245,8131,203,0,0,0,0,0
379,1762970011606,65242,8138,204,0,0,0,0,0
380,1762970011656,65245,8136,194,1,0,0,0,0
381,1762970011705,65231,8129,200,0,0,0,0,0
382,1762970011854,65232,8130,208,0,0,0,0,0
383,1762970011988,65232,8128,198,3.32,0,0,0,0
384,1762970012070,65233,8134,204,0,0,0,0,0
385,1762970012104,65234,8126,206,0,0,0,0,0
386,1762970012170,65246,8142,206,0,0,0,0,0
387,1762970012205,65229,8130,190,0,0,0,0,0
388,1762970012387,65240,8140,212,0,0,0,0,0
389,1762970012437,65235,8130,206,0,0,0,0,0
390,1762970012487,65250,8136,198,0,0,0,0,0
391,1762970012538,65244,8137,207,0,0,0,0,0
392,1762970012587,65236,8137,212,0,0,0,0,0
393,1762970012654,65234,8136,203,0,0,0,0,0
394,1762970012688,65248,8138,198,0,0,0,0,0
395,1762970012771,65247,8134,202,0,0,0,0,0
396,1762970012870,65242,8134,196,0,0,0,0,0
397,1762970012971,65236,8137,206,0,0,0,0,0
398,1762970013004,65236,8130,206,0,0,0,0,0
399,1762970013105,65235,8136,204,0,0,0,0,0
400,1762970013154,65238,8128,195,0,0,0,0,0
401,1762970013223,65232,8138,199,0,0,0,0,0
402,1762970013253,65249,8136,202,0,0,0,0,0
403,1762970013271,65238,8133,210,0,0,0,0,0
404,1762970013323,65235,8124,196,0,0,0,0,0
405,1762970013422,65246,8139,187,0,0,0,0,0
406,1762970013439,65226,8130,211,0,0,0,0,0
407,1762970013537,65234,8131,202,0,0,0,0,0
408,1762970013620,65242,8130,200,0,0,0,0,0
409,1762970013640,65229,8131,206,0,0,0,0,0
410,1762970013738,65231,8136,206,0,0,0,0,0
411,1762970013803,65244,8134,202,0,0,0,0,0
412,1762970013903,65236,8136,208,0,0,0,0,0
413,1762970013937,65239,8138,196,0,0,0,0,0
414,1762970014019,65232,8136,204,0,0,0,0,0
415,1762970014085,65245,8140,200,0,0,0,0,0
416,1762970014136,65238,8134,206,0,0,0,0,0
417,1762970014220,65240,8144,200,0,0,0,0,0
418,1762970014253,65241,8124,203,3.31,0,0,0,0
419,1762970014454,65253,8144,216,0,0,0,0,0
420,1762970014519,65238,8121,196,0,0,0,0,0
421,1762970014552,65235,8141,201,0,0,0,0,0
422,1762970014636,65233,8133,200,0,0,0,0,0
423,1762970014669,65245,8144,209,0,0,0,0,0
424,1762970014736,65241,8138,202,0,0,0,0,0
425,1762970014785,65232,8139,204,0,0,0,0,0
426,1762970014904,65224,8137,210,0,0,0,0,0
427,1762970015003,65250,8138,200,0,0,0,0,0
428,1762970015036,65242,8138,210,0,0,0,0,0
429,1762970015086,65221,8124,187,0,0,0,0,0
430,1762970015235,65241,8135,210,0,0,0,0,0
431,1762970015272,65252,8140,196,0,0,0,0,0
432,1762970015369,65254,8132,205,0,0,0,0,0
433,1762970015401,65246,8133,202,0,0,0,0,0
434,1762970015470,65229,8134,212,0,0,0,0,0
435,1762970015519,65232,8136,210,3.31,0,0,0,0
436,1762970015585,65236,8139,198,0,0,0,0,0
437,1762970015618,65252,8138,210,0,0,0,0,0
438,1762970015668,65232,8124,199,0,0,0,0,0
439,1762970015735,65228,8142,204,0,0,0,0,0
440,1762970015801,65245,8132,196,0,0,0,0,0
441,1762970015852,65253,8143,206,0,0,0,0,0
442,1762970015917,65239,8136,199,0,0,0,0,0
443,1762970016052,65234,8143,200,0,0,0,0,0
444,1762970016136,65238,8132,206,0,0,0,0,0
445,1762970016185,65235,8137,194,0,0,0,0,0
446,1762970016218,65238,8130,203,1,0,0,0,0
447,1762970016301,65241,8142,198,0,0,0,0,0
448,1762970016401,65240,8140,197,3.31,0,0,0,0
449,1762970016484,65252,8153,193,0,0,0,0,0
450,1762970016518,65237,8148,199,0,0,0,0,0
451,1762970016585,65232,8121,204,0,0,0,0,0
452,1762970016636,65223,8140,196,0,0,0,0,0
453,1762970016684,65232,8154,228,0,0,0,0,0
454,1762970016733,65246,8120,208,0,0,0,0,0
455,1762970016817,65242,8137,226,0,0,0,0,0
456,1762970016917,65223,8129,212,0,0,0,0,0
457,1762970017018,65235,8150,192,0,0,0,0,0
458,1762970017067,65256,8143,207,0,0,0,0,0
459,1762970017100,65245,8137,200,0,0,0,0,0
460,1762970017184,65219,8104,184,0,0,0,0,0
461,1762970017269,65230,8136,200,0,0,0,0,0
462,1762970017434,65274,8120,212,0,0,0,0,0
463,1762970017500,65234,8135,150,0,0,0,0,0
464,1762970017534,65214,8104,202,0,0,0,0,0
465,1762970017599,65248,8122,210,0,0,0,0,0
466,1762970017650,65253,8139,220,0,0,0,0,0
467,1762970017701,65246,8145,205,0,0,0,0,0
468,1762970017733,65217,8128,192,0,0,0,0,0
469,1762970018000,65237,8138,187,0,0,0,0,0
470,1762970018016,65232,8116,216,0,0,0,0,0
471,1762970018217,65260,8127,220,0,0,0,0,0
472,1762970018267,65226,8128,193,0,0,0,0,0
473,1762970018300,65249,8115,208,3.31,0,0,0,0
474,1762970018366,65240,8143,200,0,0,0,0,0
475,1762970018382,65224,8131,204,0,0,0,0,0
476,1762970018467,65236,8132,197,0,0,0,0,0
477,1762970018501,65246,8135,206,0,0,0,0,0
478,1762970018583,65238,8140,204,0,0,0,0,0
479,1762970018616,65246,8124,204,0,0,0,0,0
480,1762970018700,65236,8132,217,0,0,0,0,0
481,1762970018767,65238,8137,201,0,0,0,0,0
482,1762970018816,65234,8143,206,0,0,0,0,0
483,1762970018917,65240,8133,196,0,0,0,0,0
484,1762970019016,65245,8123,210,0,0,0,0,0
485,1762970019050,65231,8126,200,0,0,0,0,0
486,1762970019150,65241,8126,208,0,0,0,0,0
487,1762970019199,65254,8134,207,0,0,0,0,0
488,1762970019249,65231,8125,201,0,0,0,0,0
489,1762970019267,65234,8138,194,0,0,0,0,0
490,1762970019316,65242,8139,200,0,0,0,0,0
491,1762970019369,65238,8138,194,0,0,0,0,0
492,1762970019449,65237,8142,208,0,0,0,0,0
493,1762970019483,65233,8127,197,0,0,0,0,0
494,1762970019532,65239,8136,208,0,0,0,0,0
495,1762970019582,65240,8132,201,0,0,0,0,0
496,1762970019683,65231,8137,204,0,0,0,0,0
497,1762970019716,65236,8133,205,0,0,0,0,0
498,1762970019817,65248,8132,204,0,0,0,0,0
499,1762970019866,65246,8138,204,0,0,0,0,0
500,1762970019965,65240,8132,203,0,0,0,0,0
501,1762970020033,65241,8135,204,0,0,0,0,0
502,1762970020049,65237,8135,206,0,0,0,0,0
503,1762970020183,65244,8138,198,0,0,0,0,0
504,1762970020283,65238,8133,210,0,0,0,0,0
505,1762970020348,65242,8131,204,0,0,0,0,0
506,1762970020398,65236,8135,206,0,0,0,0,0
507,1762970020464,65239,8138,202,0,0,0,0,0
508,1762970020515,65238,8135,206,0,0,0,0,0
509,1762970020597,65232,8132,212,0,0,0,0,0
510,1762970020647,65241,8141,207,0,0,0,0,0
511,1762970020699,65244,8137,200,0,0,0,0,0
512,1762970020780,65238,8134,208,0,0,0,0,0
513,1762970020814,65228,8125,202,0,0,0,0,0
514,1762970020900,65239,8136,210,0,0,0,0,0
515,1762970020964,65246,8128,202,0,0,0,0,0
516,1762970021182,65244,8137,208,0,0,0,0,0
517,1762970021265,65226,8128,205,0,0,0,0,0
518,1762970021298,65234,8142,212,0,0,0,0,0
519,1762970021348,65248,8132,206,0,0,0,0,0
520,1762970021398,65246,8135,207,0,0,0,0,0
521,1762970021465,65225,8118,210,33196,0,0,0,0
522,1762970021531,65244,8136,193,0,0,0,0,0
523,1762970021582,65241,8138,207,0,0,0,0,0
524,1762970021648,65230,8132,209,0,0,0,0,0
525,1762970021697,65234,8143,204,1,0,0,0,0
526,1762970021797,65238,8129,198,0,0,0,0,0
527,1762970021947,65242,8137,196,0,0,0,0,0
528,1762970022030,65240,8129,211,0,0,0,0,0
529,1762970022197,65239,8120,219,0,0,0,0,0
530,1762970022215,65236,8138,196,1,0,0,0,0
531,1762970022314,65239,8142,200,0,0,0,0,0
532,1762970022380,65236,8150,207,33159,0,0,0,0
533,1762970022464,65232,8132,205,0,0,0,0,0
534,1762970022764,65245,8115,208,0,0,0,0,0
535,1762970023379,65236,8144,202,0,0,0,0,0
536,1762970023429,65233,8133,209,0,0,0,0,0
537,1762970024829,65233,8135,195,0,0,0,0,0
538,1762970024962,65227,8139,207,0,0,0,0,0
539,1762970025078,65250,8139,197,0,0,0,0,0
540,1762970025098,65240,8128,212,0,0,0,0,0
541,1762970025129,65231,8132,210,3.32,0,0,0,0
542,1762970025178,65247,8130,214,0,0,0,0,0
543,1762970025262,65240,8138,197,0,0,0,0,0
544,1762970025294,65236,8130,206,0,0,0,0,0
545,1762970025378,65236,8125,200,0,0,0,0,0
546,1762970025412,65240,8139,204,0,0,0,0,0
547,1762970025495,65237,8134,204,0,0,0,0,0
548,1762970025528,65231,8128,209,3.27,0,0,0,0
549,1762970025627,65249,8129,214,0,0,0,0,0
550,1762970025661,65240,8130,207,0,0,0,0,0
551,1762970025761,65235,8134,205,0,0,0,0,0
552,1762970025794,65240,8136,204,0,0,0,0,0
553,1762970026011,65238,8145,204,0,0,0,0,0
554,1762970026044,65225,8135,209,0,0,0,0,0
555,1762970026178,65242,8139,208,0,0,0,0,0
556,1762970026210,65235,8138,197,0,0,0,0,0
557,1762970026244,65249,8131,208,0,0,0,0,0
558,1762970026310,65252,8131,206,0,0,0,0,0
559,1762970026344,65242,8143,205,0,0,0,0,0
560,1762970026361,65234,8134,207,0,0,0,0,0
561,1762970026410,65245,8134,206,0,0,0,0,0
562,1762970026494,65251,8137,199,0,0,0,0,0
563,1762970026528,65231,8126,202,0,0,0,0,0
564,1762970026593,65231,8145,196,0,0,0,0,0
565,1762970026645,65245,8130,212,0,0,0,0,0
566,1762970026710,65243,8125,208,1,0,0,0,0
567,1762970026760,65238,8133,208,0,0,0,0,0
568,1762970026844,65232,8137,200,0,0,0,0,0
569,1762970026876,65230,8134,209,0,0,0,0,0
570,1762970026944,65239,8141,218,0,0,0,0,0
571,1762970026993,65240,8143,214,0,0,0,0,0
572,1762970027059,65234,8124,210,0,0,0,0,0
573,1762970027110,65232,8146,210,0,0,0,0,0
574,1762970027160,65240,8142,209,0,0,0,0,0
575,1762970027227,65247,8131,206,0,0,0,0,0
576,1762970027276,65238,8124,215,0,0,0,0,0
577,1762970027326,65238,8132,210,0,0,0,0,0
578,1762970027409,65240,8142,209,0,0,0,0,0
579,1762970027476,65243,8133,202,0,0,0,0,0
580,1762970027510,65242,8135,211,0,0,0,0,0
581,1762970027576,65233,8134,194,0,0,0,0,0
582,1762970027626,65239,8134,206,0,0,0,0,0
583,1762970027692,65246,8130,200,0,0,0,0,0
584,1762970027776,65234,8130,209,0,0,0,0,0
585,1762970027860,65237,8131,195,0,0,0,0,0
586,1762970027942,65246,8130,200,0,0,0,0,0
587,1762970027993,65232,8134,206,0,0,0,0,0
588,1762970028092,65230,8130,202,0,0,0,0,0
589,1762970028242,65242,8142,207,0,0,0,0,0
590,1762970028309,65250,8134,214,0,0,0,0,0
591,1762970028342,65228,8131,204,0,0,0,0,0
592,1762970028376,65247,8141,205,3.32,0,0,0,0
593,1762970028458,65237,8133,192,0,0,0,0,0
594,1762970028525,65229,8154,203,0,0,0,0,0
595,1762970028592,65235,8143,197,0,0,0,0,0
596,1762970028608,65246,8118,208,0,0,0,0,0
597,1762970028675,65228,8140,203,0,0,0,0,0
598,1762970028742,65239,8150,206,3.31,0,0,0,0
599,1762970028875,65246,8107,217,0,0,0,0,0
600,1762970028958,65240,8122,205,0,0,0,0,0
601,1762970029059,65234,8148,201,0,0,0,0,0
602,1762970029141,65234,8134,200,0,0,0,0,0
603,1762970029159,65230,8146,206,0,0,0,0,0
604,1762970029208,65238,8137,205,0,0,0,0,0
605,1762970029274,65226,8146,195,0,0,0,0,0
606,1762970029308,65226,8143,203,0,0,0,0,0
607,1762970029374,65240,8130,204,0,0,0,0,0
608,1762970029409,65242,8143,201,0,0,0,0,0
609,1762970029492,65232,8138,203,0,0,0,0,0
610,1762970029524,65238,8132,202,0,0,0,0,0
611,1762970029591,65248,8131,218,0,0,0,0,0
612,1762970029710,65230,8141,213,0,0,0,0,0
613,1762970029791,65247,8131,208,0,0,0,0,0
614,1762970029841,65240,8136,202,0,0,0,0,0
615,1762970029910,65239,8134,203,0,0,0,0,0
616,1762970029974,65236,8132,208,0,0,0,0,0
617,1762970030024,65238,8128,208,0,0,0,0,0
618,1762970030058,65242,8134,191,0,0,0,0,0
619,1762970030141,65238,8137,198,0,0,0,0,0
620,1762970030190,65233,8137,196,0,0,0,0,0
621,1762970030241,65240,8132,212,0,0,0,0,0
622,1762970030291,65246,8142,202,0,0,0,0,0
623,1762970030374,65236,8134,199,0,0,0,0,0
624,1762970030425,65238,8130,202,0,0,0,0,0
625,1762970030473,65240,8137,198,0,0,0,0,0
626,1762970030507,65242,8137,208,0,0,0,0,0
627,1762970030607,65240,8126,205,0,0,0,0,0
628,1762970030673,65238,8129,202,0,0,0,0,0
629,1762970030707,65234,8137,205,0,0,0,0,0
630,1762970030807,65240,8138,195,0,0,0,0,0
631,1762970030823,65236,8141,204,0,0,0,0,0
632,1762970030940,65243,8126,205,0,0,0,0,0
633,1762970031106,65240,8126,193,0,0,0,0,0
634,1762970031223,65233,8136,195,0,0,0,0,0
635,1762970031390,65235,8141,195,0,0,0,0,0
636,1762970031557,65234,8133,201,0,0,0,0,0
637,1762970031573,65236,8128,206,0,0,0,0,0
638,1762970031656,65245,8137,206,0,0,0,0,0
639,1762970031807,65222,8125,200,0,0,0,0,0
640,1762970031873,65240,8137,193,0,0,0,0,0
641,1762970031939,65251,8139,196,0,0,0,0,0
642,1762970032057,65219,8128,207,0,0,0,0,0
643,1762970032156,65251,8142,200,0,0,0,0,0
644,1762970032189,65249,8134,204,0,0,0,0,0
645,1762970032289,65218,8134,212,0,0,0,0,0
646,1762970032406,65240,8127,204,0,0,0,0,0
647,1762970032455,65234,8135,200,0,0,0,0,0
648,1762970032522,65231,8133,196,0,0,0,0,0
649,1762970032556,65242,8136,206,0,0,0,0,0
650,1762970032638,65242,8128,204,0,0,0,0,0
651,1762970032673,65223,8133,206,0,0,0,0,0
652,1762970032755,65226,8136,195,0,0,0,0,0
653,1762970032822,65250,8133,212,0,0,0,0,0
654,1762970032888,65232,8132,204,0,0,0,0,0
655,1762970032939,65233,8133,197,0,0,0,0,0
656,1762970033022,65243,8139,214,0,0,0,0,0
657,1762970033122,65230,8141,216,0,0,0,0,0
658,1762970033171,65224,8131,199,0,0,0,0,0
659,1762970033289,65238,8138,202,0,0,0,0,0
660,1762970033338,65242,8131,205,0,0,0,0,0
661,1762970033405,65233,8131,204,0,0,0,0,0
662,1762970033454,65240,8132,207,0,0,0,0,0
663,1762970033521,65242,8141,206,0,0,0,0,0
664,1762970033572,65236,8126,199,0,0,0,0,0
665,1762970033638,65250,8137,204,0,0,0,0,0
666,1762970033671,65236,8136,194,0,0,0,0,0
667,1762970033838,65238,8138,204,0,0,0,0,0
668,1762970033888,65228,8138,205,0,0,0,0,0
669,1762970033955,65244,8134,200,0,0,0,0,0
670,1762970033988,65239,8135,205,0,0,0,0,0
671,1762970034054,65236,8134,199,0,0,0,0,0
672,1762970034104,65239,8134,204,0,0,0,0,0
673,1762970034155,65246,8131,204,0,0,0,0,0
674,1762970034238,65246,8134,202,33195,0,0,0,0
675,1762970034288,65231,8130,204,0,0,0,0,0
676,1762970034322,65236,8136,201,0,0,0,0,0
677,1762970034387,65252,8139,204,0,0,0,0,0
678,1762970034438,65241,8133,210,1,0,0,0,0
679,1762970034521,65237,8132,202,0,0,0,0,0
680,1762970034554,65235,8127,203,0,0,0,0,0
681,1762970034622,65238,8140,202,0,0,0,0,0
682,1762970034687,65238,8128,204,0,0,0,0,0
683,1762970034754,65234,8132,201,0,0,0,0,0
684,1762970034820,65234,8126,203,0,0,0,0,0
685,1762970034937,65245,8133,207,0,0,0,0,0
686,1762970035037,65242,8132,211,0,0,0,0,0
687,1762970035104,65233,8139,196,0,0,0,0,0
688,1762970035171,65242,8133,208,0,0,0,0,0
689,1762970035237,65238,8127,205,0,0,0,0,0
690,1762970035303,65239,8139,207,0,0,0,0,0
691,1762970035353,65233,8137,201,0,0,0,0,0
692,1762970035403,65234,8138,198,0,0,0,0,0
693,1762970035439,65234,8130,202,0,0,0,0,0
694,1762970035520,65240,8131,193,0,0,0,0,0
695,1762970035553,65244,8132,198,3.31,0,0,0,0
696,1762970035670,65242,8133,199,0,0,0,0,0
697,1762970035769,65238,8137,200,0,0,0,0,0
698,1762970035819,65243,8132,205,0,0,0,0,0
699,1762970035886,65236,8138,210,0,0,0,0,0
700,1762970035937,65244,8131,201,0,0,0,0,0
701,1762970036003,65244,8132,195,0,0,0,0,0
702,1762970036070,65234,8135,209,0,0,0,0,0
703,1762970036120,65235,8132,201,0,0,0,0,0
704,1762970036220,65236,8137,204,0,0,0,0,0
705,1762970036236,65240,8144,199,0,0,0,0,0
706,1762970036319,65241,8139,204,0,0,0,0,0
707,1762970036352,65240,8136,191,0,0,0,0,0
708,1762970036403,65243,8134,200,0,0,0,0,0
709,1762970036453,65234,8137,210,0,0,0,0,0
710,1762970036519,65228,8134,212,0,0,0,0,0
711,1762970036586,65244,8133,211,0,0,0,0,0
712,1762970036636,65230,8140,202,0,0,0,0,0
713,1762970036703,65236,8132,208,0,0,0,0,0
714,1762970036752,65237,8138,203,0,0,0,0,0
715,1762970036836,65243,8140,201,0,0,0,0,0
716,1762970036870,65232,8140,199,0,0,0,0,0
717,1762970036968,65232,8128,202,3.32,0,0,0,0
718,1762970036985,65232,8128,204,0,0,0,0,0
719,1762970037067,65246,8151,198,0,0,0,0,0
720,1762970037101,65237,8132,202,0,0,0,0,0
721,1762970037188,65242,8123,207,0,0,0,0,0
722,1762970037217,65236,8143,197,0,0,0,0,0
723,1762970037286,65243,8132,198,0,0,0,0,0
724,1762970037334,65242,8126,201,0,0,0,0,0
725,1762970037417,65244,8139,216,33196,0,0,0,0
726,1762970037467,65239,8136,209,0,0,0,0,0
727,1762970037516,65242,8137,206,0,0,0,0,0
728,1762970037583,65243,8140,201,0,0,0,0,0
729,1762970037635,65246,8135,202,1,0,0,0,0
730,1762970037702,65240,8126,198,0,0,0,0,0
731,1762970037751,65231,8149,200,0,0,0,0,0
732,1762970037817,65254,8118,210,0,0,0,0,0
733,1762970037868,65236,8120,214,33196,0,0,0,0
734,1762970037984,65241,8153,206,0,0,0,0,0
735,1762970038067,65256,8124,214,0,0,0,0,0
736,1762970038102,65238,8126,213,0,0,0,0,0
737,1762970038203,65228,8139,189,0,0,0,0,0
738,1762970038217,65236,8136,205,0,0,0,0,0
739,1762970038317,65245,8114,204,0,0,0,0,0
740,1762970038401,65234,8140,215,0,0,0,0,0
741,1762970038467,65237,8134,190,0,0,0,0,0
742,1762970038501,65242,8135,203,0,0,0,0,0
743,1762970038583,65248,8134,211,0,0,0,0,0
744,1762970038617,65239,8145,203,0,0,0,0,0
745,1762970038700,65238,8126,219,0,0,0,0,0
746,1762970038735,65240,8128,212,0,0,0,0,0
747,1762970038819,65238,8138,204,0,0,0,0,0
748,1762970038868,65238,8135,195,0,0,0,0,0
749,1762970038919,65236,8137,208,0,0,0,0,0
750,1762970038968,65236,8128,197,0,0,0,0,0
751,1762970039067,65245,8147,201,0,0,0,0,0
752,1762970039150,65234,8142,199,0,0,0,0,0
753,1762970039183,65222,8131,204,0,0,0,0,0
754,1762970039284,65238,8128,206,0,0,0,0,0
755,1762970039300,65244,8142,202,0,0,0,0,0
756,1762970039382,65236,8138,194,0,0,0,0,0
757,1762970039434,65228,8132,196,0,0,0,0,0
758,1762970039501,65235,8130,202,0,0,0,0,0
759,1762970039533,65236,8148,206,0,0,0,0,0
760,1762970039601,65238,8130,198,0,0,0,0,0
761,1762970039649,65236,8127,202,0,0,0,0,0
762,1762970039717,65233,8132,202,0,0,0,0,0
763,1762970039781,65246,8143,204,0,0,0,0,0
764,1762970039833,65238,8139,210,0,0,0,0,0
765,1762970039917,65232,8133,206,0,0,0,0,0
766,1762970039933,65246,8134,204,0,0,0,0,0
767,1762970040016,65246,8134,208,0,0,0,0,0
768,1762970040050,65226,8135,208,0,0,0,0,0
769,1762970040166,65233,8136,210,0,0,0,0,0
770,1762970040199,65238,8139,214,0,0,0,0,0
771,1762970040266,65243,8134,210,0,0,0,0,0
772,1762970040299,65233,8134,209,0,0,0,0,0
773,1762970040381,65240,8143,209,0,0,0,0,0
774,1762970040432,65246,8137,214,0,0,0,0,0
775,1762970040483,65238,8132,200,0,0,0,0,0
776,1762970040532,65236,8134,200,0,0,0,0,0
777,1762970040616,65239,8135,210,33196,0,0,0,0
778,1762970040666,65247,8134,203,0,0,0,0,0
779,1762970040715,65231,8129,198,0,0,0,0,0
780,1762970040816,65236,8155,199,0,0,0,0,0
781,1762970040867,65251,8116,222,1,0,0,0,0
782,1762970040915,65240,8122,212,0,0,0,0,0
783,1762970041248,65234,8128,205,0,0,0,0,0
784,1762970041283,65236,8132,203,0,0,0,0,0
785,1762970041365,65251,8122,218,0,0,0,0,0
786,1762970041465,65236,8144,206,0,0,0,0,0
787,1762970041515,65354,8068,407,0,0,0,0,0
788,1762970041583,65158,7965,274,0,0,0,0,0
789,1762970041614,65212,8384,64,0,0,0,0,0
790,1762970041698,65292,8140,318,0,0,0,0,0
791,1762970041731,65377,8046,511,0,0,0,0,0
792,1762970041815,65260,8204,138,0,0,0,0,0
793,1762970041901,65195,8197,202,0,0,0,0,0
794,1762970041948,65271,8115,153,3.31,0,0,0,0
795,1762970042031,65208,8084,240,0,0,0,0,0
796,1762970042065,65165,7940,164,0,0,0,0,0
797,1762970042164,65230,8149,194,0,0,0,0,0
798,1762970042231,65183,8197,159,0,0,0,0,0
799,1762970042280,65182,8125,174,0,0,0,0,0
800,1762970042398,65220,8162,207,0,0,0,0,0
801,1762970042514,65186,8125,164,0,0,0,0,0
802,1762970042630,65236,8158,204,0,0,0,0,0
803,1762970042747,65218,8130,226,0,0,0,0,0
804,1762970042864,65266,8124,207,0,0,0,0,0
805,1762970042917,65221,8130,200,0,0,0,0,0
806,1762970042980,65216,8149,198,0,0,0,0,0
807,1762970043048,65242,8138,200,0,0,0,0,0
808,1762970043280,65243,8128,214,0,0,0,0,0
809,1762970043380,65255,8146,202,0,0,0,0,0
810,1762970043480,65247,8137,210,0,0,0,0,0
811,1762970043534,65243,8143,202,0,0,0,0,0
812,1762970043580,65233,8133,208,0,0,0,0,0
813,1762970043647,65229,8128,214,0,0,0,0,0
814,1762970043697,65238,8137,207,0,0,0,0,0
815,1762970043964,65237,8120,198,0,0,0,0,0
816,1762970044079,65236,8120,208,0,0,0,0,0
817,1762970044113,65270,8150,220,0,0,0,0,0
818,1762970044213,65238,8168,206,0,0,0,0,0
819,1762970044313,65239,8117,212,0,0,0,0,0
820,1762970044446,65232,8121,216,0,0,0,0,0
821,1762970044495,65238,8146,202,0,0,0,0,0
822,1762970044547,65240,8142,211,0,0,0,0,0
823,1762970044596,65234,8138,200,0,0,0,0,0
824,1762970044646,65241,8152,191,0,0,0,0,0
825,1762970044762,65248,8123,204,0,0,0,0,0
826,1762970044813,65237,8141,207,0,0,0,0,0
827,1762970044912,65240,8125,208,0,0,0,0,0
828,1762970045045,65239,8124,208,0,0,0,0,0
829,1762970045096,65236,8137,198,0,0,0,0,0
830,1762970045246,65252,8127,201,0,0,0,0,0
831,1762970045279,65226,8138,196,0,0,0,0,0
832,1762970045381,65232,8149,202,0,0,0,0,0
833,1762970045446,65235,8131,204,0,0,0,0,0
834,1762970046344,65246,8134,204,0,0,0,0,0
835,1762970046511,65241,8135,207,3.31,0,0,0,0
836,1762970046561,65230,8139,200,0,0,0,0,0
837,1762970046627,65241,8132,196,0,0,0,0,0
838,1762970046661,65241,8136,202,0,0,0,0,0
839,1762970046744,65238,8135,207,0,0,0,0,0
840,1762970046812,65238,8131,205,0,0,0,0,0
841,1762970046894,65238,8130,197,0,0,0,0,0
842,1762970046960,65240,8135,210,0,0,0,0,0
843,1762970047045,65237,8126,205,0,0,0,0,0
844,1762970047094,65237,8130,200,0,0,0,0,0
845,1762970047161,65238,8134,192,0,0,0,0,0
846,1762970047227,65231,8140,197,1,0,0,0,0
847,1762970047294,65250,8140,205,0,0,0,0,0
848,1762970047427,65238,8128,200,0,0,0,0,0
849,1762970047530,65245,8130,204,0,0,0,0,0
850,1762970047577,65255,8123,196,0,0,0,0,0
851,1762970047632,65234,8136,207,0,0,0,0,0
852,1762970047693,65241,8132,204,0,0,0,0,0
853,1762970047743,65242,8133,210,0,0,0,0,0
854,1762970047794,65236,8135,209,0,0,0,0,0
855,1762970047945,65238,8140,200,0,0,0,0,0
856,1762970047959,65240,8128,200,0,0,0,0,0
857,1762970048009,65247,8133,199,0,0,0,0,0
858,1762970048109,65240,8140,200,0,0,0,0,0
859,1762970048210,65237,8126,208,0,0,0,0,0
860,1762970048226,65234,8127,199,0,0,0,0,0
861,1762970048293,65235,8136,205,0,0,0,0,0
862,1762970048327,65242,8136,200,0,0,0,0,0
863,1762970048411,65234,8132,205,0,0,0,0,0
864,1762970048509,65238,8136,201,0,0,0,0,0
865,1762970048526,65236,8130,196,0,0,0,0,0
866,1762970048593,65236,8135,204,0,0,0,0,0
867,1762970048642,65245,8133,207,0,0,0,0,0
868,1762970048692,65235,8137,208,0,0,0,0,0
869,1762970048742,65238,8140,205,0,0,0,0,0
870,1762970048892,65235,8132,206,0,0,0,0,0
871,1762970048943,65240,8135,202,0,0,0,0,0
872,1762970048992,65236,8126,207,0,0,0,0,0
873,1762970049060,65231,8138,207,1,0,0,0,0
874,1762970049126,65233,8137,201,0,0,0,0,0
875,1762970049159,65240,8142,208,0,0,0,0,0
876,1762970049224,65244,8129,202,0,0,0,0,0
877,1762970049258,65237,8129,210,0,0,0,0,0
878,1762970049292,65240,8132,209,0,0,0,0,0
879,1762970049341,65246,8130,204,0,0,0,0,0
880,1762970049392,65241,8140,198,0,0,0,0,0
881,1762970049441,65240,8140,206,0,0,0,0,0
882,1762970049507,65246,8130,205,0,0,0,0,0
883,1762970049541,65239,8143,203,0,0,0,0,0
884,1762970049607,65242,8132,203,0,0,0,0,0
885,1762970049657,65229,8134,199,0,0,0,0,0
886,1762970049723,65236,8134,208,0,0,0,0,0
887,1762970049790,65246,8134,200,0,0,0,0,0
888,1762970049874,65241,8133,207,0,0,0,0,0
889,1762970049974,65248,8136,200,0,0,0,0,0
890,1762970050040,65241,8143,208,0,0,0,0,0
891,1762970050074,65246,8137,207,0,0,0,0,0
892,1762970050194,65236,8138,209,3.32,0,0,0,0
893,1762970050257,65234,8132,208,0,0,0,0,0
894,1762970050307,65238,8137,199,0,0,0,0,0
895,1762970050391,65233,8132,196,0,0,0,0,0
896,1762970050424,65237,8134,199,0,0,0,0,0
897,1762970050473,65245,8136,202,0,0,0,0,0
898,1762970050506,65235,8135,199,0,0,0,0,0
899,1762970050573,65233,8128,202,0,0,0,0,0
900,1762970050639,65234,8133,214,33196,0,0,0,0
901,1762970050706,65241,8136,206,0,0,0,0,0
902,1762970050740,65238,8129,201,0,0,0,0,0
903,1762970050807,65237,8135,197,0,0,0,0,0
904,1762970050856,65233,8131,208,1,0,0,0,0
905,1762970050939,65238,8135,204,0,0,0,0,0
906,1762970050973,65244,8134,201,0,0,0,0,0
907,1762970051023,65230,8132,204,0,0,0,0,0
908,1762970051073,65235,8123,209,3.32,0,0,0,0
909,1762970051173,65244,8138,209,0,0,0,0,0
910,1762970051240,65240,8133,215,0,0,0,0,0
911,1762970051274,65234,8133,202,0,0,0,0,0
912,1762970051339,65240,8139,202,0,0,0,0,0
913,1762970051374,65246,8135,204,0,0,0,0,0
914,1762970051426,65234,8134,216,0,0,0,0,0
915,1762970051489,65236,8133,199,0,0,0,0,0
916,1762970051556,65239,8128,201,0,0,0,0,0
917,1762970051606,65240,8136,200,0,0,0,0,0
918,1762970051656,65242,8132,215,0,0,0,0,0
919,1762970051725,65234,8133,200,0,0,0,0,0
920,1762970051789,65237,8133,208,0,0,0,0,0
921,1762970051872,65242,8139,202,0,0,0,0,0
922,1762970051972,65236,8137,210,0,0,0,0,0
923,1762970052022,65243,8133,198,0,0,0,0,0
924,1762970052089,65230,8133,205,0,0,0,0,0
925,1762970052140,65244,8130,209,0,0,0,0,0
926,1762970052172,65231,8134,204,0,0,0,0,0
927,1762970052255,65244,8138,196,0,0,0,0,0
928,1762970052289,65234,8132,206,0,0,0,0,0
929,1762970052405,65236,8128,202,0,0,0,0,0
930,1762970052505,65237,8136,205,0,0,0,0,0
931,1762970052575,65237,8138,208,0,0,0,0,0
932,1762970052606,65232,8132,202,0,0,0,0,0
933,1762970052689,65240,8134,207,0,0,0,0,0
934,1762970052722,65241,8134,201,0,0,0,0,0
935,1762970052788,65232,8136,204,0,0,0,0,0
936,1762970052822,65242,8136,200,0,0,0,0,0
937,1762970052906,65239,8137,213,3.32,0,0,0,0
938,1762970052971,65242,8130,202,0,0,0,0,0
939,1762970053038,65238,8131,208,0,0,0,0,0
940,1762970053121,65242,8132,204,0,0,0,0,0
941,1762970053155,65235,8128,209,0,0,0,0,0
942,1762970053256,65240,8132,208,0,0,0,0,0
943,1762970053354,65232,8130,207,0,0,0,0,0
944,1762970053374,65234,8140,198,0,0,0,0,0
945,1762970053488,65238,8135,210,0,0,0,0,0
946,1762970053537,65238,8133,196,0,0,0,0,0
947,1762970053590,65231,8139,202,1,0,0,0,0
948,1762970053671,65237,8128,209,0,0,0,0,0
949,1762970053704,65246,8145,200,0,0,0,0,0
950,1762970053837,65243,8142,204,0,0,0,0,0
951,1762970053904,65237,8129,210,0,0,0,0,0
952,1762970053970,65226,8132,201,0,0,0,0,0
953,1762970054004,65250,8137,206,0,0,0,0,0
954,1762970054054,65227,8132,216,0,0,0,0,0
955,1762970054120,65226,8138,204,0,0,0,0,0
956,1762970054170,65243,8134,205,0,0,0,0,0
957,1762970054237,65254,8136,200,0,0,0,0,0
958,1762970054320,65220,8129,202,0,0,0,0,0
959,1762970054353,65224,8131,198,0,0,0,0,0
960,1762970054403,65247,8134,204,0,0,0,0,0
961,1762970054470,65252,8135,199,0,0,0,0,0
962,1762970054538,65229,8139,213,0,0,0,0,0
963,1762970054569,65220,8131,201,0,0,0,0,0
964,1762970054621,65229,8134,206,0,0,0,0,0
965,1762970054670,65246,8134,198,0,0,0,0,0
966,1762970054803,65228,8136,205,0,0,0,0,0
967,1762970054903,65242,8139,201,0,0,0,0,0
968,1762970054936,65253,8135,204,0,0,0,0,0
969,1762970055037,65227,8136,206,0,0,0,0,0
970,1762970055121,65244,8137,212,0,0,0,0,0
971,1762970055137,65246,8129,202,0,0,0,0,0
972,1762970055219,65231,8133,206,0,0,0,0,0
973,1762970055269,65232,8136,208,0,0,0,0,0
974,1762970055336,65242,8136,200,0,0,0,0,0
975,1762970055386,65250,8131,200,0,0,0,0,0
976,1762970055452,65224,8133,203,0,0,0,0,0
977,1762970055553,65234,8146,203,0,0,0,0,0
978,1762970055637,65245,8135,204,0,0,0,0,0
979,1762970055802,65236,8135,210,0,0,0,0,0
980,1762970055853,65238,8130,202,0,0,0,0,0
981,1762970055952,65242,8137,206,0,0,0,0,0
982,1762970056052,65238,8129,202,0,0,0,0,0
983,1762970056185,65237,8131,207,0,0,0,0,0
984,1762970056302,65234,8136,207,0,0,0,0,0
985,1762970056336,65234,8134,202,0,0,0,0,0
986,1762970056436,65234,8144,210,0,0,0,0,0
987,1762970056501,65238,8134,202,0,0,0,0,0
988,1762970056552,65240,8138,206,33196,0,0,0,0
989,1762970056618,65244,8138,203,0,0,0,0,0
990,1762970056669,65237,8128,197,0,0,0,0,0
991,1762970056736,65237,8136,200,0,0,0,0,0
992,1762970056768,65229,8136,206,0,0,0,0,0
993,1762970056852,65242,8136,201,0,0,0,0,0
994,1762970056885,65231,8132,204,0,0,0,0,0
995,1762970056952,65232,8131,206,0,0,0,0,0
996,1762970057035,65240,8139,204,33195,0,0,0,0
997,1762970057118,65241,8130,206,0,0,0,0,0
998,1762970057135,65235,8137,215,0,0,0,0,0
999,1762970057252,65229,8132,204,0,0,0,0,0
1000,1762970057336,65240,8139,204,1,0,0,0,0
1001,1762970057435,65244,8134,198,0,0,0,0,0
1002,1762970057519,65231,8134,210,0,0,0,0,0
1003,1762970057552,65240,8136,200,0,0,0,0,0
1004,1762970057585,65232,8126,200,0,0,0,0,0
1005,1762970057635,65243,8132,204,0,0,0,0,0
1006,1762970057718,65246,8135,204,0,0,0,0,0
1007,1762970057768,65243,8132,198,0,0,0,0,0
1008,1762970057851,65229,8134,213,0,0,0,0,0
1009,1762970057901,65243,8132,208,0,0,0,0,0
1010,1762970057985,65241,8137,198,0,0,0,0,0
1011,1762970058017,65233,8132,210,0,0,0,0,0
1012,1762970058101,65244,8136,211,0,0,0,0,0
1013,1762970058201,65250,8134,200,0,0,0,0,0
1014,1762970058217,65233,8130,205,0,0,0,0,0
1015,1762970058284,65226,8132,192,0,0,0,0,0
1016,1762970058317,65244,8133,204,0,0,0,0,0
1017,1762970058417,65235,8136,202,0,0,0,0,0
1018,1762970058467,65237,8128,206,0,0,0,0,0
1019,1762970058567,65248,8131,206,0,0,0,0,0
1020,1762970058634,65237,8132,201,0,0,0,0,0
1021,1762970058700,65232,8133,206,0,0,0,0,0
1022,1762970058750,65239,8128,206,0,0,0,0,0
1023,1762970058901,65223,8128,205,0,0,0,0,0
1024,1762970058951,65235,8138,206,0,0,0,0,0
1025,1762970059001,65244,8139,209,0,0,0,0,0
1026,1762970059083,65240,8142,204,0,0,0,0,0
1027,1762970059116,65235,8133,213,0,0,0,0,0
1028,1762970059201,65229,8136,201,0,0,0,0,0
1029,1762970059216,65234,8131,212,0,0,0,0,0
1030,1762970059399,65234,8134,206,0,0,0,0,0
1031,1762970059450,65238,8130,202,0,0,0,0,0
1032,1762970059532,65246,8130,207,0,0,0,0,0
1033,1762970059600,65236,8136,205,0,0,0,0,0
1034,1762970059633,65224,8132,205,0,0,0,0,0
1035,1762970059700,65234,8134,206,0,0,0,0,0
1036,1762970059751,65244,8140,210,33196,0,0,0,0
1037,1762970059848,65246,8134,207,0,0,0,0,0
1038,1762970059948,65238,8134,204,0,0,0,0,0
1039,1762970059983,65235,8141,212,1,0,0,0,0
1040,1762970060082,65238,8141,204,0,0,0,0,0
1041,1762970060099,65236,8128,195,0,0,0,0,0
1042,1762970060182,65240,8134,205,0,0,0,0,0
1043,1762970060248,65243,8133,194,0,0,0,0,0
1044,1762970060348,65225,8133,209,0,0,0,0,0
1045,1762970060482,65248,8136,201,0,0,0,0,0
1046,1762970060549,65238,8134,206,0,0,0,0,0
1047,1762970060648,65238,8136,199,3.31,0,0,0,0
1048,1762970060714,65253,8136,204,0,0,0,0,0
1049,1762970060748,65223,8126,197,0,0,0,0,0
1050,1762970060898,65245,8134,202,0,0,0,0,0
1051,1762970060948,65235,8145,214,0,0,0,0,0
1052,1762970061050,65233,8137,210,0,0,0,0,0
1053,1762970061150,65248,8137,206,0,0,0,0,0
1054,1762970061231,65226,8136,207,0,0,0,0,0
1055,1762970061350,65246,8132,207,0,0,0,0,0
1056,1762970061432,65239,8130,202,0,0,0,0,0
1057,1762970061531,65233,8135,200,0,0,0,0,0
1058,1762970061581,65247,8132,191,0,0,0,0,0
1059,1762970061614,65241,8129,210,0,0,0,0,0
1060,1762970061830,65253,8137,191,0,0,0,0,0
1061,1762970061847,65248,8133,192,0,0,0,0,0
1062,1762970061980,65236,8141,207,0,0,0,0,0
1063,1762970062014,65240,8138,204,0,0,0,0,0
1064,1762970062113,65238,8137,200,0,0,0,0,0
1065,1762970062130,65236,8136,201,0,0,0,0,0
1066,1762970062164,65232,8133,210,0,0,0,0,0
1067,1762970062213,65235,8130,200,0,0,0,0,0
1068,1762970062247,65236,8141,206,0,0,0,0,0
1069,1762970062364,65236,8128,207,0,0,0,0,0
1070,1762970062430,65235,8142,201,0,0,0,0,0
1071,1762970062496,65230,8126,207,0,0,0,0,0
1072,1762970062613,65234,8133,196,0,0,0,0,0
1073,1762970062729,65241,8125,205,0,0,0,0,0
1074,1762970062830,65240,8132,208,0,0,0,0,0
1075,1762970062946,65233,8137,204,0,0,0,0,0
1076,1762970063029,65244,8138,210,0,0,0,0,0
1077,1762970063079,65234,8136,207,0,0,0,0,0
1078,1762970063181,65233,8134,197,1,0,0,0,0
1079,1762970063280,65244,8128,192,0,0,0,0,0
1080,1762970063329,65230,8140,204,0,0,0,0,0
1081,1762970063397,65249,8142,212,3.26,0,0,0,0
1082,1762970063496,65240,8140,198,0,0,0,0,0
1083,1762970063596,65240,8135,201,0,0,0,0,0
1084,1762970063629,65242,8138,203,1,0,0,0,0
1085,1762970063695,65236,8138,212,0,0,0,0,0
1086,1762970063729,65246,8132,209,0,0,0,0,0
1087,1762970063814,65239,8136,204,0,0,0,0,0
1088,1762970063914,65228,8144,218,0,0,0,0,0
1089,1762970064029,65250,8142,218,0,0,0,0,0
1090,1762970064228,65236,8138,209,0,0,0,0,0
1091,1762970064279,65253,8136,206,0,0,0,0,0
1092,1762970064329,65229,8144,206,0,0,0,0,0
1093,1762970064479,65238,8134,196,0,0,0,0,0
1094,1762970064512,65256,8141,204,0,0,0,0,0
1095,1762970064696,65248,8137,205,0,0,0,0,0
1096,1762970064712,65259,8135,206,0,0,0,0,0
1097,1762970064794,65223,8128,195,0,0,0,0,0
1098,1762970064895,65231,8128,197,0,0,0,0,0
1099,1762970064945,65252,8135,205,0,0,0,0,0
1100,1762970064962,65246,8140,210,0,0,0,0,0
1101,1762970065094,65197,8128,208,0,0,0,0,0
1102,1762970065145,65233,8140,204,0,0,0,0,0
1103,1762970065328,65202,8132,196,0,0,0,0,0
1104,1762970065462,65229,8135,206,0,0,0,0,0
1105,1762970065528,65198,8126,197,0,0,0,0,0
1106,1762970065661,65276,8137,193,3.26,0,0,0,0
1107,1762970065712,65239,8141,212,0,0,0,0,0
1108,1762970066227,65241,8126,182,0,0,0,0,0
1109,1762970066360,65248,8142,204,0,0,0,0,0
1110,1762970066461,65225,8134,194,0,0,0,0,0
1111,1762970066544,65257,8135,208,0,0,0,0,0
1112,1762970066595,65240,8144,200,0,0,0,0,0
1113,1762970066661,65218,8126,210,0,0,0,0,0
1114,1762970066711,65256,8138,208,0,0,0,0,0
1115,1762970066776,65256,8139,204,0,0,0,0,0
1116,1762970066843,65226,8130,202,0,0,0,0,0
1117,1762970066927,65221,8134,193,0,0,0,0,0
1118,1762970066960,65264,8134,210,0,0,0,0,0
1119,1762970067009,65257,8132,200,0,0,0,0,0
1120,1762970067076,65224,8130,200,0,0,0,0,0
1121,1762970067243,65243,8138,198,0,0,0,0,0
1122,1762970067309,65220,8131,199,0,0,0,0,0
1123,1762970067346,65236,8130,205,0,0,0,0,0
1124,1762970067396,65244,8136,194,0,0,0,0,0
1125,1762970067460,65246,8133,215,33160,0,0,0,0
1126,1762970067659,65237,8132,200,0,0,0,0,0
1127,1762970067709,65233,8139,209,0,0,0,0,0
1128,1762970067759,65225,8134,200,0,0,0,0,0
1129,1762970067860,65243,8132,196,0,0,0,0,0
1130,1762970067976,65247,8137,201,0,0,0,0,0
1131,1762970068078,65238,8127,197,0,0,0,0,0
1132,1762970068126,65244,8129,209,0,0,0,0,0
1133,1762970068210,65236,8134,195,0,0,0,0,0
1134,1762970068227,65234,8138,203,0,0,0,0,0
1135,1762970068341,65254,8128,203,0,0,0,0,0
1136,1762970068425,65239,8128,206,0,0,0,0,0
1137,1762970068475,65246,8132,202,0,0,0,0,0
1138,1762970068525,65246,8127,204,0,0,0,0,0
1139,1762970068594,65238,8134,205,0,0,0,0,0
1140,1762970068642,65239,8134,217,0,0,0,0,0
1141,1762970068709,65231,8136,206,0,0,0,0,0
1142,1762970068759,65234,8137,198,0,0,0,0,0
1143,1762970068976,65232,8134,196,0,0,0,0,0
1144,1762970069093,65247,8134,201,1,0,0,0,0
1145,1762970069141,65247,8133,205,0,0,0,0,0
1146,1762970069191,65241,8138,198,0,0,0,0,0
1147,1762970069258,65234,8135,213,0,0,0,0,0
1148,1762970069341,65241,8134,207,33196,0,0,0,0
1149,1762970069409,65250,8133,208,0,0,0,0,0
1150,1762970069443,65238,8135,200,0,0,0,0,0
1151,1762970069575,65254,8142,201,1,0,0,0,0
1152,1762970069641,65240,8130,203,0,0,0,0,0
1153,1762970069657,65239,8132,204,0,0,0,0,0
1154,1762970069790,65248,8144,206,0,0,0,0,0
1155,1762970069907,65230,8132,206,0,0,0,0,0
1156,1762970069957,65233,8133,206,0,0,0,0,0
1157,1762970069991,65238,8133,193,0,0,0,0,0
1158,1762970070007,65246,8140,218,0,0,0,0,0
1159,1762970070075,65238,8140,216,0,0,0,0,0
1160,1762970070108,65227,8132,188,0,0,0,0,0
1161,1762970070175,65238,8136,204,0,0,0,0,0
1162,1762970070259,65244,8136,198,0,0,0,0,0
1163,1762970070308,65228,8134,204,0,0,0,0,0
1164,1762970070375,65232,8130,207,0,0,0,0,0
1165,1762970070424,65244,8145,210,0,0,0,0,0
1166,1762970070491,65242,8136,204,0,0,0,0,0
1167,1762970070525,65231,8131,198,0,0,0,0,0
1168,1762970070591,65231,8134,198,0,0,0,0,0
1169,1762970070641,65245,8136,204,0,0,0,0,0
1170,1762970070723,65239,8134,208,0,0,0,0,0
1171,1762970070757,65231,8131,200,0,0,0,0,0
1172,1762970070840,65243,8134,205,0,0,0,0,0
1173,1762970070873,65242,8134,206,0,0,0,0,0
1174,1762970070974,65237,8139,206,0,0,0,0,0
1175,1762970070990,65237,8140,198,0,0,0,0,0
1176,1762970071106,65246,8134,212,0,0,0,0,0
1177,1762970071206,65230,8138,202,0,0,0,0,0
1178,1762970071306,65238,8140,202,0,0,0,0,0
1179,1762970071408,65242,8137,206,0,0,0,0,0
1180,1762970071473,65236,8132,206,0,0,0,0,0
1181,1762970071523,65246,8137,212,0,0,0,0,0
1182,1762970071605,65246,8138,196,0,0,0,0,0
1183,1762970071639,65241,8136,212,0,0,0,0,0
1184,1762970071722,65246,8136,201,0,0,0,0,0
1185,1762970071756,65242,8130,197,0,0,0,0,0
1186,1762970071856,65240,8129,204,0,0,0,0,0
1187,1762970071872,65241,8134,207,0,0,0,0,0
1188,1762970071940,65244,8132,204,0,0,0,0,0
1189,1762970071989,65236,8134,199,0,0,0,0,0
1190,1762970072056,65230,8138,205,3.32,0,0,0,0
1191,1762970072122,65247,8132,201,0,0,0,0,0
1192,1762970072272,65237,8138,205,0,0,0,0,0
1193,1762970072307,65242,8131,204,1,0,0,0,0
1194,1762970072389,65238,8137,195,0,0,0,0,0
1195,1762970072439,65246,8136,204,0,0,0,0,0
1196,1762970072489,65243,8130,196,0,0,0,0,0
1197,1762970072605,65244,8134,213,0,0,0,0,0
1198,1762970072623,65245,8137,208,0,0,0,0,0
1199,1762970072705,65232,8129,204,0,0,0,0,0
1200,1762970072756,65234,8141,202,0,0,0,0,0
1201,1762970072822,65232,8139,204,0,0,0,0,0
1202,1762970072872,65236,8138,200,0,0,0,0,0
1203,1762970072922,65239,8132,202,0,0,0,0,0
1204,1762970073005,65237,8130,205,0,0,0,0,0
1205,1762970073055,65240,8139,200,0,0,0,0,0
1206,1762970073104,65240,8136,209,0,0,0,0,0
1207,1762970073154,65233,8138,199,0,0,0,0,0
1208,1762970073222,65239,8138,200,0,0,0,0,0
1209,1762970073272,65239,8142,205,0,0,0,0,0
1210,1762970073340,65239,8132,208,0,0,0,0,0
1211,1762970073403,65250,8134,199,3.31,0,0,0,0
1212,1762970073487,65238,8127,201,0,0,0,0,0
1213,1762970073521,65231,8138,196,0,0,0,0,0
1214,1762970073587,65243,8133,202,0,0,0,0,0
1215,1762970073653,65243,8137,212,0,0,0,0,0
1216,1762970073704,65235,8132,212,0,0,0,0,0
1217,1762970073771,65241,8131,207,0,0,0,0,0
1218,1762970073870,65236,8132,204,0,0,0,0,0
1219,1762970073971,65238,8140,201,0,0,0,0,0
1220,1762970074003,65237,8130,197,0,0,0,0,0
1221,1762970074054,65246,8146,208,0,0,0,0,0
1222,1762970074136,65244,8143,205,0,0,0,0,0
1223,1762970074186,65225,8131,208,0,0,0,0,0
1224,1762970074286,65247,8135,204,0,0,0,0,0
1225,1762970074354,65243,8133,202,0,0,0,0,0
1226,1762970074419,65233,8133,202,0,0,0,0,0
1227,1762970074470,65242,8138,209,0,0,0,0,0
1228,1762970074536,65242,8132,204,0,0,0,0,0
1229,1762970074586,65242,8138,207,0,0,0,0,0
1230,1762970074652,65230,8132,186,0,0,0,0,0
1231,1762970074703,65247,8133,194,0,0,0,0,0
1232,1762970074803,65248,8129,204,0,0,0,0,0
1233,1762970074903,65242,8140,211,0,0,0,0,0
1234,1762970075053,65228,8129,214,0,0,0,0,0
1235,1762970075119,65238,8137,210,0,0,0,0,0
1236,1762970075152,65244,8132,206,0,0,0,0,0
1237,1762970075286,65231,8122,203,0,0,0,0,0
1238,1762970075385,65250,8143,212,0,0,0,0,0
1239,1762970075468,65235,8136,202,1,0,0,0,0
1240,1762970075519,65231,8138,208,0,0,0,0,0
1241,1762970075569,65244,8127,203,0,0,0,0,0
1242,1762970075620,65244,8143,214,0,0,0,0,0
1243,1762970075702,65239,8135,198,3.32,0,0,0,0
1244,1762970075787,65229,8140,206,0,0,0,0,0
1245,1762970075836,65252,8128,205,0,0,0,0,0
1246,1762970075936,65245,8138,205,0,0,0,0,0
1247,1762970076019,65234,8134,207,0,0,0,0,0
1248,1762970076086,65233,8133,200,0,0,0,0,0
1249,1762970076152,65253,8136,216,32570,0,0,0,0
1250,1762970076235,65226,8131,206,0,0,0,0,0
1251,1762970076253,65237,8135,208,0,0,0,0,0
1252,1762970076336,65254,8138,206,0,0,0,0,0
1253,1762970076385,65234,8136,193,0,0,0,0,0
1254,1762970076452,65229,8140,198,0,0,0,0,0
1255,1762970076486,65237,8128,210,0,0,0,0,0
1256,1762970076553,65249,8134,209,0,0,0,0,0
1257,1762970076620,65233,8135,200,0,0,0,0,0
1258,1762970076669,65233,8129,201,0,0,0,0,0
1259,1762970076719,65238,8130,209,0,0,0,0,0
1260,1762970076785,65243,8134,208,0,0,0,0,0
1261,1762970076851,65237,8133,200,0,0,0,0,0
1262,1762970076901,65233,8128,198,0,0,0,0,0
1263,1762970076953,65239,8132,193,0,0,0,0,0
1264,1762970077018,65252,8138,210,0,0,0,0,0
1265,1762970077118,65230,8139,201,0,0,0,0,0
1266,1762970077201,65249,8131,213,0,0,0,0,0
1267,1762970077267,65236,8138,197,0,0,0,0,0
1268,1762970077301,65229,8130,204,1,0,0,0,0
1269,1762970077335,65230,8132,193,0,0,0,0,0
1270,1762970077469,65242,8134,198,0,0,0,0,0
1271,1762970077536,65234,8132,206,3.32,0,0,0,0
1272,1762970077567,65237,8137,196,0,0,0,0,0
1273,1762970077634,65243,8140,210,0,0,0,0,0
1274,1762970077667,65237,8128,202,0,0,0,0,0
1275,1762970077801,65237,8133,202,0,0,0,0,0
1276,1762970077951,65237,8140,200,0,0,0,0,0
1277,1762970078001,65237,8138,201,0,0,0,0,0
1278,1762970078034,65241,8135,204,0,0,0,0,0
1279,1762970078084,65242,8140,208,0,0,0,0,0
1280,1762970078117,65227,8141,203,0,0,0,0,0
1281,1762970078234,65232,8138,226,0,0,0,0,0
1282,1762970078301,65232,8132,257,0,0,0,0,0
1283,1762970078351,65227,8136,212,0,0,0,0,0
1284,1762970078418,65218,8142,207,0,0,0,0,0
1285,1762970078467,65251,8121,212,0,0,0,0,0
1286,1762970078534,65231,8133,216,0,0,0,0,0
1287,1762970078583,65242,8135,225,0,0,0,0,0
1288,1762970078651,65230,8138,202,0,0,0,0,0
1289,1762970078701,65246,8132,180,0,0,0,0,0
1290,1762970078767,65228,8130,212,0,0,0,0,0
1291,1762970078817,65243,8140,239,1694,0,0,0,0
1292,1762970078983,65215,8142,168,0,0,0,0,0
1293,1762970079100,65238,8122,218,0,0,0,0,0
1294,1762970079250,65230,8127,210,0,0,0,0,0
1295,1762970079350,65240,8129,194,0,0,0,0,0
1296,1762970079417,65245,8129,206,0,0,0,0,0
1297,1762970079450,65232,8124,190,0,0,0,0,0
1298,1762970079516,65244,8131,204,0,0,0,0,0
1299,1762970079566,65241,8132,198,0,0,0,0,0
1300,1762970079617,65240,8132,202,0,0,0,0,0
1301,1762970079650,65236,8136,204,0,0,0,0,0
1302,1762970079716,65231,8135,204,0,0,0,0,0
1303,1762970079799,65242,8135,200,0,0,0,0,0
1304,1762970079866,65240,8139,206,0,0,0,0,0
1305,1762970079933,65234,8133,199,0,0,0,0,0
1306,1762970080016,65234,8129,197,0,0,0,0,0
1307,1762970080033,65244,8142,205,1,0,0,0,0
1308,1762970080066,65237,8142,194,1,0,0,0,0
1309,1762970080100,65235,8134,202,0,0,0,0,0
1310,1762970080233,65242,8131,205,0,0,0,0,0
1311,1762970080332,65242,8136,196,0,0,0,0,0
1312,1762970080415,65236,8136,202,0,0,0,0,0
1313,1762970080481,65237,8134,200,1,0,0,0,0
1314,1762970080566,65236,8132,207,0,0,0,0,0
1315,1762970080616,65236,8134,192,0,0,0,0,0
1316,1762970080665,65225,8116,164,33191,0,0,0,0
1317,1762970080765,65217,8126,201,0,0,0,0,0
1318,1762970080899,65235,8132,211,0,0,0,0,0
1319,1762970080965,65244,8128,198,1,0,0,0,0
1320,1762970081016,65244,8124,185,0,0,0,0,0
1321,1762970081066,65239,8139,204,0,0,0,0,0
1322,1762970081116,65242,8131,196,158,0,0,0,0
1323,1762970081182,65238,8133,204,0,0,0,0,0
1324,1762970081232,65256,8128,160,0,0,0,0,0
1325,1762970081281,65290,8135,108,0,0,0,0,0
1326,1762970081331,65240,8148,235,0,0,0,0,0
1327,1762970081398,65228,8137,178,0,0,0,0,0
1328,1762970081448,65233,8137,215,159,0,0,0,0
1329,1762970081514,65230,8124,197,3.32,0,0,0,0
1330,1762970081582,65238,8144,229,64765,0,0,0,0
1331,1762970081631,65242,8122,190,0,0,0,0,0
1332,1762970081697,65238,8127,224,0,0,0,0,0
1333,1762970081749,65240,8143,219,1,0,0,0,0
1334,1762970081832,65237,8132,206,0,0,0,0,0
1335,1762970081964,65235,8132,204,0,0,0,0,0
1336,1762970082066,65236,8130,210,0,0,0,0,0
1337,1762970082133,65236,8137,202,0,0,0,0,0
1338,1762970082181,65245,8122,199,0,0,0,0,0
1339,1762970082247,65232,8138,212,0,0,0,0,0
1340,1762970082280,65238,8136,206,0,0,0,0,0
1341,1762970082350,65231,8132,200,0,0,0,0,0
1342,1762970082397,65240,8134,206,0,0,0,0,0
1343,1762970082480,65232,8138,204,64936,0,0,0,0
1344,1762970082530,65234,8134,202,0,0,0,0,0
1345,1762970082597,65242,8138,209,0,0,0,0,0
1346,1762970082630,65239,8138,198,0,0,0,0,0
1347,1762970082713,65238,8132,204,0,0,0,0,0
1348,1762970082748,65236,8134,203,0,0,0,0,0
1349,1762970082863,65238,8132,206,0,0,0,0,0
1350,1762970082997,65244,8135,204,0,0,0,0,0
1351,1762970083047,65246,8135,202,0,0,0,0,0
1352,1762970083080,65244,8138,197,0,0,0,0,0
1353,1762970083146,65245,8131,206,0,0,0,0,0
1354,1762970083180,65236,8131,209,0,0,0,0,0
1355,1762970083263,65230,8132,204,0,0,0,0,0
1356,1762970083296,65241,8133,200,0,0,0,0,0
1357,1762970083381,65242,8138,206,0,0,0,0,0
1358,1762970083414,65240,8130,203,0,0,0,0,0
1359,1762970083479,65237,8134,206,0,0,0,0,0
1360,1762970083529,65240,8136,204,0,0,0,0,0
1361,1762970083580,65240,8133,195,0,0,0,0,0
1362,1762970083647,65233,8136,207,0,0,0,0,0
1363,1762970083697,65234,8137,199,0,0,0,0,0
1364,1762970083729,65236,8136,208,0,0,0,0,0
1365,1762970083913,65240,8130,202,0,0,0,0,0
1366,1762970083945,65245,8124,202,0,0,0,0,0
1367,1762970083996,65239,8131,195,164,0,0,0,0
1368,1762970084046,65242,8135,197,0,0,0,0,0
1369,1762970084079,65233,8132,202,0,0,0,0,0
1370,1762970084147,65236,8137,204,0,0,0,0,0
1371,1762970084196,65237,8133,207,162,0,0,0,0
1372,1762970084263,65243,8132,206,33179,0,0,0,0
1373,1762970084346,65238,8133,196,0,0,0,0,0
1374,1762970084378,65234,8132,203,0,0,0,0,0
1375,1762970084446,65254,8136,204,0,0,0,0,0
1376,1762970084478,65234,8136,208,1,0,0,0,0
1377,1762970084579,65240,8133,199,0,0,0,0,0
1378,1762970084946,65231,8139,208,167,0,0,0,0
1379,1762970084979,65236,8127,197,0,0,0,0,0
1380,1762970085013,65236,8136,206,0,0,0,0,0
1381,1762970085228,65240,8132,205,0,0,0,0,0
1382,1762970085262,65237,8133,194,0,0,0,0,0
1383,1762970085346,65237,8134,206,0,0,0,0,0
1384,1762970085412,65248,8134,197,3,0,0,0,0
1385,1762970085478,65245,8138,198,0,0,0,0,0
1386,1762970085513,65239,8135,216,171,0,0,0,0
1387,1762970085629,65243,8135,210,0,0,0,0,0
1388,1762970085729,65238,8134,197,0,0,0,0,0
1389,1762970085795,65238,8129,201,0,0,0,0,0
1390,1762970085947,65236,8132,200,65287,0,0,0,0
1391,1762970085962,65240,8131,204,0,0,0,0,0
1392,1762970086011,65233,8131,198,0,0,0,0,0
1393,1762970086227,65230,8133,196,0,0,0,0,0
1394,1762970086261,65244,8131,211,0,0,0,0,0
1395,1762970086327,65240,8134,212,0,0,0,0,0
1396,1762970086362,65224,8130,198,0,0,0,0,0
1397,1762970086428,65229,8132,209,65318,0,0,0,0
1398,1762970086477,65246,8136,200,0,0,0,0,0
1399,1762970086545,65230,8140,210,0,0,0,0,0
1400,1762970086661,65234,8137,208,0,0,0,0,0
1401,1762970086711,65246,8138,203,0,0,0,0,0
1402,1762970086794,65240,8129,209,65322,0,0,0,0
1403,1762970086944,65235,8133,205,0,0,0,0,0
1404,1762970087108,65240,8135,207,0,0,0,0,0
1405,1762970087194,65234,8134,202,0,0,0,0,0
1406,1762970087360,65242,8132,204,0,0,0,0,0
1407,1762970087410,65235,8124,205,65320,0,0,0,0
1408,1762970087510,65234,8141,208,0,0,0,0,0
1409,1762970087593,65234,8133,212,0,0,0,0,0
1410,1762970087643,65239,8134,207,0,0,0,0,0
1411,1762970087960,65239,8138,206,0,0,0,0,0
1412,1762970088044,65241,8141,204,0,0,0,0,0
1413,1762970088977,65237,8138,211,65328,0,0,0,0
1414,1762970089109,65248,8144,202,0,0,0,0,0
1415,1762970089175,65240,8130,210,65332,0,0,0,0
1416,1762970089209,65230,8128,212,0,0,0,0,0
1417,1762970089309,65236,8142,205,0,0,0,0,0
1418,1762970089375,65245,8132,206,0,0,0,0,0
1419,1762970089458,65238,8136,213,0,0,0,0,0
1420,1762970089558,65238,8138,200,0,0,0,0,0
1421,1762970089592,65233,8143,209,0,0,0,0,0
1422,1762970089643,65239,8130,208,0,0,0,0,0
1423,1762970089725,65240,8132,200,3.31,0,0,0,0
1424,1762970089807,65233,8135,200,0,0,0,0,0
1425,1762970090007,65230,8124,209,0,0,0,0,0
1426,1762970090074,65235,8141,210,65329,0,0,0,0
1427,1762970090125,65239,8142,198,0,0,0,0,0
1428,1762970090208,65232,8138,204,0,0,0,0,0
1429,1762970090241,65234,8134,206,177,0,0,0,0
1430,1762970090307,65242,8137,206,0,0,0,0,0
1431,1762970090375,65239,8134,208,5,0,0,0,0
1432,1762970090426,65241,8136,201,0,0,0,0,0
1433,1762970090491,65235,8132,202,0,0,0,0,0
1434,1762970090541,65236,8138,206,0,0,0,0,0
1435,1762970090642,65229,8136,206,3.32,0,0,0,0
1436,1762970090708,65234,8136,208,5,0,0,0,0
1437,1762970090775,65244,8130,212,0,0,0,0,0
1438,1762970090841,65246,8137,210,0,0,0,0,0
1439,1762970090907,65232,8132,198,1,0,0,0,0
1440,1762970090957,65236,8137,204,0,0,0,0,0
1441,1762970090990,65242,8141,208,0,0,0,0,0
1442,1762970091074,65237,8135,210,0,0,0,0,0
1443,1762970091141,65240,8135,203,0,0,0,0,0
1444,1762970091206,65240,8134,202,0,0,0,0,0
1445,1762970091289,65246,8135,203,0,0,0,0,0
1446,1762970091439,65236,8134,208,65321,0,0,0,0
1447,1762970091456,65242,8135,209,0,0,0,0,0
1448,1762970091522,65236,8138,201,0,0,0,0,0
1449,1762970091572,65238,8134,197,177,0,0,0,0
1450,1762970091638,65240,8130,210,0,0,0,0,0
1451,1762970091689,65238,8132,209,65329,0,0,0,0
1452,1762970091739,65236,8141,199,0,0,0,0,0
1453,1762970091905,65249,8138,208,0,0,0,0,0
1454,1762970091955,65239,8132,198,0,0,0,0,0
1455,1762970092005,65242,8132,203,3.26,0,0,0,0
1456,1762970092072,65248,8132,198,0,0,0,0,0
1457,1762970092121,65239,8141,223,0,0,0,0,0
1458,1762970092188,65233,8135,191,0,0,0,0,0
1459,1762970092254,65236,8133,204,0,0,0,0,0
1460,1762970092288,65250,8128,204,0,0,0,0,0
1461,1762970092354,65238,8131,201,0,0,0,0,0
1462,1762970092405,65244,8140,210,0,0,0,0,0
1463,1762970092488,65232,8140,196,0,0,0,0,0
1464,1762970092522,65232,8130,208,0,0,0,0,0
1465,1762970092604,65236,8129,201,0,0,0,0,0
1466,1762970092638,65246,8134,202,0,0,0,0,0
1467,1762970092722,65245,8130,206,0,0,0,0,0
1468,1762970092754,65242,8132,216,0,0,0,0,0
1469,1762970092855,65236,8129,206,0,0,0,0,0
1470,1762970092889,65233,8135,200,0,0,0,0,0
1471,1762970093089,65242,8132,203,0,0,0,0,0
1472,1762970093154,65239,8138,208,1,0,0,0,0
1473,1762970093173,65229,8125,208,0,0,0,0,0
1474,1762970093254,65234,8134,210,0,0,0,0,0
1475,1762970093288,65242,8134,212,0,0,0,0,0
1476,1762970093406,65238,8132,207,0,0,0,0,0
1477,1762970093420,65238,8137,203,0,0,0,0,0
1478,1762970093507,65238,8143,204,0,0,0,0,0
1479,1762970093536,65242,8133,204,0,0,0,0,0
1480,1762970093654,65244,8126,206,0,0,0,0,0
1481,1762970093720,65232,8131,211,0,0,0,0,0
1482,1762970093786,65230,8133,209,0,0,0,0,0
1483,1762970093937,65242,8137,202,0,0,0,0,0
1484,1762970093971,65235,8133,207,0,0,0,0,0
1485,1762970094070,65252,8134,206,0,0,0,0,0
1486,1762970094186,65226,8132,198,0,0,0,0,0
1487,1762970094269,65233,8134,203,0,0,0,0,0
1488,1762970094320,65238,8138,212,0,0,0,0,0
1489,1762970094386,65236,8134,207,0,0,0,0,0
1490,1762970094452,65234,8136,213,0,0,0,0,0
1491,1762970094486,65236,8135,203,0,0,0,0,0
1492,1762970094554,65236,8136,212,0,0,0,0,0
1493,1762970094603,65242,8126,202,0,0,0,0,0
1494,1762970094671,65236,8134,201,0,0,0,0,0
1495,1762970094737,65250,8132,212,3.26,0,0,0,0
1496,1762970094820,65235,8134,214,0,0,0,0,0
1497,1762970094853,65235,8132,198,0,0,0,0,0
1498,1762970094970,65232,8132,196,0,0,0,0,0
1499,1762970094987,65240,8131,200,0,0,0,0,0
1500,1762970095038,65239,8138,201,0,0,0,0,0
1501,1762970095089,65235,8132,204,0,0,0,0,0
1502,1762970095138,65232,8134,196,0,0,0,0,0
1503,1762970095270,65239,8130,211,0,0,0,0,0
1504,1762970095386,65233,8130,211,0,0,0,0,0
1505,1762970095470,65244,8138,200,0,0,0,0,0
1506,1762970095503,65243,8132,200,0,0,0,0,0
1507,1762970095587,65241,8135,202,0,0,0,0,0
1508,1762970095653,65238,8132,211,0,0,0,0,0
1509,1762970095703,65232,8133,201,0,0,0,0,0
1510,1762970095770,65233,8134,202,0,0,0,0,0
1511,1762970095820,65242,8132,202,0,0,0,0,0
1512,1762970095936,65236,8138,208,0,0,0,0,0
1513,1762970095986,65234,8136,200,0,0,0,0,0
1514,1762970096042,65242,8132,209,0,0,0,0,0
1515,1762970096157,65241,8143,209,0,0,0,0,0
1516,1762970096237,65246,8138,205,0,0,0,0,0
1517,1762970096287,65228,8138,200,0,0,0,0,0
1518,1762970096353,65230,8132,208,0,0,0,0,0
1519,1762970096386,65238,8140,202,0,0,0,0,0
1520,1762970096470,65244,8140,211,0,0,0,0,0
1521,1762970096520,65238,8137,205,0,0,0,0,0
1522,1762970096587,65232,8131,200,0,0,0,0,0
1523,1762970096653,65239,8138,198,0,0,0,0,0
1524,1762970096689,65235,8140,202,0,0,0,0,0
1525,1762970096804,65236,8132,206,0,0,0,0,0
1526,1762970096853,65238,8134,208,0,0,0,0,0
1527,1762970096919,65243,8137,208,0,0,0,0,0
1528,1762970096987,65244,8135,209,0,0,0,0,0
1529,1762970097052,65238,8142,206,0,0,0,0,0
1530,1762970097120,65248,8129,207,0,0,0,0,0
1531,1762970097153,65234,8140,210,0,0,0,0,0
1532,1762970097244,65228,8134,203,0,0,0,0,0
1533,1762970097303,65242,8138,208,0,0,0,0,0
1534,1762970097350,65248,8134,210,0,0,0,0,0
1535,1762970097400,65236,8136,212,0,0,0,0,0
1536,1762970097485,65236,8136,206,3.32,0,0,0,0
1537,1762970097584,65240,8132,208,0,0,0,0,0
1538,1762970097667,65236,8139,207,0,0,0,0,0
1539,1762970097703,65242,8131,208,1,0,0,0,0
1540,1762970097801,65241,8125,209,0,0,0,0,0
1541,1762970097834,65230,8124,204,0,0,0,0,0
1542,1762970097934,65242,8140,209,0,0,0,0,0
1543,1762970098018,65234,8134,200,0,0,0,0,0
1544,1762970098085,65234,8132,205,0,0,0,0,0
1545,1762970098135,65240,8139,205,0,0,0,0,0
1546,1762970098219,65246,8134,205,0,0,0,0,0
1547,1762970098251,65244,8128,203,0,0,0,0,0
1548,1762970098333,65247,8140,210,0,0,0,0,0
1549,1762970098400,65251,8136,199,0,0,0,0,0
1550,1762970098467,65237,8134,194,0,0,0,0,0
1551,1762970098517,65237,8121,200,0,0,0,0,0
1552,1762970098566,65240,8136,204,0,0,0,0,0
1553,1762970098650,65234,8135,201,0,0,0,0,0
1554,1762970098699,65234,8130,206,0,0,0,0,0
1555,1762970098749,65232,8129,209,0,0,0,0,0
1556,1762970098833,65233,8136,211,0,0,0,0,0
1557,1762970098952,65232,8130,207,0,0,0,0,0
1558,1762970099018,65230,8125,208,0,0,0,0,0
1559,1762970099084,65252,8137,200,0,0,0,0,0
1560,1762970099118,65247,8135,210,0,0,0,0,0
1561,1762970099202,65224,8129,206,0,0,0,0,0
1562,1762970099234,65231,8135,198,0,0,0,0,0
1563,1762970099333,65239,8138,210,0,0,0,0,0
1564,1762970099384,65228,8138,210,0,0,0,0,0
1565,1762970099433,65238,8136,217,0,0,0,0,0
1566,1762970099483,65241,8136,198,0,0,0,0,0
1567,1762970099550,65242,8137,212,0,0,0,0,0
1568,1762970099599,65237,8141,200,0,0,0,0,0
1569,1762970099667,65238,8133,216,0,0,0,0,0
1570,1762970099734,65245,8140,212,0,0,0,0,0
1571,1762970099801,65232,8137,204,0,0,0,0,0
1572,1762970099883,65228,8138,212,0,0,0,0,0
1573,1762970099916,65243,8140,198,0,0,0,0,0
1574,1762970100033,65234,8138,212,0,0,0,0,0
1575,1762970100050,65240,8129,216,0,0,0,0,0
1576,1762970100085,65227,8139,212,0,0,0,0,0
1577,1762970100118,65242,8134,209,0,0,0,0,0
1578,1762970100216,65248,8134,202,33192,0,0,0,0
1579,1762970100268,65235,8128,198,0,0,0,0,0
1580,1762970100317,65235,8134,202,0,0,0,0,0
1581,1762970100367,65245,8137,198,0,0,0,0,0
1582,1762970100434,65238,8140,199,1,0,0,0,0
1583,1762970100484,65232,8130,200,0,0,0,0,0
1584,1762970100551,65243,8138,205,0,0,0,0,0
1585,1762970100617,65236,8130,204,0,0,0,0,0
1586,1762970100682,65235,8133,209,33191,0,0,0,0
1587,1762970100767,65237,8138,204,0,0,0,0,0
1588,1762970100800,65238,8138,214,0,0,0,0,0
1589,1762970100867,65233,8140,210,0,0,0,0,0
1590,1762970100916,65240,8134,199,0,0,0,0,0
1591,1762970100985,65238,8134,204,0,0,0,0,0
1592,1762970101032,65240,8132,205,0,0,0,0,0
1593,1762970101100,65230,8139,206,3.28,0,0,0,0
1594,1762970101216,65248,8133,205,0,0,0,0,0
1595,1762970101333,65234,8137,209,1,0,0,0,0
1596,1762970101415,65248,8139,212,0,0,0,0,0
1597,1762970101448,65243,8133,198,0,0,0,0,0
1598,1762970101531,65233,8132,205,0,0,0,0,0
1599,1762970101616,65238,8132,210,0,0,0,0,0
1600,1762970101649,65236,8128,203,0,0,0,0,0
1601,1762970101715,65236,8140,211,0,0,0,0,0
1602,1762970101765,65238,8130,207,0,0,0,0,0
1603,1762970101849,65230,8138,211,0,0,0,0,0
1604,1762970101881,65247,8131,200,0,0,0,0,0
1605,1762970102032,65231,8135,206,3.27,0,0,0,0
1606,1762970102097,65232,8131,198,0,0,0,0,0
1607,1762970102131,65246,8129,210,0,0,0,0,0
1608,1762970102247,65236,8131,211,0,0,0,0,0
1609,1762970102259,65229,8130,202,0,0,0,0,0
1610,1762970102315,65232,8143,210,0,0,0,0,0
1611,1762970102381,65245,8130,200,0,0,0,0,0
1612,1762970102414,65230,8132,200,0,0,0,0,0
1613,1762970102531,65230,8132,212,0,0,0,0,0
1614,1762970102548,65244,8133,203,0,0,0,0,0
1615,1762970102630,65234,8126,210,0,0,0,0,0
1616,1762970102664,65242,8128,194,0,0,0,0,0
1617,1762970102732,65236,8140,217,0,0,0,0,0
1618,1762970102814,65245,8131,205,0,0,0,0,0
1619,1762970102900,65234,8127,214,0,0,0,0,0
1620,1762970102982,65234,8139,204,0,0,0,0,0
1621,1762970103064,65240,8142,204,0,0,0,0,0
1622,1762970103181,65239,8128,209,0,0,0,0,0
1623,1762970103213,65244,8128,205,0,0,0,0,0
1624,1762970103280,65236,8132,210,0,0,0,0,0
1625,1762970103330,65227,8136,201,0,0,0,0,0
1626,1762970103414,65250,8138,198,3.26,0,0,0,0
1627,1762970103481,65248,8138,201,0,0,0,0,0
1628,1762970103514,65230,8136,208,0,0,0,0,0
1629,1762970103597,65232,8136,205,0,0,0,0,0
1630,1762970103647,65244,8140,201,0,0,0,0,0
1631,1762970103729,65244,8135,210,0,0,0,0,0
1632,1762970103764,65233,8134,202,0,0,0,0,0
1633,1762970103896,65240,8135,208,0,0,0,0,0
1634,1762970103947,65232,8138,205,0,0,0,0,0
1635,1762970104014,65228,8134,206,0,0,0,0,0
1636,1762970104063,65232,8134,206,0,0,0,0,0
1637,1762970104113,65232,8130,206,0,0,0,0,0
1638,1762970104163,65233,8136,203,0,0,0,0,0
1639,1762970104229,65242,8131,204,0,0,0,0,0
1640,1762970104298,65248,8138,210,3.32,0,0,0,0
1641,1762970104364,65246,8134,208,0,0,0,0,0
1642,1762970104397,65224,8128,205,0,0,0,0,0
1643,1762970104481,65231,8126,200,0,0,0,0,0
1644,1762970104529,65252,8129,200,1,0,0,0,0
1645,1762970104595,65238,8143,200,0,0,0,0,0
1646,1762970104629,65230,8124,206,0,0,0,0,0
1647,1762970104696,65230,8132,204,0,0,0,0,0
1648,1762970104796,65258,8146,203,0,0,0,0,0
1649,1762970104913,65226,8128,212,0,0,0,0,0
1650,1762970104946,65214,8128,203,0,0,0,0,0
1651,1762970104963,65238,8132,211,0,0,0,0,0
1652,1762970105030,65255,8143,214,0,0,0,0,0
1653,1762970105063,65221,8136,206,0,0,0,0,0
1654,1762970105129,65223,8133,208,0,0,0,0,0
1655,1762970105279,65237,8132,204,0,0,0,0,0
1656,1762970105313,65231,8132,204,0,0,0,0,0
1657,1762970105362,65227,8138,201,0,0,0,0,0
1658,1762970105428,65234,8137,206,0,0,0,0,0
1659,1762970105496,65244,8130,202,0,0,0,0,0
1660,1762970105545,65239,8128,198,0,0,0,0,0
1661,1762970105596,65236,8130,194,0,0,0,0,0
1662,1762970105734,65242,8145,206,0,0,0,0,0
1663,1762970105812,65224,8134,210,0,0,0,0,0
1664,1762970105845,65229,8130,199,0,0,0,0,0
1665,1762970105978,65248,8134,200,0,0,0,0,0
1666,1762970106044,65234,8137,202,0,0,0,0,0
1667,1762970106128,65232,8128,204,0,0,0,0,0
1668,1762970106161,65238,8134,204,0,0,0,0,0
1669,1762970106278,65228,8131,210,0,0,0,0,0
1670,1762970106361,65251,8135,208,1,0,0,0,0
1671,1762970106393,65231,8126,204,0,0,0,0,0
1672,1762970106496,65238,8131,209,0,0,0,0,0
1673,1762970106661,65220,8134,208,0,0,0,0,0
1674,1762970106777,65236,8133,206,0,0,0,0,0
1675,1762970106861,65233,8140,203,0,0,0,0,0
1676,1762970106911,65240,8132,198,0,0,0,0,0
1677,1762970106961,65259,8138,212,0,0,0,0,0
1678,1762970107012,65235,8140,202,0,0,0,0,0
1679,1762970107077,65234,8140,209,0,0,0,0,0
1680,1762970107128,65242,8122,208,0,0,0,0,0
1681,1762970107193,65252,8134,206,0,0,0,0,0
1682,1762970107312,65228,8132,216,0,0,0,0,0
1683,1762970107878,65251,8135,218,0,0,0,0,0
1684,1762970108127,65228,8131,201,0,0,0,0,0
1685,1762970108227,65255,8131,205,0,0,0,0,0
1686,1762970108410,65244,8127,200,0,0,0,0,0
1687,1762970108461,65246,8133,196,0,0,0,0,0
1688,1762970109676,65252,8141,196,0,0,0,0,0
1689,1762970110057,65221,8124,194,0,0,0,0,0
1690,1762970110342,65254,8136,201,0,0,0,0,0
1691,1762970110408,65236,8136,205,0,0,0,0,0
1692,1762970110458,65224,8126,201,1,0,0,0,0
1693,1762970110524,65241,8140,203,0,0,0,0,0
1694,1762970110574,65257,8138,200,0,0,0,0,0
1695,1762970110641,65235,8133,211,0,0,0,0,0
1696,1762970110712,65218,8132,198,3.32,0,0,0,0
1697,1762970110774,65248,8140,208,0,0,0,0,0
1698,1762970110840,65250,8138,207,0,0,0,0,0
1699,1762970110957,65230,8131,199,0,0,0,0,0
1700,1762970111023,65240,8127,210,0,0,0,0,0
1701,1762970111089,65254,8140,202,0,0,0,0,0
1702,1762970111139,65241,8128,213,0,0,0,0,0
1703,1762970111225,65228,8134,207,0,0,0,0,0
1704,1762970111306,65246,8139,209,0,0,0,0,0
1705,1762970111340,65219,8131,204,0,0,0,0,0
1706,1762970111423,65240,8135,200,0,0,0,0,0
1707,1762970111456,65242,8132,205,0,0,0,0,0
1708,1762970111538,65249,8139,205,0,0,0,0,0
1709,1762970111571,65227,8119,202,0,0,0,0,0
1710,1762970111655,65237,8141,206,0,0,0,0,0
1711,1762970111706,65246,8130,206,0,0,0,0,0
1712,1762970111755,65241,8141,204,0,0,0,0,0
1713,1762970111906,65225,8129,202,0,0,0,0,0
1714,1762970112023,65239,8126,213,0,0,0,0,0
1715,1762970112124,65249,8132,198,0,0,0,0,0
1716,1762970112206,65243,8135,198,0,0,0,0,0
1717,1762970112239,65230,8137,206,0,0,0,0,0
1718,1762970112371,65234,8134,196,0,0,0,0,0
1719,1762970112440,65238,8132,200,0,0,0,0,0
1720,1762970112471,65242,8135,221,0,0,0,0,0
1721,1762970112537,65227,8129,206,33133,0,0,0,0
1722,1762970112605,65228,8134,204,0,0,0,0,0
1723,1762970112657,65246,8140,200,0,0,0,0,0
1724,1762970112738,65246,8139,212,0,0,0,0,0
1725,1762970112773,65234,8135,201,0,0,0,0,0
1726,1762970112855,65230,8131,201,0,0,0,0,0
1727,1762970112904,65230,8136,212,0,0,0,0,0
1728,1762970113021,65224,8133,211,0,0,0,0,0
1729,1762970113104,65244,8131,206,0,0,0,0,0
1730,1762970113187,65249,8135,206,0,0,0,0,0
1731,1762970113221,65242,8132,209,0,0,0,0,0
1732,1762970113304,65224,8124,208,0,0,0,0,0
1733,1762970113336,65245,8134,200,0,0,0,0,0
1734,1762970113404,65242,8128,205,3.32,0,0,0,0
1735,1762970113472,65230,8135,210,0,0,0,0,0
1736,1762970113554,65238,8137,202,0,0,0,0,0
1737,1762970113637,65250,8139,209,0,0,0,0,0
1738,1762970113671,65219,8130,203,0,0,0,0,0
1739,1762970113736,65227,8131,206,0,0,0,0,0
1740,1762970113788,65255,8138,207,0,0,0,0,0
1741,1762970113854,65254,8132,206,0,0,0,0,0
1742,1762970114003,65237,8134,202,0,0,0,0,0
1743,1762970114036,65254,8144,233,0,0,0,0,0
1744,1762970114069,65241,8141,209,0,0,0,0,0
1745,1762970114136,65220,8130,218,0,0,0,0,0
1746,1762970114186,65230,8134,205,0,0,0,0,0
1747,1762970114237,65251,8141,205,0,0,0,0,0
1748,1762970114286,65257,8139,197,0,0,0,0,0
1749,1762970114354,65235,8136,215,0,0,0,0,0
1750,1762970114403,65232,8133,210,0,0,0,0,0
1751,1762970114454,65255,8136,199,0,0,0,0,0
1752,1762970114503,65246,8130,201,0,0,0,0,0
1753,1762970114569,65230,8137,208,0,0,0,0,0
1754,1762970114620,65225,8137,197,0,0,0,0,0
1755,1762970114670,65240,8133,212,0,0,0,0,0
1756,1762970114719,65231,8129,209,0,0,0,0,0
1757,1762970114903,65234,8142,209,0,0,0,0,0
1758,1762970115004,65236,8137,210,0,0,0,0,0
1759,1762970115019,65228,8134,201,0,0,0,0,0
1760,1762970115070,65247,8140,211,0,0,0,0,0
1761,1762970115119,65244,8130,200,0,0,0,0,0
1762,1762970115170,65231,8132,210,0,0,0,0,0
1763,1762970115269,65242,8135,205,0,0,0,0,0
1764,1762970115302,65244,8140,204,0,0,0,0,0
1765,1762970115420,65230,8138,209,0,0,0,0,0
1766,1762970115520,65242,8139,206,0,0,0,0,0
1767,1762970115585,65238,8130,208,0,0,0,0,0
1768,1762970115618,65237,8136,211,0,0,0,0,0
1769,1762970115684,65233,8137,210,3.31,0,0,0,0
1770,1762970115753,65239,8131,210,0,0,0,0,0
1771,1762970115853,65243,8134,202,0,0,0,0,0
1772,1762970115869,65234,8131,201,0,0,0,0,0
1773,1762970116002,65242,8134,206,0,0,0,0,0
1774,1762970116037,65244,8138,207,0,0,0,0,0
1775,1762970116069,65235,8140,210,0,0,0,0,0
1776,1762970116137,65242,8134,204,0,0,0,0,0
1777,1762970116186,65247,8137,210,0,0,0,0,0
1778,1762970116286,65240,8136,201,0,0,0,0,0
1779,1762970116356,65237,8135,205,0,0,0,0,0
1780,1762970116402,65240,8134,200,1,0,0,0,0
1781,1762970116454,65239,8142,205,0,0,0,0,0
1782,1762970116503,65227,8141,214,0,0,0,0,0
1783,1762970116553,65234,8127,210,0,0,0,0,0
1784,1762970116618,65251,8131,216,3.32,0,0,0,0
1785,1762970116669,65241,8142,206,0,0,0,0,0
1786,1762970116719,65226,8122,205,0,0,0,0,0
1787,1762970116785,65227,8141,207,0,0,0,0,0
1788,1762970116835,65246,8126,203,0,0,0,0,0
1789,1762970117002,65242,8134,212,0,0,0,0,0
1790,1762970117052,65250,8134,210,0,0,0,0,0
1791,1762970117101,65232,8130,204,0,0,0,0,0
1792,1762970117152,65216,8133,201,0,0,0,0,0
1793,1762970117202,65236,8132,203,0,0,0,0,0
1794,1762970117251,65246,8137,209,0,0,0,0,0
1795,1762970117334,65240,8128,201,0,0,0,0,0
1796,1762970117372,65232,8130,198,0,0,0,0,0
1797,1762970117434,65232,8130,204,0,0,0,0,0
1798,1762970117485,65237,8133,206,0,0,0,0,0
1799,1762970117551,65241,8136,209,0,0,0,0,0
1800,1762970117584,65224,8128,198,0,0,0,0,0
1801,1762970117637,65236,8142,202,0,0,0,0,0
1802,1762970117701,65238,8136,203,0,0,0,0,0
1803,1762970117751,65245,8134,201,0,0,0,0,0
1804,1762970117885,65237,8133,206,0,0,0,0,0
1805,1762970117935,65233,8130,204,0,0,0,0,0
1806,1762970117984,65240,8137,206,0,0,0,0,0
1807,1762970118034,65234,8132,206,0,0,0,0,0
1808,1762970118085,65235,8132,205,0,0,0,0,0
1809,1762970118151,65233,8138,201,0,0,0,0,0
1810,1762970118185,65228,8134,200,0,0,0,0,0
1811,1762970118251,65240,8132,199,0,0,0,0,0
1812,1762970118302,65249,8127,205,0,0,0,0,0
1813,1762970118351,65248,8136,201,0,0,0,0,0
1814,1762970118401,65220,8134,213,0,0,0,0,0
1815,1762970118467,65242,8132,200,0,0,0,0,0
1816,1762970118517,65254,8132,208,0,0,0,0,0
1817,1762970118584,65232,8136,198,0,0,0,0,0
1818,1762970118634,65228,8130,210,0,0,0,0,0
1819,1762970118700,65237,8127,212,0,0,0,0,0
1820,1762970118734,65245,8136,213,0,0,0,0,0
1821,1762970118800,65228,8134,200,0,0,0,0,0
1822,1762970118833,65225,8138,211,0,0,0,0,0
1823,1762970118966,65237,8130,199,0,0,0,0,0
1824,1762970119016,65237,8134,203,0,0,0,0,0
1825,1762970119033,65241,8130,200,0,0,0,0,0
1826,1762970119066,65240,8124,204,0,0,0,0,0
1827,1762970119135,65231,8124,202,0,0,0,0,0
1828,1762970119150,65230,8125,199,0,0,0,0,0
1829,1762970119233,65238,8138,212,0,0,0,0,0
1830,1762970119266,65243,8138,205,0,0,0,0,0
1831,1762970119466,65240,8134,205,0,0,0,0,0
1832,1762970119499,65228,8141,209,0,0,0,0,0
1833,1762970119566,65230,8129,204,0,0,0,0,0
1834,1762970119599,65240,8132,220,0,0,0,0,0
1835,1762970119666,65240,8128,203,0,0,0,0,0
1836,1762970119699,65237,8134,217,0,0,0,0,0
1837,1762970119817,65223,8130,214,33193,0,0,0,0
1838,1762970119899,65235,8135,212,0,0,0,0,0
1839,1762970119932,65254,8136,209,0,0,0,0,0
1840,1762970119998,65230,8130,213,0,0,0,0,0
1841,1762970120016,65216,8125,193,1,0,0,0,0
1842,1762970120083,65233,8138,210,0,0,0,0,0
1843,1762970120136,65249,8132,213,0,0,0,0,0
1844,1762970120199,65243,8122,210,0,0,0,0,0
1845,1762970120233,65224,8125,205,3.31,0,0,0,0
1846,1762970120315,65229,8134,212,0,0,0,0,0
1847,1762970120349,65256,8145,207,0,0,0,0,0
1848,1762970120416,65246,8142,210,0,0,0,0,0
1849,1762970120465,65228,8136,210,0,0,0,0,0
1850,1762970120515,65214,8126,198,0,0,0,0,0
1851,1762970120565,65233,8134,210,0,0,0,0,0
1852,1762970120615,65258,8136,219,0,0,0,0,0
1853,1762970120698,65226,8147,220,0,0,0,0,0
1854,1762970120765,65226,8138,208,0,0,0,0,0
1855,1762970120816,65232,8143,198,0,0,0,0,0
1856,1762970120882,65263,8140,207,0,0,0,0,0
1857,1762970120981,65236,8136,214,0,0,0,0,0
1858,1762970121050,65224,8122,204,0,0,0,0,0
1859,1762970121081,65258,8132,215,0,0,0,0,0
1860,1762970121115,65246,8129,208,0,0,0,0,0
1861,1762970121199,65237,8136,198,0,0,0,0,0
1862,1762970121231,65243,8133,206,0,0,0,0,0
1863,1762970121298,65220,8141,209,0,0,0,0,0
1864,1762970121331,65222,8140,212,0,0,0,0,0
1865,1762970121448,65251,8142,207,0,0,0,0,0
1866,1762970121514,65234,8134,212,0,0,0,0,0
1867,1762970121548,65226,8139,204,0,0,0,0,0
1868,1762970121698,65242,8132,210,0,0,0,0,0
1869,1762970121748,65231,8134,207,0,0,0,0,0
1870,1762970121780,65230,8139,212,0,0,0,0,0
1871,1762970121881,65239,8121,202,0,0,0,0,0
1872,1762970121948,65236,8141,219,0,0,0,0,0
1873,1762970122064,65239,8132,210,0,0,0,0,0
1874,1762970122114,65226,8137,205,0,0,0,0,0
1875,1762970122180,65236,8136,206,0,0,0,0,0
1876,1762970122214,65234,8136,210,0,0,0,0,0
1877,1762970122280,65221,8124,208,0,0,0,0,0
1878,1762970122330,65226,8130,194,0,0,0,0,0
1879,1762970122397,65242,8141,207,0,0,0,0,0
1880,1762970122431,65237,8133,208,0,0,0,0,0
1881,1762970122497,65224,8127,216,0,0,0,0,0
1882,1762970122564,65232,8135,205,33193,0,0,0,0
1883,1762970122613,65246,8143,201,0,0,0,0,0
1884,1762970122664,65235,8142,207,0,0,0,0,0
1885,1762970122730,65214,8140,202,0,0,0,0,0
1886,1762970122796,65236,8144,203,1,0,0,0,0
1887,1762970122899,65250,8135,208,0,0,0,0,0
1888,1762970122930,65226,8129,198,0,0,0,0,0
1889,1762970122998,65220,8135,202,0,0,0,0,0
1890,1762970123047,65241,8145,198,0,0,0,0,0
1891,1762970123097,65244,8138,204,0,0,0,0,0
1892,1762970123163,65231,8129,208,0,0,0,0,0
1893,1762970123197,65240,8133,209,0,0,0,0,0
1894,1762970123280,65239,8137,208,0,0,0,0,0
1895,1762970123312,65237,8138,206,0,0,0,0,0
1896,1762970123380,65236,8130,199,0,0,0,0,0
1897,1762970123448,65258,8134,209,3.26,0,0,0,0
1898,1762970123514,65230,8127,204,0,0,0,0,0
1899,1762970123563,65223,8132,198,0,0,0,0,0
1900,1762970123631,65223,8133,207,0,0,0,0,0
1901,1762970123663,65249,8140,209,1,0,0,0,0
1902,1762970123746,65226,8125,210,0,0,0,0,0
1903,1762970123795,65226,8132,206,0,0,0,0,0
1904,1762970123996,65220,8133,198,0,0,0,0,0
1905,1762970124034,65221,8136,210,0,0,0,0,0
1906,1762970124145,65248,8134,214,0,0,0,0,0
1907,1762970124179,65210,8135,197,0,0,0,0,0
1908,1762970124246,65234,8144,208,0,0,0,0,0
1909,1762970124312,65254,8144,204,0,0,0,0,0
1910,1762970124431,65226,8132,196,0,0,0,0,0
1911,1762970124531,65247,8136,217,0,0,0,0,0
1912,1762970124562,65238,8138,206,0,0,0,0,0
1913,1762970124679,65237,8133,202,0,0,0,0,0
1914,1762970124729,65256,8148,216,0,0,0,0,0
1915,1762970124778,65244,8142,206,0,0,0,0,0
1916,1762970124894,65215,8145,218,0,0,0,0,0
1917,1762970124911,65244,8129,193,0,0,0,0,0
1918,1762970125047,65213,8137,194,0,0,0,0,0
1919,1762970125078,65214,8134,205,0,0,0,0,0
1920,1762970125145,65253,8142,196,0,0,0,0,0
1921,1762970125195,65250,8126,209,0,0,0,0,0
1922,1762970125294,65202,8134,206,0,0,0,0,0
1923,1762970125328,65246,8132,219,0,0,0,0,0
1924,1762970125394,65283,8136,205,0,0,0,0,0
1925,1762970125463,65212,8126,223,0,0,0,0,0
1926,1762970125594,65256,8145,218,0,0,0,0,0
1927,1762970125644,65236,8142,201,0,0,0,0,0
1928,1762970125744,65222,8136,208,32567,0,0,0,0
1929,1762970125811,65255,8138,212,0,0,0,0,0
1930,1762970125844,65249,8140,214,0,0,0,0,0
1931,1762970125928,65217,8132,220,0,0,0,0,0
1932,1762970125978,65227,8135,201,1,0,0,0,0
1933,1762970126044,65254,8141,201,0,0,0,0,0
1934,1762970126093,65238,8138,216,0,0,0,0,0
1935,1762970126160,65219,8131,202,3.31,0,0,0,0
1936,1762970126243,65243,8141,197,0,0,0,0,0
1937,1762970126277,65243,8133,206,0,0,0,0,0
1938,1762970126411,65227,8128,210,1,0,0,0,0
1939,1762970126480,65245,8140,210,0,0,0,0,0
1940,1762970126528,65256,8137,202,0,0,0,0,0
1941,1762970126595,65230,8126,196,0,0,0,0,0
1942,1762970126710,65250,8126,204,0,0,0,0,0
1943,1762970126776,65233,8133,214,0,0,0,0,0
1944,1762970126844,65244,8142,209,0,0,0,0,0
1945,1762970126960,65245,8132,208,0,0,0,0,0
1946,1762970127010,65227,8128,204,0,0,0,0,0
1947,1762970127061,65246,8138,196,0,0,0,0,0
1948,1762970127143,65249,8140,206,0,0,0,0,0
1949,1762970127176,65222,8143,205,0,0,0,0,0
1950,1762970127260,65223,8129,203,0,0,0,0,0
1951,1762970127292,65248,8148,210,0,0,0,0,0
1952,1762970127409,65248,8134,201,0,0,0,0,0
1953,1762970127492,65233,8133,200,0,0,0,0,0
1954,1762970127525,65248,8135,209,0,0,0,0,0
1955,1762970127609,65226,8136,218,0,0,0,0,0
1956,1762970127675,65236,8132,194,0,0,0,0,0
1957,1762970127724,65246,8137,200,0,0,0,0,0
1958,1762970127824,65236,8133,190,0,0,0,0,0
1959,1762970127875,65240,8140,210,0,0,0,0,0
1960,1762970127958,65238,8132,198,0,0,0,0,0
1961,1762970127975,65251,8138,200,0,0,0,0,0
1962,1762970128042,65234,8132,209,0,0,0,0,0
1963,1762970128076,65223,8129,210,0,0,0,0,0
1964,1762970128144,65244,8134,204,0,0,0,0,0
1965,1762970128209,65229,8126,209,0,0,0,0,0
1966,1762970128258,65233,8134,203,0,0,0,0,0
1967,1762970128325,65236,8142,212,0,0,0,0,0
1968,1762970128441,65234,8135,210,0,0,0,0,0
1969,1762970128530,65232,8135,204,0,0,0,0,0
1970,1762970128575,65245,8136,210,0,0,0,0,0
1971,1762970128608,65240,8137,208,0,0,0,0,0
1972,1762970128691,65230,8139,211,1,0,0,0,0
1973,1762970128725,65226,8142,198,0,0,0,0,0
1974,1762970128825,65244,8140,206,0,0,0,0,0
1975,1762970128941,65233,8131,209,33193,0,0,0,0
1976,1762970129224,65234,8133,206,0,0,0,0,0
1977,1762970129274,65234,8131,206,0,0,0,0,0
1978,1762970129341,65247,8131,200,0,0,0,0,0
1979,1762970129408,65240,8128,198,0,0,0,0,0
1980,1762970129640,65232,8132,212,0,0,0,0,0
1981,1762970129840,65240,8127,208,3.26,0,0,0,0
1982,1762970129974,65234,8132,204,0,0,0,0,0
1983,1762970130241,65247,8143,210,0,0,0,0,0
1984,1762970130323,65241,8133,209,0,0,0,0,0
1985,1762970130441,65232,8128,194,0,0,0,0,0
1986,1762970131106,65231,8125,207,0,0,0,0,0
1987,1762970131389,65228,8140,200,0,0,0,0,0
1988,1762970131839,65239,8134,207,0,0,0,0,0
1989,1762970131922,65251,8136,204,0,0,0,0,0
1990,1762970132022,65226,8142,213,0,0,0,0,0
1991,1762970132089,65239,8133,209,0,0,0,0,0
1992,1762970132156,65243,8140,200,0,0,0,0,0
1993,1762970132222,65237,8144,211,0,0,0,0,0
1994,1762970132272,65236,8132,196,0,0,0,0,0
1995,1762970132339,65233,8140,200,1,0,0,0,0
1996,1762970132389,65249,8134,204,0,0,0,0,0
1997,1762970132438,65236,8130,196,0,0,0,0,0
1998,1762970132507,65224,8140,203,0,0,0,0,0
1999,1762970132572,65234,8141,207,33193,0,0,0,0
2000,1762970132639,65244,8136,204,0,0,0,0,0
2001,1762970132688,65226,8132,200,0,0,0,0,0
2002,1762970132772,65225,8139,218,0,0,0,0,0
2003,1762970132805,65246,8135,201,1,0,0,0,0
2004,1762970132888,65251,8141,204,0,0,0,0,0
2005,1762970132922,65230,8130,203,0,0,0,0,0
2006,1762970133038,65227,8134,201,0,0,0,0,0
2007,1762970133071,65249,8126,206,3.31,0,0,0,0
2008,1762970133122,65242,8136,210,0,0,0,0,0
2009,1762970133188,65224,8132,208,1,0,0,0,0
2010,1762970133238,65232,8133,203,0,0,0,0,0
2011,1762970133304,65246,8132,210,0,0,0,0,0
2012,1762970133338,65235,8135,203,0,0,0,0,0
2013,1762970133422,65232,8132,211,3,0,0,0,0
2014,1762970133471,65242,8134,211,3.27,0,0,0,0
2015,1762970133556,65242,8135,204,0,0,0,0,0
2016,1762970133605,65239,8134,206,152,0,0,0,0
2017,1762970133655,65242,8142,209,0,0,0,0,0
2018,1762970133737,65226,8132,224,1,0,0,0,0
2019,1762970133770,65236,8133,181,0,0,0,0,0
2020,1762970133855,65246,8171,232,0,0,0,0,0
2021,1762970133920,65220,8171,224,3.31,0,0,0,0
2022,1762970133987,65236,8132,205,0,0,0,0,0
2023,1762970134020,65238,8142,210,0,0,0,0,0
2024,1762970134087,65233,8132,208,0,0,0,0,0
2025,1762970134138,65244,8137,210,280,0,0,0,0
2026,1762970134204,65236,8130,215,0,0,0,0,0
2027,1762970134271,65238,8136,216,0,0,0,0,0
2028,1762970134320,65233,8130,218,3.28,0,0,0,0
2029,1762970134453,65244,8132,207,0,0,0,0,0
2030,1762970134637,65238,8133,212,0,0,0,0,0
2031,1762970134687,65236,8135,213,0,0,0,0,0
2032,1762970134753,65231,8131,215,0,0,0,0,0
2033,1762970134819,65246,8133,211,0,0,0,0,0
2034,1762970134936,65231,8130,204,597,0,0,0,0
2035,1762970134970,65238,8129,200,0,0,0,0,0
2036,1762970135087,65234,8131,214,0,0,0,0,0
2037,1762970135155,65238,8137,201,0,0,0,0,0
2038,1762970135220,65245,8143,202,0,0,0,0,0
2039,1762970135303,65237,8132,207,0,0,0,0,0
2040,1762970135337,65236,8129,210,0,0,0,0,0
2041,1762970135436,65245,8133,207,0,0,0,0,0
2042,1762970135469,65237,8128,197,0,0,0,0,0
2043,1762970135554,65239,8143,245,0,0,0,0,0
2044,1762970135602,65243,8140,197,597,0,0,0,0
2045,1762970135670,65244,8134,192,0,0,0,0,0
2046,1762970135819,65239,8133,217,0,0,0,0,0
2047,1762970135853,65242,8135,197,0,0,0,0,0
2048,1762970135952,65236,8129,202,0,0,0,0,0
2049,1762970136035,65235,8138,206,0,0,0,0,0
2050,1762970136052,65250,8139,202,0,0,0,0,0
2051,1762970136137,65222,8128,206,0,0,0,0,0
2052,1762970136202,65248,8140,211,0,0,0,0,0
2053,1762970136286,65252,8136,215,0,0,0,0,0
2054,1762970136302,65222,8138,208,0,0,0,0,0
2055,1762970136402,65218,8133,210,0,0,0,0,0
2056,1762970136418,65244,8138,207,0,0,0,0,0
2057,1762970136519,65247,8141,213,0,0,0,0,0
2058,1762970136568,65244,8131,206,0,0,0,0,0
2059,1762970136668,65234,8140,216,33196,0,0,0,0
2060,1762970136718,65234,8136,202,597,0,0,0,0
2061,1762970136819,65236,8133,207,0,0,0,0,0
2062,1762970136902,65239,8143,209,0,0,0,0,0
2063,1762970136985,65240,8135,206,0,0,0,0,0
2064,1762970137069,65237,8137,205,0,0,0,0,0
2065,1762970137085,65232,8132,207,0,0,0,0,0
2066,1762970137168,65236,8138,211,0,0,0,0,0
2067,1762970137218,65238,8128,194,0,0,0,0,0
2068,1762970137252,65238,8135,202,280,0,0,0,0
2069,1762970137285,65235,8138,207,0,0,0,0,0
2070,1762970137384,65241,8136,206,0,0,0,0,0
2071,1762970137451,65227,8130,200,0,0,0,0,0
2072,1762970137519,65240,8132,206,562,0,0,0,0
2073,1762970137617,65231,8136,206,3.31,0,0,0,0
2074,1762970137734,65225,8126,212,0,0,0,0,0
2075,1762970137751,65226,8134,195,0,0,0,0,0
2076,1762970137785,65253,8144,216,0,0,0,0,0
2077,1762970137834,65238,8139,208,0,0,0,0,0
2078,1762970137900,65226,8126,212,280,0,0,0,0
2079,1762970137951,65244,8146,208,0,0,0,0,0
2080,1762970138050,65248,8136,200,0,0,0,0,0
2081,1762970138084,65236,8132,216,0,0,0,0,0
2082,1762970138153,65223,8128,206,0,0,0,0,0
2083,1762970138183,65247,8136,196,0,0,0,0,0
2084,1762970138267,65230,8133,202,0,0,0,0,0
2085,1762970138317,65236,8129,204,0,0,0,0,0
2086,1762970138384,65239,8129,211,0,0,0,0,0
2087,1762970138500,65229,8133,209,0,0,0,0,0
2088,1762970138570,65228,8129,210,562,0,0,0,0
2089,1762970138618,65251,8133,198,0,0,0,0,0
2090,1762970138717,65231,8134,206,562,0,0,0,0
2091,1762970138750,65222,8134,206,0,0,0,0,0
2092,1762970138833,65243,8146,214,0,0,0,0,0
2093,1762970138901,65246,8133,194,0,0,0,0,0
2094,1762970139018,65232,8135,214,597,0,0,0,0
2095,1762970139050,65243,8131,208,0,0,0,0,0
2096,1762970139115,65212,8131,204,0,0,0,0,0
2097,1762970139166,65220,8136,206,0,0,0,0,0
2098,1762970139248,65272,8142,204,0,0,0,0,0
2099,1762970139284,65233,8136,203,0,0,0,0,0
2100,1762970139415,65249,8134,211,0,0,0,0,0
2101,1762970139484,65266,8144,205,0,0,0,0,0
2102,1762970139532,65224,8118,193,0,0,0,0,0
2103,1762970139598,65201,8138,218,0,0,0,0,0
2104,1762970139665,65272,8145,204,597,0,0,0,0
2105,1762970139698,65265,8136,206,0,0,0,0,0
2106,1762970139765,65213,8130,230,280,0,0,0,0
2107,1762970139865,65211,8133,197,33197,0,0,0,0
2108,1762970139949,65271,8155,204,0,0,0,0,0
2109,1762970140047,65200,8132,205,0,0,0,0,0
2110,1762970140131,65274,8142,204,0,0,0,0,0
2111,1762970140181,65227,8137,201,0,0,0,0,0
2112,1762970140264,65217,8128,208,3.28,0,0,0,0
2113,1762970140314,65244,8132,207,597,0,0,0,0
2114,1762970140364,65245,8144,200,0,0,0,0,0
2115,1762970140466,65220,8124,205,0,0,0,0,0
2116,1762970140499,65223,8128,196,0,0,0,0,0
2117,1762970140566,65241,8133,210,0,0,0,0,0
2118,1762970140600,65247,8141,202,0,0,0,0,0
2119,1762970140698,65231,8139,216,0,0,0,0,0
2120,1762970140780,65220,8141,203,3.32,0,0,0,0
2121,1762970140864,65253,8140,198,0,0,0,0,0
2122,1762970140949,65222,8130,217,0,0,0,0,0
2123,1762970140980,65240,8136,211,280,0,0,0,0
2124,1762970141047,65236,8135,206,0,0,0,0,0
2125,1762970141097,65241,8129,204,597,0,0,0,0
2126,1762970141147,65230,8135,205,0,0,0,0,0
2127,1762970141246,65243,8132,205,0,0,0,0,0
2128,1762970141279,65250,8136,206,0,0,0,0,0
2129,1762970141363,65225,8130,214,0,0,0,0,0
2130,1762970141497,65244,8136,213,0,0,0,0,0
2131,1762970141547,65227,8128,200,0,0,0,0,0
2132,1762970141613,65233,8134,203,0,0,0,0,0
2133,1762970141898,65228,8130,214,0,0,0,0,0
2134,1762970141963,65233,8133,211,0,0,0,0,0
2135,1762970142046,65248,8131,210,0,0,0,0,0
2136,1762970142079,65238,8132,195,280,0,0,0,0
2137,1762970142149,65241,8136,200,0,0,0,0,0
2138,1762970142263,65239,8134,205,0,0,0,0,0
2139,1762970142396,65243,8138,202,0,0,0,0,0
2140,1762970142513,65243,8134,203,0,0,0,0,0
2141,1762970142647,65236,8130,214,33197,0,0,0,0
2142,1762970142748,65238,8133,206,597,0,0,0,0
2143,1762970142813,65244,8144,216,0,0,0,0,0
2144,1762970142879,65229,8126,214,0,0,0,0,0
2145,1762970142929,65231,8140,202,0,0,0,0,0
2146,1762970142979,65236,8135,207,0,0,0,0,0
2147,1762970143046,65243,8140,202,0,0,0,0,0
2148,1762970143129,65232,8126,214,33198,0,0,0,0
2149,1762970143212,65242,8132,200,0,0,0,0,0
2150,1762970143262,65238,8132,205,0,0,0,0,0
2151,1762970143329,65239,8134,207,0,0,0,0,0
2152,1762970143446,65238,8135,208,280,0,0,0,0
2153,1762970143529,65248,8128,203,3.32,0,0,0,0
2154,1762970143612,65239,8133,210,0,0,0,0,0
2155,1762970143695,65222,8124,206,0,0,0,0,0
2156,1762970143778,65246,8134,212,0,0,0,0,0
2157,1762970143845,65238,8132,193,0,0,0,0,0
2158,1762970143879,65230,8122,212,0,0,0,0,0
2159,1762970143961,65232,8124,243,0,0,0,0,0
2160,1762970144062,65274,8147,267,0,0,0,0,0
2161,1762970144163,65242,8136,217,280,0,0,0,0
2162,1762970144211,65208,8119,208,0,0,0,0,0
2163,1762970144295,65251,8128,202,597,0,0,0,0
2164,1762970144328,65280,8137,194,0,0,0,0,0
2165,1762970144428,65214,8134,195,0,0,0,0,0
2166,1762970144461,65222,8140,201,0,0,0,0,0
2167,1762970144545,65257,8146,203,0,0,0,0,0
2168,1762970144577,65247,8141,207,0,0,0,0,0
2169,1762970144645,65232,8130,192,0,0,0,0,0
2170,1762970144694,65234,8129,208,0,0,0,0,0
2171,1762970147810,65231,8129,184,0,0,0,0,0
2172,1762970147876,65228,8128,184,0,0,0,0,0
2173,1762970147942,65244,8138,203,0,0,0,0,0
2174,1762970147975,65250,8133,198,0,0,0,0,0
2175,1762970148026,65227,8140,208,0,0,0,0,0
2176,1762970148059,65224,8128,202,0,0,0,0,0
2177,1762970148108,65239,8142,174,0,0,0,0,0
2178,1762970148159,65256,8144,224,0,0,0,0,0
2179,1762970148209,65191,8096,153,0,0,0,0,0
2180,1762970148276,65240,8152,208,0,0,0,0,0
2181,1762970148326,65268,8107,153,0,0,0,0,0
2182,1762970148392,65262,8153,209,0,0,0,0,0
2183,1762970148459,65202,8115,189,0,0,0,0,0
2184,1762970148542,65228,8128,205,0,0,0,0,0
2185,1762970148592,65262,8125,189,0,0,0,0,0
2186,1762970148625,65272,8139,207,0,0,0,0,0
2187,1762970148658,65218,8126,194,0,0,0,0,0
2188,1762970148711,65208,8125,188,0,0,0,0,0
2189,1762970148910,65251,8126,214,0,0,0,0,0
2190,1762970148975,65226,8130,199,0,0,0,0,0
2191,1762970149025,65250,8134,198,0,0,0,0,0
2192,1762970149075,65256,8136,194,0,0,0,0,0
2193,1762970149158,65227,8124,200,0,0,0,0,0
2194,1762970149224,65238,8123,194,0,0,0,0,0
2195,1762970149325,65226,8107,196,0,0,0,0,0
2196,1762970149391,65229,8160,196,0,0,0,0,0
2197,1762970149441,65240,8115,211,0,0,0,0,0
2198,1762970149492,65230,8120,203,0,0,0,0,0
2199,1762970149541,65230,8131,196,0,0,0,0,0
2200,1762970149590,65242,8131,203,0,0,0,0,0
2201,1762970149658,65249,8147,213,3.32,0,0,0,0
2202,1762970149707,65232,8135,197,0,0,0,0,0
2203,1762970149757,65232,8149,211,0,0,0,0,0
2204,1762970149807,65245,8136,209,0,0,0,0,0
2205,1762970149924,65242,8148,210,0,0,0,0,0
2206,1762970149990,65234,8135,202,0,0,0,0,0
2207,1762970150057,65230,8140,194,0,0,0,0,0
2208,1762970150091,65237,8134,204,0,0,0,0,0
2209,1762970150207,65235,8131,203,0,0,0,0,0
2210,1762970150257,65234,8134,202,0,0,0,0,0
2211,1762970150307,65243,8133,214,0,0,0,0,0
2212,1762970150374,65245,8131,194,0,0,0,0,0
2213,1762970150424,65240,8129,198,0,0,0,0,0
2214,1762970150473,65232,8130,201,0,0,0,0,0
2215,1762970150590,65238,8135,202,0,0,0,0,0
2216,1762970150723,65239,8129,208,0,0,0,0,0
2217,1762970150840,65239,8138,205,0,0,0,0,0
2218,1762970151006,65240,8138,208,0,0,0,0,0
2219,1762970151058,65249,8127,206,0,0,0,0,0
2220,1762970151139,65229,8138,202,0,0,0,0,0
2221,1762970151207,65257,8134,191,0,0,0,0,0
2222,1762970151290,65198,8140,210,0,0,0,0,0
2223,1762970151356,65209,8142,215,0,0,0,0,0
2224,1762970151406,65246,8124,213,0,0,0,0,0
2225,1762970151489,65250,8135,171,3.32,0,0,0,0
2226,1762970151539,65219,8165,204,0,0,0,0,0
2227,1762970151589,65262,8087,222,0,0,0,0,0
2228,1762970151639,65270,8134,208,0,0,0,0,0
2229,1762970151839,65232,8142,191,0,0,0,0,0
2230,1762970151905,65263,8143,191,0,0,0,0,0
2231,1762970152005,65224,8127,216,0,0,0,0,0
2232,1762970152089,65231,8128,200,0,0,0,0,0
2233,1762970152139,65258,8156,229,0,0,0,0,0
2234,1762970152290,65218,8132,160,0,0,0,0,0
2235,1762970152338,65244,8147,202,0,0,0,0,0
2236,1762970152405,65248,8130,220,33198,0,0,0,0
2237,1762970152473,65231,8142,212,0,0,0,0,0
2238,1762970152522,65244,8133,200,0,0,0,0,0
2239,1762970152592,65243,8137,201,0,0,0,0,0
2240,1762970152640,65240,8134,200,0,0,0,0,0
2241,1762970152706,65230,8144,214,0,0,0,0,0
2242,1762970152754,65218,8134,206,0,0,0,0,0
2243,1762970152788,65230,8126,208,0,0,0,0,0
2244,1762970152871,65244,8132,210,33199,0,0,0,0
2245,1762970152938,65246,8132,205,0,0,0,0,0
2246,1762970152955,65210,8127,206,0,0,0,0,0
2247,1762970153038,65231,8133,212,0,0,0,0,0
2248,1762970153089,65241,8140,179,0,0,0,0,0
2249,1762970153171,65234,8126,135,0,0,0,0,0
2250,1762970153205,65254,8109,210,0,0,0,0,0
2251,1762970153271,65234,8114,223,3.32,0,0,0,0
2252,1762970153355,65242,8102,215,0,0,0,0,0
2253,1762970153454,65308,8123,189,0,0,0,0,0
2254,1762970153488,65226,8151,236,0,0,0,0,0
2255,1762970153555,65298,8134,254,0,0,0,0,0
2256,1762970153604,65239,8165,229,0,0,0,0,0
2257,1762970153654,65260,8116,205,0,0,0,0,0
2258,1762970153771,65271,8133,216,0,0,0,0,0
2259,1762970153955,65177,8137,220,0,0,0,0,0
2260,1762970154121,65220,8102,216,0,0,0,0,0
2261,1762970154205,65226,8135,218,3.31,0,0,0,0
2262,1762970154255,65244,8121,194,0,0,0,0,0
2263,1762970154321,65286,8162,188,0,0,0,0,0
2264,1762970154370,65239,8136,172,0,0,0,0,0
2265,1762970154403,65239,8144,216,0,0,0,0,0
2266,1762970154487,65224,8138,184,0,0,0,0,0
2267,1762970154519,65262,8128,209,0,0,0,0,0
2268,1762970154620,65253,8152,184,0,0,0,0,0
2269,1762970154718,65205,8138,287,0,0,0,0,0
2270,1762970154821,65259,8120,118,0,0,0,0,0
2271,1762970154870,65198,8240,630,0,0,0,0,0
2272,1762970154953,65234,8125,216,0,0,0,0,0
2273,1762970154970,65254,8128,199,0,0,0,0,0
2274,1762970155020,65116,8093,216,0,0,0,0,0
2275,1762970155053,65213,8102,236,0,0,0,0,0
2276,1762970155137,65262,8181,367,0,0,0,0,0
2277,1762970155203,65260,8212,446,0,0,0,0,0
2278,1762970155236,65210,8124,224,0,0,0,0,0
2279,1762970155286,65237,8128,192,0,0,0,0,0
2280,1762970155386,65262,8166,201,0,0,0,0,0
2281,1762970155470,65232,8129,237,0,0,0,0,0
2282,1762970155502,65216,8138,228,0,0,0,0,0
2283,1762970155636,65220,8104,232,0,0,0,0,0
2284,1762970155786,65266,8131,180,0,0,0,0,0
2285,1762970155836,65301,8130,105,0,0,0,0,0
2286,1762970155920,65147,8084,214,0,0,0,0,0
2287,1762970156002,65280,8115,24,0,0,0,0,0
2288,1762970156036,65286,8160,175,3.32,0,0,0,0
2289,1762970156102,65230,8149,284,0,0,0,0,0
2290,1762970156137,65206,8111,222,0,0,0,0,0
2291,1762970156202,65272,8156,83,0,0,0,0,0
2292,1762970156236,65264,8101,102,0,0,0,0,0
2293,1762970156302,65288,8194,162,0,0,0,0,0
2294,1762970156352,65113,8215,682,0,0,0,0,0
2295,1762970156385,65078,8132,516,0,0,0,0,0
2296,1762970156434,65222,8144,196,0,0,0,0,0
2297,1762970156519,65239,8135,213,0,0,0,0,0
2298,1762970156635,65244,8139,210,0,0,0,0,0
2299,1762970156735,65277,8161,202,0,0,0,0,0
2300,1762970156784,65252,8127,220,0,0,0,0,0
2301,1762970156836,65214,8108,214,0,0,0,0,0
2302,1762970156900,65246,8153,215,0,0,0,0,0
2303,1762970157051,65252,8149,231,0,0,0,0,0
2304,1762970157202,65273,8156,204,0,0,0,0,0
2305,1762970157334,65279,8135,133,0,0,0,0,0
2306,1762970157451,65267,8135,155,0,0,0,0,0
2307,1762970157551,65245,8130,196,0,0,0,0,0
2308,1762970157634,65239,8130,211,0,0,0,0,0
2309,1762970157784,65238,8150,315,0,0,0,0,0
2310,1762970157934,65271,8126,153,0,0,0,0,0
2311,1762970158100,65236,8156,260,0,0,0,0,0
2312,1762970158134,65230,8131,198,0,0,0,0,0
2313,1762970158317,65254,8120,197,0,0,0,0,0
2314,1762970158384,65238,8143,245,0,0,0,0,0
2315,1762970158500,65248,8156,172,0,0,0,0,0
2316,1762970158616,65248,8114,166,0,0,0,0,0
2317,1762970158866,65252,8170,371,0,0,0,0,0
2318,1762970158917,65124,8042,75,0,0,0,0,0
2319,1762970159050,65265,8180,266,0,0,0,0,0
2320,1762970159133,65241,8124,182,0,0,0,0,0
2321,1762970159466,65250,8138,146,0,0,0,0,0
2322,1762970159518,65228,8115,159,0,0,0,0,0
2323,1762970159568,65276,8116,19,0,0,0,0,0
2324,1762970159632,65220,8112,256,0,0,0,0,0
2325,1762970159699,65228,8138,306,0,0,0,0,0
2326,1762970159816,65224,8149,269,0,0,0,0,0
2327,1762970159932,65248,8154,142,0,0,0,0,0
2328,1762970160018,65184,8154,513,0,0,0,0,0
2329,1762970160132,65190,8144,416,0,0,0,0,0
2330,1762970160165,65215,8120,115,0,0,0,0,0
2331,1762970160181,65211,8164,220,0,0,0,0,0
2332,1762970160233,65252,8120,70,0,0,0,0,0
2333,1762970160315,65232,8132,193,0,0,0,0,0
2334,1762970160349,65246,8111,172,0,0,0,0,0
2335,1762970160433,65273,8152,203,0,0,0,0,0
2336,1762970160499,65222,8115,214,0,0,0,0,0
2337,1762970160532,65246,8143,215,0,0,0,0,0
2338,1762970160715,65259,8133,199,0,0,0,0,0
2339,1762970160749,65254,8145,208,0,0,0,0,0
2340,1762970160784,65227,8116,184,0,0,0,0,0
2341,1762970160831,65242,8134,232,0,0,0,0,0
2342,1762970160948,65250,8129,198,0,0,0,0,0
2343,1762970161014,65240,8132,221,0,0,0,0,0
2344,1762970161115,65247,8147,195,0,0,0,0,0
2345,1762970161200,65233,8120,188,0,0,0,0,0
2346,1762970161245,65232,8126,184,0,0,0,0,0
2347,1762970161307,65258,8144,220,0,0,0,0,0
2348,1762970161358,65260,8138,211,0,0,0,0,0
2349,1762970161417,65236,8132,215,0,0,0,0,0
2350,1762970161500,65236,8142,220,0,0,0,0,0
2351,1762970161583,65256,8133,187,0,0,0,0,0
2352,1762970161650,65258,8155,230,0,0,0,0,0
2353,1762970161682,65227,8116,208,0,0,0,0,0
2354,1762970161799,65264,8151,207,0,0,0,0,0
2355,1762970161949,65249,8123,186,0,0,0,0,0
2356,1762970162015,65232,8160,222,0,0,0,0,0
2357,1762970162082,65167,8128,211,33200,0,0,0,0
2358,1762970162148,65073,8030,86,0,0,0,0,0
2359,1762970162184,65189,8134,112,0,0,0,0,0
2360,1762970162249,65302,8120,238,0,0,0,0,0
2361,1762970162317,65310,8150,235,0,0,0,0,0
2362,1762970162386,65261,8156,148,0,0,0,0,0
2363,1762970162434,65192,8143,253,33199,0,0,0,0
2364,1762970162532,65348,8188,135,0,0,0,0,0
2365,1762970162665,65216,8132,241,0,0,0,0,0
2366,1762970162733,65282,8062,32,0,0,0,0,0
2367,1762970162780,65368,8180,65533,0,0,0,0,0
2368,1762970163047,65524,8121,164,0,0,0,0,0
2369,1762970163180,65249,8139,192,0,0,0,0,0
2370,1762970163246,65246,8137,222,0,0,0,0,0
2371,1762970163297,65256,8146,192,3.32,0,0,0,0
2372,1762970163382,65242,8149,206,0,0,0,0,0
2373,1762970163454,65213,8144,194,0,0,0,0,0
2374,1762970163546,65245,8146,204,0,0,0,0,0
2375,1762970163596,65248,8140,198,0,0,0,0,0
2376,1762970163663,65248,8131,212,0,0,0,0,0
2377,1762970163713,65232,8134,192,0,0,0,0,0
2378,1762970163746,65242,8124,217,0,0,0,0,0
2379,1762970163829,65255,8123,194,0,0,0,0,0
2380,1762970163847,65255,8139,230,0,0,0,0,0
2381,1762970163930,65242,8139,217,0,0,0,0,0
2382,1762970163961,65233,8145,204,0,0,0,0,0
2383,1762970164062,65268,8123,193,0,0,0,0,0
2384,1762970164080,65267,8163,218,0,0,0,0,0
2385,1762970164196,65244,8151,210,0,0,0,0,0
2386,1762970164264,65246,8129,220,0,0,0,0,0
2387,1762970164329,65227,8123,204,0,0,0,0,0
2388,1762970164378,65232,8138,200,0,0,0,0,0
2389,1762970164461,65288,8150,200,0,0,0,0,0
2390,1762970164529,65239,8142,199,0,0,0,0,0
2391,1762970164611,65219,8109,218,0,0,0,0,0
2392,1762970164728,65237,8127,212,0,0,0,0,0
2393,1762970164762,65240,8142,208,0,0,0,0,0
2394,1762970164845,65254,8137,211,0,0,0,0,0
2395,1762970164882,65240,8136,208,0,0,0,0,0
2396,1762970164945,65208,8118,208,0,0,0,0,0
2397,1762970164980,65242,8144,215,0,0,0,0,0
2398,1762970165045,65304,8176,209,0,0,0,0,0
2399,1762970165079,65277,8129,222,0,0,0,0,0
2400,1762970165180,65230,8162,200,33199,0,0,0,0
2401,1762970165230,65224,8102,224,0,0,0,0,0
2402,1762970165279,65272,8134,236,0,0,0,0,0
2403,1762970165345,65268,8156,188,0,0,0,0,0
2404,1762970165394,65228,8127,205,0,0,0,0,0
2405,1762970165461,65217,8130,192,0,0,0,0,0
2406,1762970165510,65269,8138,204,0,0,0,0,0
2407,1762970165595,65259,8145,210,0,0,0,0,0
2408,1762970165644,65223,8126,211,0,0,0,0,0
2409,1762970165697,65242,8134,203,0,0,0,0,0
2410,1762970165779,65252,8142,210,0,0,0,0,0
2411,1762970165842,65260,8144,209,0,0,0,0,0
2412,1762970165931,65244,8127,210,0,0,0,0,0
2413,1762970166026,65262,8136,209,0,0,0,0,0
2414,1762970166143,65252,8132,204,0,0,0,0,0
2415,1762970166176,65261,8150,210,0,0,0,0,0
2416,1762970166260,65245,8138,216,0,0,0,0,0
2417,1762970166331,65250,8131,204,0,0,0,0,0
2418,1762970166357,65224,8126,211,0,0,0,0,0
2419,1762970166411,65244,8134,212,0,0,0,0,0
2420,1762970166485,65252,8135,207,0,0,0,0,0
2421,1762970166593,65246,8139,203,0,0,0,0,0
2422,1762970166677,65235,8138,200,0,0,0,0,0
2423,1762970166711,65239,8132,220,0,0,0,0,0
2424,1762970166761,65261,8140,200,0,0,0,0,0
2425,1762970166844,65217,8132,190,0,0,0,0,0
2426,1762970166927,65251,8141,211,0,0,0,0,0
2427,1762970166979,65270,8132,204,3.31,0,0,0,0
2428,1762970167027,65217,8120,210,0,0,0,0,0
2429,1762970167076,65187,8106,222,0,0,0,0,0
2430,1762970167159,65296,8138,198,0,0,0,0,0
2431,1762970167245,65196,8110,210,0,0,0,0,0
2432,1762970167310,65240,8130,198,0,0,0,0,0
2433,1762970167360,65268,8134,206,0,0,0,0,0
2434,1762970167511,65236,8135,202,0,0,0,0,0
2435,1762970167594,65208,8119,204,0,0,0,0,0
2436,1762970167694,65268,8140,198,0,0,0,0,0
2437,1762970167860,65217,8160,173,0,0,0,0,0
2438,1762970167945,65234,8137,187,0,0,0,0,0
2439,1762970168127,65264,8146,212,0,0,0,0,0
2440,1762970168228,65242,8129,199,0,0,0,0,0
2441,1762970168243,65230,8129,207,0,0,0,0,0
2442,1762970168343,65271,8149,190,3.32,0,0,0,0
2443,1762970168393,65268,8139,199,0,0,0,0,0
2444,1762970168443,65214,8125,201,0,0,0,0,0
2445,1762970168526,65256,8136,207,0,0,0,0,0
2446,1762970168576,65266,8140,200,0,0,0,0,0
2447,1762970168725,65240,8136,212,0,0,0,0,0
2448,1762970168877,65259,8129,207,33200,0,0,0,0
2449,1762970169009,65254,8132,215,0,0,0,0,0
2450,1762970169026,65230,8142,202,0,0,0,0,0
2451,1762970169092,65242,8134,207,0,0,0,0,0
2452,1762970169109,65257,8132,218,0,0,0,0,0
2453,1762970169177,65244,8136,209,0,0,0,0,0
2454,1762970169226,65232,8118,206,0,0,0,0,0
2455,1762970169275,65254,8149,206,0,0,0,0,0
2456,1762970169343,65238,8128,201,0,0,0,0,0
2457,1762970169392,65240,8135,211,0,0,0,0,0
2458,1762970169444,65237,8120,197,0,0,0,0,0
2459,1762970169592,65258,8132,192,0,0,0,0,0
2460,1762970169659,65236,8139,215,0,0,0,0,0
2461,1762970169693,65234,8132,204,3.28,0,0,0,0
2462,1762970169826,65259,8133,205,0,0,0,0,0
2463,1762970169859,65255,8139,200,0,0,0,0,0
2464,1762970169960,65240,8149,201,0,0,0,0,0
2465,1762970169993,65220,8100,221,0,0,0,0,0
2466,1762970170091,65278,8119,225,0,0,0,0,0
2467,1762970170108,65272,8191,230,0,0,0,0,0
2468,1762970170142,65244,8128,183,0,0,0,0,0
2469,1762970170225,65247,8115,216,0,0,0,0,0
2470,1762970170291,65270,8160,191,0,0,0,0,0
2471,1762970170342,65237,8120,195,0,0,0,0,0
2472,1762970170425,65243,8132,196,0,0,0,0,0
2473,1762970170459,65242,8156,201,0,0,0,0,0
2474,1762970170558,65243,8147,200,0,0,0,0,0
2475,1762970170591,65256,8132,218,0,0,0,0,0
2476,1762970170658,65246,8120,204,0,0,0,0,0
2477,1762970170726,65237,8134,214,0,0,0,0,0
2478,1762970170758,65246,8134,209,0,0,0,0,0
2479,1762970170825,65258,8137,200,0,0,0,0,0
2480,1762970170874,65244,8137,208,0,0,0,0,0
2481,1762970170975,65216,8142,200,0,0,0,0,0
2482,1762970170992,65226,8124,208,0,0,0,0,0
2483,1762970171108,65255,8147,201,0,0,0,0,0
2484,1762970171174,65224,8128,201,0,0,0,0,0
2485,1762970171225,65244,8137,204,0,0,0,0,0
2486,1762970171307,65227,8127,211,0,0,0,0,0
2487,1762970171341,65258,8150,208,0,0,0,0,0
2488,1762970171422,65231,8132,198,0,0,0,0,0
2489,1762970171476,65230,8138,214,0,0,0,0,0
2490,1762970171543,65250,8132,197,33200,0,0,0,0
2491,1762970171590,65241,8134,210,0,0,0,0,0
2492,1762970171643,65235,8138,208,0,0,0,0,0
2493,1762970171689,65229,8125,209,0,0,0,0,0
2494,1762970171774,65262,8145,204,0,0,0,0,0
2495,1762970171826,65236,8140,206,0,0,0,0,0
2496,1762970171873,65240,8140,208,0,0,0,0,0
2497,1762970171974,65234,8138,200,0,0,0,0,0
2498,1762970172040,65246,8130,196,33201,0,0,0,0
2499,1762970172123,65248,8126,202,0,0,0,0,0
2500,1762970172206,65238,8142,204,0,0,0,0,0
2501,1762970172238,65234,8123,215,0,0,0,0,0
2502,1762970172305,65254,8140,207,0,0,0,0,0
2503,1762970172340,65258,8147,205,0,0,0,0,0
2504,1762970172405,65237,8137,208,0,0,0,0,0
2505,1762970172492,65232,8143,206,0,0,0,0,0
2506,1762970172524,65252,8133,198,0,0,0,0,0
2507,1762970172606,65244,8142,212,0,0,0,0,0
2508,1762970172655,65228,8128,200,0,0,0,0,0
2509,1762970172756,65245,8138,214,0,0,0,0,0
2510,1762970172773,65242,8133,202,0,0,0,0,0
2511,1762970172939,65231,8128,213,0,0,0,0,0
2512,1762970173006,65240,8138,205,0,0,0,0,0
2513,1762970173023,65253,8140,202,0,0,0,0,0
2514,1762970173089,65246,8141,202,0,0,0,0,0
2515,1762970173138,65251,8134,207,0,0,0,0,0
2516,1762970173171,65236,8123,204,0,0,0,0,0
2517,1762970173239,65256,8142,204,0,0,0,0,0
2518,1762970173289,65262,8140,198,0,0,0,0,0
2519,1762970173372,65238,8138,207,0,0,0,0,0
2520,1762970173423,65241,8130,196,0,0,0,0,0
2521,1762970173473,65254,8136,208,0,0,0,0,0
2522,1762970173523,65234,8134,200,0,0,0,0,0
2523,1762970173622,65237,8139,202,0,0,0,0,0
2524,1762970173656,65247,8132,204,0,0,0,0,0
2525,1762970173738,65272,8151,217,0,0,0,0,0
2526,1762970173756,65228,8128,200,0,0,0,0,0
2527,1762970173924,65259,8138,200,0,0,0,0,0
2528,1762970173987,65248,8127,202,0,0,0,0,0
2529,1762970174030,65232,8133,196,0,0,0,0,0
2530,1762970174108,65245,8137,206,0,0,0,0,0
2531,1762970174169,65258,8141,200,0,0,0,0,0
2532,1762970174236,65238,8128,211,0,0,0,0,0
2533,1762970174319,65254,8136,214,0,0,0,0,0
2534,1762970174385,65246,8131,206,0,0,0,0,0
2535,1762970174437,65226,8129,209,0,0,0,0,0
2536,1762970174502,65253,8128,203,0,0,0,0,0
2537,1762970174568,65259,8129,214,0,0,0,0,0
2538,1762970174619,65240,8126,201,0,0,0,0,0
2539,1762970174668,65240,8130,208,0,0,0,0,0
2540,1762970174737,65252,8141,204,0,0,0,0,0
2541,1762970174820,65248,8137,210,0,0,0,0,0
2542,1762970174852,65236,8136,217,0,0,0,0,0
2543,1762970174970,65237,8134,216,0,0,0,0,0
2544,1762970175053,65254,8139,196,0,0,0,0,0
2545,1762970175086,65228,8130,214,0,0,0,0,0
2546,1762970175170,65242,8130,198,0,0,0,0,0
2547,1762970175269,65254,8134,202,0,0,0,0,0
2548,1762970175318,65230,8137,202,0,0,0,0,0
2549,1762970175369,65237,8128,192,0,0,0,0,0
2550,1762970175436,65240,8136,208,0,0,0,0,0
2551,1762970175502,65268,8136,213,0,0,0,0,0
2552,1762970175569,65245,8128,184,0,0,0,0,0
2553,1762970175619,65238,8134,218,3.28,0,0,0,0
2554,1762970175702,65251,8140,193,0,0,0,0,0
2555,1762970175736,65258,8141,212,0,0,0,0,0
2556,1762970175802,65238,8128,200,0,0,0,0,0
2557,1762970175838,65241,8135,215,0,0,0,0,0
2558,1762970175902,65256,8130,201,0,0,0,0,0
2559,1762970176002,65264,8134,205,0,0,0,0,0
2560,1762970176202,65250,8135,206,0,0,0,0,0
2561,1762970176268,65233,8124,207,0,0,0,0,0
2562,1762970176334,65243,8135,204,0,0,0,0,0
2563,1762970176369,65247,8131,191,0,0,0,0,0
2564,1762970176435,65241,8132,203,0,0,0,0,0
2565,1762970176486,65228,8132,206,0,0,0,0,0
2566,1762970176568,65252,8128,202,0,0,0,0,0
2567,1762970176603,65262,8141,205,0,0,0,0,0
2568,1762970176684,65240,8134,202,0,0,0,0,0
2569,1762970176718,65243,8141,198,0,0,0,0,0
2570,1762970176801,65262,8144,212,0,0,0,0,0
2571,1762970176834,65245,8126,214,0,0,0,0,0
2572,1762970176951,65240,8136,198,0,0,0,0,0
2573,1762970177051,65252,8142,200,0,0,0,0,0
2574,1762970177101,65229,8127,206,0,0,0,0,0
2575,1762970177151,65234,8129,202,0,0,0,0,0
2576,1762970177201,65258,8138,215,0,0,0,0,0
2577,1762970177251,65252,8135,208,0,0,0,0,0
2578,1762970177317,65241,8129,206,0,0,0,0,0
2579,1762970177368,65244,8133,214,0,0,0,0,0
2580,1762970177467,65259,8136,200,3.28,0,0,0,0
2581,1762970177534,65242,8134,209,0,0,0,0,0
2582,1762970177619,65240,8140,203,0,0,0,0,0
2583,1762970177700,65256,8126,209,0,0,0,0,0
2584,1762970177767,65242,8146,213,0,0,0,0,0
2585,1762970177800,65233,8131,206,0,0,0,0,0
2586,1762970177833,65244,8137,209,0,0,0,0,0
2587,1762970178000,65237,8134,208,0,0,0,0,0
2588,1762970178033,65234,8133,206,0,0,0,0,0
2589,1762970178084,65249,8136,202,0,0,0,0,0
2590,1762970178152,65252,8137,205,0,0,0,0,0
2591,1762970186605,65245,8137,204,0,0,0,0,0
2592,1762970186641,65258,8131,192,0,0,0,0,0
2593,1762970186706,65253,8159,198,0,0,0,0,0
2594,1762970186806,65231,8134,207,0,0,0,0,0
2595,1762970186858,65238,8146,198,0,0,0,0,0
2596,1762970188624,65231,8132,201,0,0,0,0,0
2597,1762970190638,65228,8130,209,0,0,0,0,0
2598,1762970190690,65282,8142,194,0,0,0,0,0
2599,1762970190756,65243,8119,164,0,0,0,0,0
2600,1762970190805,65204,8113,199,0,0,0,0,0
2601,1762970190939,65281,8140,168,0,0,0,0,0
2602,1762970191005,65260,8126,205,0,0,0,0,0
2603,1762970191088,65234,8118,210,0,0,0,0,0
2604,1762970191172,65226,8123,189,0,0,0,0,0
2605,1762970191255,65240,8138,194,0,0,0,0,0
2606,1762970191322,65264,8142,202,0,0,0,0,0
2607,1762970191371,65251,8140,184,0,0,0,0,0
2608,1762970191421,65237,8130,208,0,0,0,0,0
2609,1762970191472,65223,8132,208,0,0,0,0,0
2610,1762970191607,65252,8133,204,0,0,0,0,0
2611,1762970191706,65233,8127,201,0,0,0,0,0
2612,1762970191838,65248,8142,204,0,0,0,0,0
2613,1762970191955,65228,8129,204,0,0,0,0,0
2614,1762970192037,65238,8136,208,0,0,0,0,0
2615,1762970192154,65247,8134,192,0,0,0,0,0
2616,1762970192188,65238,8134,210,0,0,0,0,0
2617,1762970192237,65236,8128,204,0,0,0,0,0
2618,1762970192320,65238,8134,203,0,0,0,0,0
2619,1762970192353,65238,8136,210,0,0,0,0,0
2620,1762970192437,65252,8134,206,0,0,0,0,0
2621,1762970192470,65247,8120,176,33201,0,0,0,0
2622,1762970192571,65235,8123,194,0,0,0,0,0
2623,1762970192603,65246,8139,189,0,0,0,0,0
2624,1762970192653,65230,8127,205,0,0,0,0,0
2625,1762970192704,65258,8134,204,0,0,0,0,0
2626,1762970192786,65247,8117,131,0,0,0,0,0
2627,1762970192820,65255,8116,63,0,0,0,0,0
2628,1762970192870,65213,8126,217,0,0,0,0,0
2629,1762970192937,65272,8136,239,33201,0,0,0,0
2630,1762970193037,65260,8184,205,0,0,0,0,0
2631,1762970193103,65210,8116,172,0,0,0,0,0
2632,1762970193136,65263,8134,216,0,0,0,0,0
2633,1762970193203,65252,8142,198,0,0,0,0,0
2634,1762970193255,65234,8108,204,0,0,0,0,0
2635,1762970193369,65235,8110,202,3.26,0,0,0,0
2636,1762970193437,65242,8167,185,0,0,0,0,0
2637,1762970193471,65214,8110,232,0,0,0,0,0
2638,1762970193537,65251,8124,146,0,0,0,0,0
2639,1762970193569,65260,8130,173,0,0,0,0,0
2640,1762970193669,65290,8155,170,0,0,0,0,0
2641,1762970193755,65251,8119,236,0,0,0,0,0
2642,1762970193787,65244,8136,218,0,0,0,0,0
2643,1762970193869,65240,8149,215,0,0,0,0,0
2644,1762970193969,65249,8160,188,0,0,0,0,0
2645,1762970194003,65240,8110,198,0,0,0,0,0
2646,1762970194219,65251,8129,202,0,0,0,0,0
2647,1762970194302,65245,8122,201,0,0,0,0,0
2648,1762970194453,65241,8124,206,0,0,0,0,0
2649,1762970194518,65237,8134,212,0,0,0,0,0
2650,1762970194552,65244,8136,201,0,0,0,0,0
2651,1762970194652,65252,8132,203,0,0,0,0,0
2652,1762970194785,65249,8139,201,0,0,0,0,0
2653,1762970194887,65253,8132,209,0,0,0,0,0
2654,1762970194952,65250,8134,202,0,0,0,0,0
2655,1762970195018,65248,8134,209,0,0,0,0,0
2656,1762970195068,65249,8135,209,0,0,0,0,0
2657,1762970195152,65238,8134,206,0,0,0,0,0
2658,1762970195218,65247,8132,195,33201,0,0,0,0
2659,1762970195268,65246,8147,200,0,0,0,0,0
2660,1762970195319,65247,8138,207,0,0,0,0,0
2661,1762970195385,65242,8134,200,0,0,0,0,0
2662,1762970195435,65239,8128,198,0,0,0,0,0
2663,1762970195485,65250,8134,203,0,0,0,0,0
2664,1762970195684,65240,8132,201,3.26,0,0,0,0
2665,1762970195703,65249,8133,192,0,0,0,0,0
2666,1762970195851,65240,8134,205,0,0,0,0,0
2667,1762970195934,65240,8141,209,0,0,0,0,0
2668,1762970196018,65253,8142,208,0,0,0,0,0
2669,1762970196068,65243,8144,201,0,0,0,0,0
2670,1762970196103,65241,8130,198,0,0,0,0,0
2671,1762970196151,65250,8140,210,0,0,0,0,0
2672,1762970196200,65242,8124,206,0,0,0,0,0
2673,1762970196250,65255,8148,213,0,0,0,0,0
2674,1762970196300,65235,8130,201,0,0,0,0,0
2675,1762970196367,65245,8127,200,0,0,0,0,0
2676,1762970196401,65254,8136,201,0,0,0,0,0
2677,1762970196467,65239,8119,222,0,0,0,0,0
2678,1762970196518,65245,8138,215,0,0,0,0,0
2679,1762970196583,65245,8134,210,0,0,0,0,0
2680,1762970196634,65245,8146,212,0,0,0,0,0
2681,1762970196683,65254,8141,210,0,0,0,0,0
2682,1762970196733,65239,8127,208,0,0,0,0,0
2683,1762970196850,65242,8121,199,0,0,0,0,0
2684,1762970196917,65252,8144,195,0,0,0,0,0
2685,1762970196950,65255,8135,214,0,0,0,0,0
2686,1762970197034,65242,8147,205,0,0,0,0,0
2687,1762970197067,65242,8143,196,0,0,0,0,0
2688,1762970197134,65250,8121,211,0,0,0,0,0
2689,1762970197166,65252,8128,208,0,0,0,0,0
2690,1762970197283,65248,8143,205,0,0,0,0,0
2691,1762970197333,65246,8131,196,0,0,0,0,0
2692,1762970197383,65242,8138,206,0,0,0,0,0
2693,1762970197434,65244,8137,212,0,0,0,0,0
2694,1762970197615,65274,8151,203,0,0,0,0,0
2695,1762970197666,65260,8140,202,0,0,0,0,0
2696,1762970197783,65252,8149,201,0,0,0,0,0
2697,1762970198069,65240,8123,195,0,0,0,0,0
2698,1762970198199,65250,8146,216,0,0,0,0,0
2699,1762970198248,65239,8131,197,0,0,0,0,0
2700,1762970198298,65257,8144,204,0,0,0,0,0
2701,1762970198348,65245,8143,200,0,0,0,0,0
2702,1762970198482,65232,8134,200,0,0,0,0,0
2703,1762970198582,65238,8133,196,0,0,0,0,0
2704,1762970198633,65248,8140,208,0,0,0,0,0
2705,1762970198732,65257,8147,210,0,0,0,0,0
2706,1762970198798,65243,8135,205,0,0,0,0,0
2707,1762970198849,65244,8126,216,33201,0,0,0,0
2708,1762970198932,65243,8143,208,0,0,0,0,0
2709,1762970198965,65244,8128,206,0,0,0,0,0
2710,1762970199100,65245,8134,202,0,0,0,0,0
2711,1762970199164,65240,8140,190,0,0,0,0,0
2712,1762970199214,65248,8142,198,0,0,0,0,0
2713,1762970199264,65246,8130,202,3.31,0,0,0,0
2714,1762970199348,65242,8142,216,0,0,0,0,0
2715,1762970199381,65248,8126,199,0,0,0,0,0
2716,1762970199434,65255,8145,212,0,0,0,0,0
2717,1762970199498,65244,8128,208,0,0,0,0,0
2718,1762970199597,65241,8134,198,0,0,0,0,0
2719,1762970199647,65247,8133,207,0,0,0,0,0
2720,1762970199747,65248,8131,201,0,0,0,0,0
2721,1762970199798,65240,8129,206,0,0,0,0,0
2722,1762970199964,65242,8127,201,0,0,0,0,0
2723,1762970199998,65242,8142,198,0,0,0,0,0
2724,1762970200098,65239,8132,196,0,0,0,0,0
2725,1762970200148,65260,8143,220,0,0,0,0,0
2726,1762970200197,65246,8134,196,3.32,0,0,0,0
2727,1762970200248,65248,8138,217,0,0,0,0,0
2728,1762970200530,65243,8134,205,0,0,0,0,0
2729,1762970200713,65230,8130,203,0,0,0,0,0
2730,1762970201131,65264,8138,201,3.31,0,0,0,0
2731,1762970202797,65269,8157,206,0,0,0,0,0
2732,1762970202829,65201,8122,228,0,0,0,0,0
2733,1762970202912,65252,8144,180,0,0,0,0,0
2734,1762970202962,65266,8143,218,0,0,0,0,0
2735,1762970203045,65238,8138,193,0,0,0,0,0
2736,1762970203128,65212,8138,202,0,0,0,0,0
2737,1762970203162,65231,8133,196,0,0,0,0,0
2738,1762970203179,65274,8148,203,0,0,0,0,0
