index,date,ACCEL_X,ACCEL_Y,ACCEL_Z,1,2,3,4,5
0,1765915244367,-313,8323,-528,0,0,0,0,0
1,1765915244583,-274,8328,-508,0,0,0,0,0
2,1765915244667,-303,8267,-491,0,0,0,0,0
3,1765915244866,-311,8332,-473,0,0,0,0,0
4,1765915244950,-308,8298,-481,0,0,0,0,0
5,1765915245182,-309,8301,-486,0,0,0,0,0
6,1765915245299,-337,8302,-516,0,0,0,0,0
7,1765915245449,-298,8307,-506,0,0,0,0,0
8,1765915245582,-256,8350,-427,0,0,0,0,0
9,1765915245766,-196,8276,-194,0,0,0,0,0
10,1765915245915,-293,8206,-520,0,0,0,0,0
11,1765915246032,-340,8417,-557,0,0,0,0,0
12,1765915246215,-330,8382,-543,0,0,0,0,0
13,1765915246299,-306,8268,-528,0,0,0,0,0
14,1765915246549,-273,8318,-455,0,0,0,0,0
15,1765915246614,-308,8285,-448,0,0,0,0,0
16,1765915246832,-310,8306,-508,0,0,0,0,0
17,1765915246898,-292,8308,-512,0,0,0,0,0
18,1765915247181,-279,8310,-442,0,0,0,0,0
19,1765915247248,-308,8288,-452,0,0,0,0,0
20,1765915247498,-315,8302,-429,0,0,0,0,0
21,1765915247547,-295,8346,-508,0,0,0,0,0
22,1765915247763,-330,8327,-461,0,0,0,0,0
23,1765915247864,-276,8292,-502,0,0,0,0,0
24,1765915248097,-294,8309,-597,0,0,0,0,0
25,1765915248164,-328,8329,-520,0,0,0,0,0
26,1765915248396,-312,8286,-519,0,0,0,0,0
27,1765915248481,-308,8366,-498,0,0,0,0,0
28,1765915248714,-276,8260,-472,0,0,0,0,0
29,1765915248796,-316,8305,-474,0,0,0,0,0
30,1765915248996,-315,8335,-506,0,0,0,0,0
31,1765915249312,-296,8312,-492,0,0,0,0,0
32,1765915249412,-298,8294,-491,0,0,0,0,0
33,1765915249612,-310,8319,-517,0,0,0,0,0
34,1765915249745,-317,8272,-480,0,0,0,0,0
35,1765915249929,-335,8301,-492,0,0,0,0,0
36,1765915250012,-302,8332,-433,0,0,0,0,0
37,1765915250228,-258,8249,-468,0,0,0,0,0
38,1765915250361,-286,8388,-454,0,0,0,0,0
39,1765915250545,-316,8313,-483,0,0,0,0,0
40,1765915250644,-302,8312,-480,0,0,0,0,0
41,1765915250828,-295,8290,-496,0,0,0,0,0
42,1765915250960,-306,8314,-504,0,0,0,0,0
43,1765915251128,-302,8315,-505,0,0,0,0,0
44,1765915251444,-302,8312,-490,0,0,0,0,0
45,1765915251561,-311,8296,-500,0,0,0,0,0
46,1765915251726,-294,8313,-511,0,0,0,0,0
47,1765915252043,-322,8296,-506,0,0,0,0,0
48,1765915252160,-293,8252,-494,0,0,0,0,0
49,1765915252327,-292,8369,-503,0,0,0,0,0
50,1765915252476,-294,8315,-485,0,0,0,0,0
51,1765915252643,-294,8322,-474,0,0,0,0,0
52,1765915252777,-291,8301,-471,0,0,0,0,0
53,1765915252943,-298,8307,-464,0,0,0,0,0
54,1765915253093,-308,8314,-545,0,0,0,0,0
55,1765915253259,-313,8304,-552,0,0,0,0,0
56,1765915253375,-296,8286,-547,0,0,0,0,0
57,1765915253559,-290,8328,-506,0,0,0,0,0
58,1765915253692,-322,8294,-517,0,0,0,0,0
59,1765915253859,-327,8294,-468,0,0,0,0,0
60,1765915254009,-313,8320,-471,0,0,0,0,0
61,1765915254175,-298,8299,-464,0,0,0,0,0
62,1765915254341,-283,8320,-475,0,0,0,0,0
63,1765915254458,-331,8305,-466,0,0,0,0,0
64,1765915254775,-296,8312,-434,0,0,0,0,0
65,1765915254958,-309,8307,-455,0,0,0,0,0
66,1765915255074,-294,8295,-490,0,0,0,0,0
67,1765915255405,-290,8327,-610,0,0,0,0,0
68,1765915255406,-304,8286,-486,0,0,0,0,0
69,1765915255540,-313,8313,-499,0,0,0,0,0
70,1765915255673,-297,8318,-548,0,0,0,0,0
71,1765915255874,-293,8296,-534,0,0,0,0,0
72,1765915255973,-305,8319,-494,0,0,0,0,0
73,1765915256156,-309,8306,-504,0,0,0,0,0
74,1765915256290,-297,8314,-511,0,0,0,0,0
75,1765915256491,-297,8298,-488,0,0,0,0,0
76,1765915256589,-315,8274,-495,0,0,0,0,0
77,1765915256808,-290,8324,-474,0,0,0,0,0
78,1765915256907,-292,8332,-504,0,0,0,0,0
79,1765915257140,-278,8280,-450,0,0,0,0,0
80,1765915257191,-338,8286,-454,0,0,0,0,0
81,1765915257424,-308,8268,-488,0,0,0,0,0
82,1765915257507,-317,8311,-490,0,0,0,0,0
83,1765915257738,-302,8314,-542,0,0,0,0,0
84,1765915257822,-281,8292,-508,0,0,0,0,0
85,1765915258037,-300,8324,-458,0,0,0,0,0
86,1765915258121,-332,8322,-283,0,0,0,0,0
87,1765915258353,-302,8278,-484,0,0,0,0,0
88,1765915258437,-284,8296,-509,0,0,0,0,0
89,1765915258654,-310,8340,-556,0,0,0,0,0
90,1765915258770,-336,8274,-543,0,0,0,0,0
91,1765915258970,-294,8328,-491,0,0,0,0,0
92,1765915259036,-323,8314,-501,0,0,0,0,0
93,1765915259269,-300,8288,-483,0,0,0,0,0
94,1765915259354,-293,8308,-461,0,0,0,0,0
95,1765915259586,-307,8332,-484,0,0,0,0,0
96,1765915259686,-297,8288,-481,0,0,0,0,0
97,1765915259869,-300,8309,-472,0,0,0,0,0
98,1765915260020,-302,8330,-500,0,0,0,0,0
99,1765915260186,-328,8292,-496,0,0,0,0,0
100,1765915260335,-307,8306,-502,0,0,0,0,0
101,1765915260486,-312,8327,-544,0,0,0,0,0
102,1765915260669,-300,8276,-522,0,0,0,0,0
103,1765915260786,-312,8305,-504,0,0,0,0,0
104,1765915260985,-308,8323,-512,0,0,0,0,0
105,1765915261103,-302,8280,-489,0,0,0,0,0
106,1765915261302,-291,8321,-453,0,0,0,0,0
107,1765915261386,-298,8324,-451,0,0,0,0,0
108,1765915261603,-311,8298,-457,0,0,0,0,0
109,1765915261720,-298,8316,-474,0,0,0,0,0
110,1765915261937,-307,8321,-495,0,0,0,0,0
111,1765915262003,-302,8294,-547,0,0,0,0,0
112,1765915262236,-300,8308,-533,0,0,0,0,0
113,1765915262318,-285,8312,-522,0,0,0,0,0
114,1765915262551,-312,8313,-498,0,0,0,0,0
115,1765915262634,-316,8298,-490,0,0,0,0,0
116,1765915262852,-288,8305,-486,0,0,0,0,0
117,1765915262967,-298,8316,-470,0,0,0,0,0
118,1765915263166,-314,8311,-479,0,0,0,0,0
119,1765915263268,-300,8321,-500,0,0,0,0,0
120,1765915263467,-305,8290,-507,0,0,0,0,0
121,1765915263600,-302,8309,-510,0,0,0,0,0
122,1765915263783,-309,8312,-542,0,0,0,0,0
123,1765915263899,-286,8281,-511,0,0,0,0,0
124,1765915264065,-298,8331,-486,0,0,0,0,0
125,1765915264232,-318,8313,-475,0,0,0,0,0
126,1765915264382,-303,8314,-494,0,0,0,0,0
127,1765915264548,-295,8323,-488,0,0,0,0,0
128,1765915264682,-302,8297,-503,0,0,0,0,0
129,1765915264865,-305,8294,-509,0,0,0,0,0
130,1765915264981,-303,8318,-485,0,0,0,0,0
131,1765915265149,-308,8294,-508,0,0,0,0,0
132,1765915265299,-303,8301,-498,0,0,0,0,0
133,1765915265482,-292,8320,-500,0,0,0,0,0
134,1765915265600,-302,8300,-504,0,0,0,0,0
135,1765915265782,-312,8306,-488,0,0,0,0,0
136,1765915265899,-296,8316,-483,0,0,0,0,0
137,1765915266115,-306,8299,-512,0,0,0,0,0
138,1765915266376,-301,8298,-505,0,0,0,0,0
139,1765915266514,-309,8300,-507,0,0,0,0,0
140,1765915266731,-320,8300,-465,0,0,0,0,0
141,1765915266815,-296,8313,-454,0,0,0,0,0
142,1765915267048,-294,8326,-472,0,0,0,0,0
143,1765915267131,-307,8334,-471,0,0,0,0,0
144,1765915267364,-292,8321,-454,0,0,0,0,0
145,1765915267446,-303,8270,-486,0,0,0,0,0
146,1765915267666,-321,8290,-478,0,0,0,0,0
147,1765915267783,-312,8345,-462,0,0,0,0,0
148,1765915267979,-296,8307,-507,0,0,0,0,0
149,1765915269512,-285,8304,-498,0,0,0,0,0
150,1765915269512,-309,8296,-495,0,0,0,0,0
151,1765915269512,-326,8296,-474,0,0,0,0,0
152,1765915269512,-291,8312,-486,0,0,0,0,0
153,1765915269512,-298,8308,-501,0,0,0,0,0
154,1765915269512,-306,8292,-498,0,0,0,0,0
155,1765915269512,-304,8298,-493,0,0,0,0,0
156,1765915269513,-293,8280,-492,0,0,0,0,0
157,1765915269513,-313,8284,-488,0,0,0,0,0
158,1765915269513,-311,8334,-522,0,0,0,0,0
159,1765915269663,-293,8284,-508,0,0,0,0,0
160,1765915269796,-305,8285,-490,0,0,0,0,0
161,1765915269946,-305,8315,-496,0,0,0,0,0
162,1765915270112,-305,8280,-474,0,0,0,0,0
163,1765915270279,-299,8326,-494,0,0,0,0,0
164,1765915270412,-274,8313,-482,0,0,0,0,0
165,1765915270595,-301,8300,-474,0,0,0,0,0
166,1765915270727,-312,8305,-486,0,0,0,0,0
167,1765915270928,-296,8307,-490,0,0,0,0,0
168,1765915271011,-296,8295,-500,0,0,0,0,0
169,1765915271245,-306,8311,-500,0,0,0,0,0
170,1765915271328,-318,8305,-505,0,0,0,0,0
171,1765915271544,-302,8292,-500,0,0,0,0,0
172,1765915271628,-296,8304,-492,0,0,0,0,0
173,1765915271861,-308,8305,-486,0,0,0,0,0
174,1765915271944,-313,8300,-501,0,0,0,0,0
175,1765915272160,-298,8300,-499,0,0,0,0,0
176,1765915272243,-302,8304,-502,0,0,0,0,0
177,1765915272476,-309,8302,-494,0,0,0,0,0
178,1765915272576,-306,8298,-491,0,0,0,0,0
179,1765915272793,-295,8302,-496,0,0,0,0,0
180,1765915272859,-301,8292,-499,0,0,0,0,0
181,1765915273076,-303,8316,-500,0,0,0,0,0
182,1765915273158,-294,8318,-487,0,0,0,0,0
183,1765915273442,-304,8312,-486,0,0,0,0,0
184,1765915273624,-307,8313,-493,0,0,0,0,0
185,1765915273742,-302,8301,-500,0,0,0,0,0
186,1765915273926,-304,8285,-495,0,0,0,0,0
187,1765915274041,-300,8330,-485,0,0,0,0,0
188,1765915274109,-294,8290,-484,0,0,0,0,0
189,1765915275467,-308,8301,-480,0,0,0,0,0
190,1765915275467,-298,8316,-478,0,0,0,0,0
191,1765915275468,-282,8308,-466,0,0,0,0,0
192,1765915275468,-333,8265,-522,0,0,0,0,0
193,1765915275468,-272,8304,-556,0,0,0,0,0
194,1765915275468,-286,8334,-505,0,0,0,0,0
195,1765915275468,-348,8326,-521,0,0,0,0,0
196,1765915275468,-302,8249,-492,0,0,0,0,0
197,1765915275468,-320,8307,-493,0,0,0,0,0
198,1765915275624,-308,8329,-422,0,0,0,0,0
199,1765915275741,-224,8348,-414,0,0,0,0,0
200,1765915275906,-334,8279,-518,0,0,0,0,0
201,1765915276056,-371,8255,-501,0,0,0,0,0
202,1765915276123,-296,8339,-466,0,0,0,0,0
203,1765915276255,-256,8394,-504,0,0,0,0,0
204,1765915276390,-334,8252,-536,0,0,0,0,0
205,1765915276539,-383,8281,-514,0,0,0,0,0
206,1765915276672,-314,8302,-527,0,0,0,0,0
207,1765915276773,-311,8266,-558,0,0,0,0,0
208,1765915276889,-312,8267,-560,0,0,0,0,0
209,1765915277055,-304,8332,-511,0,0,0,0,0
210,1765915277256,-298,8324,-461,0,0,0,0,0
211,1765915277354,-286,8298,-430,0,0,0,0,0
212,1765915277455,-300,8301,-531,0,0,0,0,0
213,1765915277538,-276,8264,-520,0,0,0,0,0
214,1765915277755,-338,8326,-545,0,0,0,0,0
215,1765915277839,-300,8278,-504,0,0,0,0,0
216,1765915278054,-279,8283,-482,0,0,0,0,0
217,1765915278139,-312,8272,-569,0,0,0,0,0
218,1765915278238,-368,8285,-538,0,0,0,0,0
219,1765915278421,-299,8332,-549,0,0,0,0,0
220,1765915278538,-280,8288,-514,0,0,0,0,0
221,1765915278720,-299,8274,-446,0,0,0,0,0
222,1765915278804,-314,8032,628,0,0,0,0,0
223,1765915279020,-180,8501,710,0,0,0,0,0
224,1765915279086,-256,8770,703,0,0,0,0,0
225,1765915279320,-291,8142,642,0,0,0,0,0
226,1765915279403,-245,8246,564,0,0,0,0,0
227,1765915279553,-168,8258,663,0,0,0,0,0
228,1765915279686,-109,8479,672,0,0,0,0,0
229,1765915279836,-230,8625,756,0,0,0,0,0
230,1765915279987,-394,8356,605,0,0,0,0,0
231,1765915280285,-810,7248,1318,0,0,0,0,0
232,1765915280335,-1602,9042,796,0,0,0,0,0
233,1765915280586,-323,8317,986,0,0,0,0,0
234,1765915280652,321,9030,842,0,0,0,0,0
235,1765915280836,332,7968,1436,0,0,0,0,0
236,1765915280935,2046,9174,906,0,0,0,0,0
237,1765915281169,123,9756,789,0,0,0,0,0
238,1765915281235,880,6640,693,0,0,0,0,0
239,1765915281468,1675,8823,507,0,0,0,0,0
240,1765915281785,590,7083,350,0,0,0,0,0
241,1765915281885,1011,7490,532,0,0,0,0,0
242,1765915282084,430,9431,1078,0,0,0,0,0
243,1765915282301,193,7126,-326,0,0,0,0,0
244,1765915282417,-690,8623,1143,0,0,0,0,0
245,1765915282651,317,8848,436,0,0,0,0,0
246,1765915282734,990,7992,366,0,0,0,0,0
247,1765915282984,235,9300,422,0,0,0,0,0
248,1765915283167,10,8577,838,0,0,0,0,0
249,1765915283283,-488,7807,833,0,0,0,0,0
250,1765915283517,-340,8087,1010,0,0,0,0,0
251,1765915283616,-291,8904,848,0,0,0,0,0
252,1765915283733,-4060,8599,-456,0,0,0,0,0
253,1765915283849,-4413,7682,320,0,0,0,0,0
254,1765915284100,-2804,7760,880,0,0,0,0,0
255,1765915284183,-2039,7061,871,0,0,0,0,0
256,1765915284433,-3246,9043,621,0,0,0,0,0
257,1765915284648,-3432,8088,158,0,0,0,0,0
258,1765915284732,-3173,7778,386,0,0,0,0,0
259,1765915284965,-3192,8823,620,0,0,0,0,0
260,1765915285232,-3240,8787,639,0,0,0,0,0
261,1765915285314,-3199,9172,188,0,0,0,0,0
262,1765915285531,-4107,8062,502,0,0,0,0,0
263,1765915285647,-4438,8639,-293,0,0,0,0,0
264,1765915285882,-5765,6660,-208,0,0,0,0,0
265,1765915286115,-4235,7543,408,0,0,0,0,0
266,1765915286215,-3975,6481,795,0,0,0,0,0
267,1765915286414,-4898,10810,480,0,0,0,0,0
268,1765915286681,-5562,8920,405,0,0,0,0,0
269,1765915286747,-5674,8560,-238,0,0,0,0,0
270,1765915286980,-7072,7887,-986,0,0,0,0,0
271,1765915287097,-5433,8386,480,0,0,0,0,0
272,1765915287214,-4770,7599,1550,0,0,0,0,0
273,1765915287313,-6347,5873,434,0,0,0,0,0
274,1765915287564,-6080,4720,213,0,0,0,0,0
275,1765915287663,-6221,9582,946,0,0,0,0,0
276,1765915287863,-7319,5945,846,0,0,0,0,0
277,1765915288226,-5108,7821,1270,0,0,0,0,0
278,1765915288246,-4307,7740,1903,0,0,0,0,0
279,1765915288429,-1901,7428,1116,0,0,0,0,0
280,1765915288529,-69,9053,916,0,0,0,0,0
281,1765915288629,825,9204,-355,0,0,0,0,0
282,1765915288761,724,8178,763,0,0,0,0,0
283,1765915288996,788,9213,-894,0,0,0,0,0
284,1765915289063,846,5818,448,0,0,0,0,0
285,1765915289295,1331,8583,794,0,0,0,0,0
286,1765915289546,-455,9140,-282,0,0,0,0,0
287,1765915289629,1036,6912,-53,0,0,0,0,0
288,1765915289862,-886,9400,694,0,0,0,0,0
289,1765915289961,716,8768,435,0,0,0,0,0
290,1765915290078,-1543,6406,-1046,0,0,0,0,0
291,1765915290212,-754,9026,-1548,0,0,0,0,0
292,1765915290444,-1220,8458,-376,0,0,0,0,0
293,1765915290512,-590,9300,-1482,0,0,0,0,0
294,1765915290909,4460,9040,-1941,0,0,0,0,0
295,1765915291061,4110,7746,-1901,0,0,0,0,0
296,1765915291260,3406,8018,-2727,0,0,0,0,0
297,1765915291360,3776,9445,-1845,0,0,0,0,0
298,1765915291610,7472,9125,-2288,0,0,0,0,0
299,1765915291676,6958,8840,-1993,0,0,0,0,0
300,1765915291926,6383,7692,-3055,0,0,0,0,0
301,1765915292027,6056,6590,-2881,0,0,0,0,0
302,1765915292242,3440,7706,-969,0,0,0,0,0
303,1765915292392,4252,7732,-1709,0,0,0,0,0
304,1765915292543,4264,8895,-1499,0,0,0,0,0
305,1765915292725,3904,8151,-1383,0,0,0,0,0
306,1765915292842,4273,9099,-1628,0,0,0,0,0
307,1765915293092,4408,8404,-1855,0,0,0,0,0
308,1765915293158,5366,7534,-1180,0,0,0,0,0
309,1765915293392,5154,9806,-1956,0,0,0,0,0
310,1765915293508,5743,9904,-1289,0,0,0,0,0
311,1765915293724,3874,9344,-501,0,0,0,0,0
312,1765915293892,3666,7451,-904,0,0,0,0,0
313,1765915294024,4648,8631,409,0,0,0,0,0
314,1765915294290,2414,8438,755,0,0,0,0,0
315,1765915294407,3530,8061,1833,0,0,0,0,0
316,1765915294590,1800,8867,1262,0,0,0,0,0
317,1765915295887,3254,7464,1490,0,0,0,0,0
318,1765915295887,3348,8367,1509,0,0,0,0,0
319,1765915295887,-4039,5005,-2091,0,0,0,0,0
320,1765915295887,-4636,12092,-918,0,0,0,0,0
321,1765915295887,-7082,7742,-1440,0,0,0,0,0
322,1765915295887,-6145,5821,-709,0,0,0,0,0
323,1765915295887,-3464,7148,-2124,0,0,0,0,0
324,1765915295923,-1640,7892,-2208,0,0,0,0,0
325,1765915296056,-5632,11032,-3775,0,0,0,0,0
326,1765915296289,-4552,5689,-2102,0,0,0,0,0
327,1765915296355,-6219,7758,-3371,0,0,0,0,0
328,1765915296406,-7338,6944,-2828,0,0,0,0,0
329,1765915296639,-5001,7628,-1066,0,0,0,0,0
330,1765915296723,-2779,10756,-90,0,0,0,0,0
331,1765915296939,-2038,7197,-1012,0,0,0,0,0
332,1765915297055,-3892,10055,-2559,0,0,0,0,0
333,1765915297255,-6443,7376,-2740,0,0,0,0,0
334,1765915297422,-8360,7656,-3119,0,0,0,0,0
335,1765915297539,-6721,6878,-1840,0,0,0,0,0
336,1765915297771,-2584,7959,-1092,0,0,0,0,0
337,1765915297871,-2450,8707,-356,0,0,0,0,0
338,1765915298106,-2028,7790,-769,0,0,0,0,0
339,1765915298189,-2050,7241,-441,0,0,0,0,0
340,1765915298404,-3057,8295,-808,0,0,0,0,0
341,1765915298570,-2653,8091,-1042,0,0,0,0,0
342,1765915298720,-2829,8475,-1226,0,0,0,0,0
343,1765915298903,-2635,7910,-1024,0,0,0,0,0
344,1765915299020,-2240,8536,-292,0,0,0,0,0
345,1765915299303,-1978,8999,62,0,0,0,0,0
346,1765915299403,-1480,7412,271,0,0,0,0,0
347,1765915299587,324,9662,830,0,0,0,0,0
348,1765915299769,92,7362,-8,0,0,0,0,0
349,1765915299937,1938,8842,-254,0,0,0,0,0
350,1765915300169,260,8840,1272,0,0,0,0,0
351,1765915300319,-719,8438,112,0,0,0,0,0
352,1765915300468,1064,7677,598,0,0,0,0,0
353,1765915300735,3027,8451,-208,0,0,0,0,0
354,1765915300834,3504,8351,223,0,0,0,0,0
355,1765915301036,2845,8327,-394,0,0,0,0,0
356,1765915301218,4175,9058,788,0,0,0,0,0
357,1765915301368,-5048,8206,-514,0,0,0,0,0
358,1765915301601,-4327,7690,475,0,0,0,0,0
359,1765915301717,-5905,9044,-1378,0,0,0,0,0
360,1765915301901,-5297,6636,1062,0,0,0,0,0
361,1765915302185,4338,8113,-451,0,0,0,0,0
362,1765915302251,3486,8235,-826,0,0,0,0,0
363,1765915302468,1798,8700,-1066,0,0,0,0,0
364,1765915302617,-1604,6615,-1638,0,0,0,0,0
365,1765915302800,-1152,9613,225,0,0,0,0,0
366,1765915303052,-1146,8163,440,0,0,0,0,0
367,1765915303117,-986,9130,333,0,0,0,0,0
368,1765915303533,-1626,8053,478,0,0,0,0,0
369,1765915303666,-1713,7784,440,0,0,0,0,0
370,1765915303899,-3110,9946,545,0,0,0,0,0
371,1765915303967,-3224,6094,-166,0,0,0,0,0
372,1765915304349,-1982,8206,-312,0,0,0,0,0
373,1765915304533,-2378,8641,-344,0,0,0,0,0
374,1765915304699,-1771,6418,-1056,0,0,0,0,0
375,1765915304866,-3582,8922,-69,0,0,0,0,0
376,1765915305084,-2458,8685,-1980,0,0,0,0,0
377,1765915305167,-2316,7297,-1539,0,0,0,0,0
378,1765915305399,-3193,8662,-3158,0,0,0,0,0
379,1765915305498,-6247,7058,-3327,0,0,0,0,0
380,1765915305731,-4403,7004,-543,0,0,0,0,0
381,1765915305898,-3908,9586,-820,0,0,0,0,0
382,1765915306016,-3470,9036,-2039,0,0,0,0,0
383,1765915306232,-658,7316,-458,0,0,0,0,0
384,1765915306281,-3199,7846,-212,0,0,0,0,0
385,1765915306347,-3050,8323,-1198,0,0,0,0,0
386,1765915306581,-4682,7342,573,0,0,0,0,0
387,1765915306697,-4798,9445,-585,0,0,0,0,0
388,1765915306864,-4538,7852,514,0,0,0,0,0
389,1765915307131,-2658,9042,1592,0,0,0,0,0
390,1765915307197,-3290,8833,535,0,0,0,0,0
391,1765915307448,-3085,7279,1150,0,0,0,0,0
392,1765915307547,-3452,7812,910,0,0,0,0,0
393,1765915307763,-5512,8056,-343,0,0,0,0,0
394,1765915307898,-2668,8392,1406,0,0,0,0,0
395,1765915308230,-3958,8370,771,0,0,0,0,0
396,1765915308379,-2762,7908,-8,0,0,0,0,0
397,1765915308496,-3150,9183,734,0,0,0,0,0
398,1765915308664,-2164,9619,655,0,0,0,0,0
399,1765915308847,-1538,8768,1591,0,0,0,0,0
400,1765915308979,-2484,7908,187,0,0,0,0,0
401,1765915309165,-352,9386,553,0,0,0,0,0
402,1765915309295,-1097,8673,91,0,0,0,0,0
403,1765915309479,-1195,8908,265,0,0,0,0,0
404,1765915309578,-1822,6994,442,0,0,0,0,0
405,1765915309778,-994,8356,513,0,0,0,0,0
406,1765915309897,370,9520,880,0,0,0,0,0
407,1765915310179,-726,9229,524,0,0,0,0,0
408,1765915310712,-217,8726,828,0,0,0,0,0
409,1765915310795,-395,7450,84,0,0,0,0,0
410,1765915311027,-922,8772,1316,0,0,0,0,0
411,1765915311113,-288,6524,404,0,0,0,0,0
412,1765915311310,1133,8663,1002,0,0,0,0,0
413,1765915311412,-1802,8627,-866,0,0,0,0,0
414,1765915311644,-314,7615,464,0,0,0,0,0
415,1765915311711,222,8656,452,0,0,0,0,0
416,1765915311894,376,7502,259,0,0,0,0,0
417,1765915312011,456,9391,-186,0,0,0,0,0
418,1765915312226,659,6908,590,0,0,0,0,0
419,1765915312309,1296,9724,62,0,0,0,0,0
420,1765915312628,-235,8164,766,0,0,0,0,0
421,1765915312825,-430,9218,-114,0,0,0,0,0
422,1765915312925,76,8399,240,0,0,0,0,0
423,1765915313142,-551,8145,132,0,0,0,0,0
424,1765915313242,-1705,7234,148,0,0,0,0,0
425,1765915313426,-740,9566,29,0,0,0,0,0
426,1765915313525,-1304,8697,812,0,0,0,0,0
427,1765915313759,-458,8416,213,0,0,0,0,0
428,1765915313808,-614,7573,838,0,0,0,0,0
429,1765915314008,-382,9956,892,0,0,0,0,0
430,1765915314126,-1053,6515,-324,0,0,0,0,0
431,1765915314325,523,9146,-131,0,0,0,0,0
432,1765915314425,-1232,8158,-193,0,0,0,0,0
433,1765915314708,158,8492,140,0,0,0,0,0
434,1765915314824,-481,7680,-1232,0,0,0,0,0
435,1765915315008,360,8258,-216,0,0,0,0,0
436,1765915315142,-354,8060,-1038,0,0,0,0,0
437,1765915315275,-594,10438,-1760,0,0,0,0,0
438,1765915315373,-1234,7170,-588,0,0,0,0,0
439,1765915315591,-3630,8855,-1951,0,0,0,0,0
440,1765915315658,-5923,8181,-2455,0,0,0,0,0
441,1765915315906,-5536,8398,-2217,0,0,0,0,0
442,1765915315974,-7136,7198,-1684,0,0,0,0,0
443,1765915316223,-6868,6519,-1700,0,0,0,0,0
444,1765915316273,-5608,8620,-792,0,0,0,0,0
445,1765915316523,-7265,8807,-2285,0,0,0,0,0
446,1765915316655,-5930,7297,-1258,0,0,0,0,0
447,1765915316706,-3022,10268,-568,0,0,0,0,0
448,1765915316839,-5968,6123,-1228,0,0,0,0,0
449,1765915317089,-7582,10024,-1601,0,0,0,0,0
450,1765915317156,-2325,10425,122,0,0,0,0,0
451,1765915317405,-5064,8387,-372,0,0,0,0,0
452,1765915317605,-3786,7418,-245,0,0,0,0,0
453,1765915317722,-4330,9182,-743,0,0,0,0,0
454,1765915317955,-4272,7834,-172,0,0,0,0,0
455,1765915318072,-4694,7755,-691,0,0,0,0,0
456,1765915318204,-5432,8095,864,0,0,0,0,0
457,1765915318289,-5581,7018,1920,0,0,0,0,0
458,1765915318521,-5872,8254,714,0,0,0,0,0
459,1765915318638,-5411,6688,970,0,0,0,0,0
460,1765915318856,-6825,7340,572,0,0,0,0,0
461,1765915319087,-6890,6718,-970,0,0,0,0,0
462,1765915319187,-6947,8515,11,0,0,0,0,0
463,1765915319387,-8174,7103,1108,0,0,0,0,0
464,1765915319671,-6336,7358,-1124,0,0,0,0,0
465,1765915319787,-9189,10872,471,0,0,0,0,0
466,1765915319971,-7524,7086,828,0,0,0,0,0
467,1765915320136,-6934,9335,476,0,0,0,0,0
468,1765915320222,-7237,6828,1470,0,0,0,0,0
469,1765915320303,-7894,9347,28,0,0,0,0,0
470,1765915320536,-9691,8808,-782,0,0,0,0,0
471,1765915320653,-6868,5255,431,0,0,0,0,0
472,1765915320836,-7683,7914,1174,0,0,0,0,0
473,1765915321119,-7222,8148,828,0,0,0,0,0
474,1765915321187,-7943,6579,-150,0,0,0,0,0
475,1765915321526,-7498,8868,186,0,0,0,0,0
476,1765915321586,-8055,7334,-230,0,0,0,0,0
477,1765915321669,-7387,8370,1003,0,0,0,0,0
478,1765915321753,-6336,6927,2590,0,0,0,0,0
479,1765915321985,-2081,8654,3921,0,0,0,0,0
480,1765915322118,152,8754,3415,0,0,0,0,0
481,1765915322285,6638,8876,-384,0,0,0,0,0
482,1765915322551,43,8382,347,0,0,0,0,0
483,1765915322650,2362,6758,2982,0,0,0,0,0
484,1765915322850,1740,10528,130,0,0,0,0,0
485,1765915323017,931,7164,270,0,0,0,0,0
486,1765915323100,1642,7911,1011,0,0,0,0,0
487,1765915323182,708,8862,64,0,0,0,0,0
488,1765915323418,1269,8348,-397,0,0,0,0,0
489,1765915323533,148,7454,1272,0,0,0,0,0
490,1765915323717,926,7581,-80,0,0,0,0,0
491,1765915323982,-817,9502,-646,0,0,0,0,0
492,1765915324082,583,7743,20,0,0,0,0,0
493,1765915324283,1982,8106,540,0,0,0,0,0
494,1765915324467,4054,8721,-220,0,0,0,0,0
495,1765915324517,6751,7371,-232,0,0,0,0,0
496,1765915324617,6553,8012,-1373,0,0,0,0,0
497,1765915324868,5691,7096,-1036,0,0,0,0,0
498,1765915324951,6208,5526,-2374,0,0,0,0,0
499,1765915325166,6920,8211,-2523,0,0,0,0,0
500,1765915325432,7056,7794,-3013,0,0,0,0,0
501,1765915325484,7743,7137,-2940,0,0,0,0,0
502,1765915325732,9201,7186,-2629,0,0,0,0,0
503,1765915325833,9308,9344,-1026,0,0,0,0,0
504,1765915326048,5900,10628,-1962,0,0,0,0,0
505,1765915326182,7330,6175,-1671,0,0,0,0,0
506,1765915326350,7261,11556,-574,0,0,0,0,0
507,1765915326532,7407,8580,465,0,0,0,0,0
508,1765915326665,3008,8673,2192,0,0,0,0,0
509,1765915326898,922,8773,-32,0,0,0,0,0
510,1765915326982,1840,6402,-1788,0,0,0,0,0
511,1765915328764,3414,9298,-638,0,0,0,0,0
512,1765915328764,862,7965,-678,0,0,0,0,0
513,1765915328765,1073,9018,-587,0,0,0,0,0
514,1765915328765,582,8031,-1629,0,0,0,0,0
515,1765915328765,662,8666,1214,0,0,0,0,0
516,1765915328765,-765,6798,533,0,0,0,0,0
517,1765915328765,1208,9962,1528,0,0,0,0,0
518,1765915328765,-975,8165,784,0,0,0,0,0
519,1765915328765,1340,9140,-872,0,0,0,0,0
520,1765915328765,131,8096,-1808,0,0,0,0,0
521,1765915328964,-4109,9273,-1792,0,0,0,0,0
522,1765915329063,-3204,8885,-1332,0,0,0,0,0
523,1765915329263,-3378,7118,-1883,0,0,0,0,0
524,1765915329413,-3629,8464,-665,0,0,0,0,0
525,1765915329579,-4766,7526,-1321,0,0,0,0,0
526,1765915329763,-5322,8510,-1559,0,0,0,0,0
527,1765915329879,-5045,6291,-1028,0,0,0,0,0
528,1765915330112,-4523,8704,-1766,0,0,0,0,0
529,1765915330129,-5267,6664,-1266,0,0,0,0,0
530,1765915330211,-5159,9684,-1170,0,0,0,0,0
531,1765915330429,-4608,8052,-682,0,0,0,0,0
532,1765915330528,-4900,7585,-1644,0,0,0,0,0
533,1765915330728,-5488,7869,-1914,0,0,0,0,0
534,1765915330879,-5240,7376,-1130,0,0,0,0,0
535,1765915331062,-4617,8638,-1023,0,0,0,0,0
536,1765915331229,-4642,6745,-1101,0,0,0,0,0
537,1765915331345,-5046,8154,-1139,0,0,0,0,0
538,1765915331560,-3204,8225,-760,0,0,0,0,0
539,1765915331678,-3005,7510,-997,0,0,0,0,0
540,1765915331911,-4088,8655,-743,0,0,0,0,0
541,1765915331977,-3563,7006,-618,0,0,0,0,0
542,1765915332210,-2974,9424,-1288,0,0,0,0,0
543,1765915332227,-1478,8004,-614,0,0,0,0,0
544,1765915332485,-1912,9255,-554,0,0,0,0,0
545,1765915332526,-1650,7781,-1066,0,0,0,0,0
546,1765915332660,-660,10082,-672,0,0,0,0,0
547,1765915332810,-1819,9213,-1143,0,0,0,0,0
548,1765915333027,-1298,8018,-262,0,0,0,0,0
549,1765915333143,-1742,9845,-966,0,0,0,0,0
550,1765915333360,-1682,7640,-861,0,0,0,0,0
551,1765915333444,-1584,8064,-379,0,0,0,0,0
552,1765915333709,863,7539,-52,0,0,0,0,0
553,1765915333775,194,7293,-844,0,0,0,0,0
554,1765915333991,1499,9998,-970,0,0,0,0,0
555,1765915334142,-184,7602,-1688,0,0,0,0,0
556,1765915334294,-1370,7989,-1185,0,0,0,0,0
557,1765915334473,410,10097,-792,0,0,0,0,0
558,1765915334841,284,7575,-683,0,0,0,0,0
559,1765915334908,594,8296,-716,0,0,0,0,0
560,1765915335174,-259,9065,-1462,0,0,0,0,0
561,1765915335258,46,6986,-432,0,0,0,0,0
562,1765915335475,290,8434,-707,0,0,0,0,0
563,1765915335608,-543,8270,-1185,0,0,0,0,0
564,1765915335791,-618,7652,-1792,0,0,0,0,0
565,1765915335990,84,7325,-194,0,0,0,0,0
566,1765915336091,-328,9403,-686,0,0,0,0,0
567,1765915336323,437,8238,-604,0,0,0,0,0
568,1765915336407,217,8918,-251,0,0,0,0,0
569,1765915336656,-3843,11487,-1546,0,0,0,0,0
570,1765915336724,-950,9416,-606,0,0,0,0,0
571,1765915336941,-899,7289,-618,0,0,0,0,0
572,1765915337090,-825,8384,-710,0,0,0,0,0
573,1765915337272,-248,8656,-682,0,0,0,0,0
574,1765915337423,-827,9272,-874,0,0,0,0,0
575,1765915337555,-827,7017,-690,0,0,0,0,0
576,1765915337788,-649,8350,-778,0,0,0,0,0
577,1765915338122,-643,8361,-755,0,0,0,0,0
578,1765915338205,-760,8564,-508,0,0,0,0,0
579,1765915338539,-552,8475,-381,0,0,0,0,0
580,1765915338572,-979,8246,-1011,0,0,0,0,0
581,1765915338738,-731,8924,-436,0,0,0,0,0
582,1765915338922,-373,8414,-941,0,0,0,0,0
583,1765915339038,-378,7278,-853,0,0,0,0,0
584,1765915339305,-439,7471,-686,0,0,0,0,0
585,1765915339371,114,8100,-1114,0,0,0,0,0
586,1765915339604,-655,8070,-697,0,0,0,0,0
587,1765915339687,350,8301,-472,0,0,0,0,0
588,1765915339904,148,8733,-559,0,0,0,0,0
589,1765915340053,610,9431,-976,0,0,0,0,0
590,1765915340221,840,9162,-392,0,0,0,0,0
591,1765915340387,425,7252,-784,0,0,0,0,0
592,1765915340504,948,8411,-907,0,0,0,0,0
593,1765915340736,951,8370,-1172,0,0,0,0,0
594,1765915340836,1260,7088,-687,0,0,0,0,0
595,1765915341153,427,8439,-801,0,0,0,0,0
596,1765915341402,175,7804,-1175,0,0,0,0,0
597,1765915341536,196,8150,-1187,0,0,0,0,0
598,1765915341686,198,8697,-708,0,0,0,0,0
599,1765915341869,-642,8254,-978,0,0,0,0,0
600,1765915342218,-1082,7524,-874,0,0,0,0,0
601,1765915342319,-1384,8482,-900,0,0,0,0,0
602,1765915342535,-689,9042,-680,0,0,0,0,0
603,1765915342618,-1097,7040,-752,0,0,0,0,0
604,1765915342835,-452,8944,-1312,0,0,0,0,0
605,1765915342919,-969,7874,-712,0,0,0,0,0
606,1765915343135,-1452,8030,-771,0,0,0,0,0
607,1765915343217,-1436,8279,-1270,0,0,0,0,0
608,1765915343644,-911,8143,-684,0,0,0,0,0
609,1765915343700,-1220,8148,-711,0,0,0,0,0
610,1765915343817,-1394,8918,-904,0,0,0,0,0
611,1765915344001,-1237,8204,-914,0,0,0,0,0
612,1765915344134,-671,8066,-655,0,0,0,0,0
613,1765915344234,-1231,8234,-742,0,0,0,0,0
614,1765915344416,-1464,8268,-1009,0,0,0,0,0
615,1765915344551,-978,7972,-615,0,0,0,0,0
616,1765915344700,-906,8498,-824,0,0,0,0,0
617,1765915344817,-630,8040,-922,0,0,0,0,0
618,1765915345017,-742,8129,-714,0,0,0,0,0
619,1765915345118,-1214,7942,-755,0,0,0,0,0
620,1765915345315,-952,8794,-749,0,0,0,0,0
621,1765915345432,-652,7599,-702,0,0,0,0,0
622,1765915345568,-686,8401,-581,0,0,0,0,0
623,1765915345682,-953,8130,-838,0,0,0,0,0
624,1765915345881,-877,8961,-837,0,0,0,0,0
625,1765915345965,-554,7831,-846,0,0,0,0,0
626,1765915346265,-383,7948,-766,0,0,0,0,0
627,1765915346348,-544,8009,-910,0,0,0,0,0
628,1765915346549,-275,8662,-1240,0,0,0,0,0
629,1765915346665,-377,8109,-1322,0,0,0,0,0
630,1765915346931,-364,8488,-1482,0,0,0,0,0
631,1765915347097,-452,7961,-1559,0,0,0,0,0
632,1765915347214,-454,8194,-1489,0,0,0,0,0
633,1765915347397,-279,8246,-1449,0,0,0,0,0
634,1765915347513,-211,8320,-414,0,0,0,0,0
635,1765915347597,-284,5834,281,0,0,0,0,0
636,1765915347815,-458,8426,-306,0,0,0,0,0
637,1765915347915,-270,8244,-492,0,0,0,0,0
638,1765915348097,-278,8141,-660,0,0,0,0,0
639,1765915348213,-515,8212,-577,0,0,0,0,0
640,1765915348330,-434,8159,-494,0,0,0,0,0
641,1765915348464,-343,8292,-498,0,0,0,0,0
642,1765915348647,-288,8375,-468,0,0,0,0,0
643,1765915348747,-373,8259,-340,0,0,0,0,0
644,1765915349013,-379,8278,-438,0,0,0,0,0
645,1765915349113,-352,8273,-482,0,0,0,0,0
646,1765915349313,-360,8338,-499,0,0,0,0,0
647,1765915349396,-337,8196,-491,0,0,0,0,0
648,1765915349662,-339,8186,-383,0,0,0,0,0
649,1765915349762,-357,8380,-477,0,0,0,0,0
650,1765915349962,-330,8297,-446,0,0,0,0,0
651,1765915350046,-363,8235,-428,0,0,0,0,0
652,1765915350329,-358,8289,-452,0,0,0,0,0
653,1765915350395,-350,8308,-402,0,0,0,0,0
654,1765915350612,-345,8320,-420,0,0,0,0,0
655,1765915350678,-348,8292,-458,0,0,0,0,0
656,1765915350995,-346,8275,-444,0,0,0,0,0
657,1765915351161,-352,8330,-432,0,0,0,0,0
658,1765915351278,-352,8287,-428,0,0,0,0,0
659,1765915351477,-364,8253,-445,0,0,0,0,0
660,1765915351611,-364,8286,-464,0,0,0,0,0
661,1765915351827,-342,8306,-463,0,0,0,0,0
662,1765915351910,-341,8289,-451,0,0,0,0,0
663,1765915352145,-386,8282,-450,0,0,0,0,0
664,1765915352227,-344,8308,-440,0,0,0,0,0
665,1765915352462,-343,8296,-472,0,0,0,0,0
666,1765915352530,-365,8289,-461,0,0,0,0,0
667,1765915352761,-359,8292,-457,0,0,0,0,0
668,1765915352862,-341,8292,-427,0,0,0,0,0
669,1765915353076,-380,8279,-458,0,0,0,0,0
670,1765915353177,-351,8303,-430,0,0,0,0,0
671,1765915353359,-352,8311,-437,0,0,0,0,0
672,1765915353526,-369,8289,-468,0,0,0,0,0
673,1765915353693,-354,8296,-435,0,0,0,0,0
674,1765915353876,-349,8298,-450,0,0,0,0,0
675,1765915353992,-377,8290,-468,0,0,0,0,0
676,1765915354225,-346,8300,-454,0,0,0,0,0
677,1765915354292,-361,8270,-438,0,0,0,0,0
678,1765915354625,-352,8286,-452,0,0,0,0,0
679,1765915354658,-356,8282,-442,0,0,0,0,0
680,1765915354841,-364,8300,-448,0,0,0,0,0
681,1765915354991,-346,8304,-426,0,0,0,0,0
682,1765915355175,-366,8230,-450,0,0,0,0,0
683,1765915355341,-354,8362,-421,0,0,0,0,0
684,1765915355460,-343,8278,-421,0,0,0,0,0
685,1765915355691,-366,8252,-451,0,0,0,0,0
686,1765915355790,-354,8302,-446,0,0,0,0,0
687,1765915356039,-336,8281,-440,0,0,0,0,0
688,1765915356090,-366,8302,-443,0,0,0,0,0
689,1765915356323,-357,8303,-445,0,0,0,0,0
690,1765915356422,-354,8266,-459,0,0,0,0,0
691,1765915356639,-364,8324,-446,0,0,0,0,0
692,1765915356773,-347,8278,-452,0,0,0,0,0
693,1765915356923,-367,8296,-448,0,0,0,0,0
694,1765915357089,-358,8296,-445,0,0,0,0,0
695,1765915357257,-370,8271,-447,0,0,0,0,0
696,1765915357456,-331,8311,-460,0,0,0,0,0
697,1765915357557,-376,8286,-484,0,0,0,0,0
698,1765915357789,-355,8326,-412,0,0,0,0,0
699,1765915357873,-344,8281,-429,0,0,0,0,0
700,1765915358106,-360,8276,-444,0,0,0,0,0
701,1765915358222,-368,8316,-457,0,0,0,0,0
702,1765915358405,-341,8292,-462,0,0,0,0,0
703,1765915358572,-346,8289,-462,0,0,0,0,0
704,1765915358721,-350,8274,-455,0,0,0,0,0
705,1765915358886,-350,8302,-460,0,0,0,0,0
706,1765915359020,-368,8298,-456,0,0,0,0,0
707,1765915359236,-349,8290,-438,0,0,0,0,0
708,1765915359352,-348,8274,-448,0,0,0,0,0
709,1765915359570,-360,8311,-464,0,0,0,0,0
710,1765915359652,-354,8303,-441,0,0,0,0,0
711,1765915359869,-339,8280,-397,0,0,0,0,0
712,1765915359985,-366,8306,-457,0,0,0,0,0
713,1765915360018,-354,8275,-486,0,0,0,0,0
714,1765915360201,-357,8315,-419,0,0,0,0,0
715,1765915360352,-352,8291,-403,0,0,0,0,0
716,1765915360486,-354,8285,-454,0,0,0,0,0
717,1765915360718,-368,8291,-470,0,0,0,0,0
718,1765915360818,-355,8276,-436,0,0,0,0,0
719,1765915361050,-354,8309,-431,0,0,0,0,0
720,1765915361134,-348,8315,-465,0,0,0,0,0
721,1765915361351,-357,8286,-454,0,0,0,0,0
722,1765915361384,-359,8284,-472,0,0,0,0,0
723,1765915361451,-338,8324,-406,0,0,0,0,0
724,1765915361667,-357,8269,-446,0,0,0,0,0
725,1765915361818,-358,8286,-492,0,0,0,0,0
726,1765915361967,-373,8333,-474,0,0,0,0,0
727,1765915362133,-356,8311,-428,0,0,0,0,0
728,1765915362284,-351,8282,-451,0,0,0,0,0
729,1765915362466,-364,8296,-490,0,0,0,0,0
730,1765915362583,-356,8306,-478,0,0,0,0,0
731,1765915362850,-346,8322,-442,0,0,0,0,0
732,1765915362916,-354,8304,-463,0,0,0,0,0
733,1765915363149,-391,8276,-484,0,0,0,0,0
734,1765915363249,-342,8293,-456,0,0,0,0,0
735,1765915363450,-350,8260,-424,0,0,0,0,0
736,1765915363599,-358,8301,-458,0,0,0,0,0
737,1765915363766,-349,8302,-447,0,0,0,0,0
738,1765915363981,-362,8282,-456,0,0,0,0,0
739,1765915364048,-358,8290,-443,0,0,0,0,0
740,1765915364331,-349,8284,-447,0,0,0,0,0
741,1765915364398,-348,8286,-441,0,0,0,0,0
742,1765915364615,-364,8320,-472,0,0,0,0,0
743,1765915364731,-361,8284,-445,0,0,0,0,0
744,1765915364948,-350,8300,-452,0,0,0,0,0
745,1765915365098,-359,8296,-453,0,0,0,0,0
746,1765915365231,-348,8296,-445,0,0,0,0,0
747,1765915365564,-357,8285,-423,0,0,0,0,0
748,1765915365564,-355,8317,-445,0,0,0,0,0
749,1765915365780,-359,8282,-448,0,0,0,0,0
750,1765915365865,-364,8321,-438,0,0,0,0,0
751,1765915366081,-350,8287,-445,0,0,0,0,0
752,1765915366199,-358,8280,-448,0,0,0,0,0
753,1765915366414,-356,8291,-445,0,0,0,0,0
754,1765915366547,-352,8301,-455,0,0,0,0,0
755,1765915366713,-352,8302,-464,0,0,0,0,0
756,1765915366879,-350,8293,-455,0,0,0,0,0
757,1765915367047,-356,8307,-463,0,0,0,0,0
758,1765915367262,-361,8296,-470,0,0,0,0,0
759,1765915367328,-354,8288,-460,0,0,0,0,0
760,1765915367562,-342,8301,-432,0,0,0,0,0
761,1765915367678,-348,8322,-424,0,0,0,0,0
762,1765915367895,-365,8244,-400,0,0,0,0,0
763,1765915368012,-316,8306,-453,0,0,0,0,0
764,1765915368178,-306,8338,-501,0,0,0,0,0
765,1765915368345,-347,8268,-419,0,0,0,0,0
766,1765915368494,-378,8260,-442,0,0,0,0,0
767,1765915368712,-345,8281,-466,0,0,0,0,0
768,1765915368795,-342,8280,-478,0,0,0,0,0
769,1765915369045,-314,8320,-390,0,0,0,0,0
770,1765915369128,-347,8272,-439,0,0,0,0,0
771,1765915369363,-340,8322,-432,0,0,0,0,0
772,1765915369462,-346,8309,-472,0,0,0,0,0
773,1765915369646,-346,8275,-446,0,0,0,0,0
774,1765915369812,-343,8285,-412,0,0,0,0,0
775,1765915369979,-386,8290,-477,0,0,0,0,0
776,1765915370161,-316,8231,-425,0,0,0,0,0
777,1765915370279,-344,8312,-470,0,0,0,0,0
778,1765915370512,-353,8264,-446,0,0,0,0,0
779,1765915370596,-325,8339,-451,0,0,0,0,0
780,1765915370828,-384,8306,-464,0,0,0,0,0
781,1765915370929,-331,8296,-435,0,0,0,0,0
782,1765915371128,-332,8270,-416,0,0,0,0,0
783,1765915371293,-337,8327,-465,0,0,0,0,0
784,1765915371461,-363,8312,-436,0,0,0,0,0
785,1765915371645,-336,8218,-418,0,0,0,0,0
786,1765915371745,-331,8303,-413,0,0,0,0,0
787,1765915371994,-352,8275,-455,0,0,0,0,0
788,1765915372062,-314,8292,-418,0,0,0,0,0
789,1765915372311,-390,8341,-449,0,0,0,0,0
790,1765915372377,-369,8260,-435,0,0,0,0,0
791,1765915372628,-336,8314,-433,0,0,0,0,0
792,1765915372743,-353,8296,-419,0,0,0,0,0
793,1765915372928,-350,8279,-452,0,0,0,0,0
794,1765915373094,-292,8346,-461,0,0,0,0,0
795,1765915373226,-416,8275,-458,0,0,0,0,0
796,1765915373426,-339,8312,-430,0,0,0,0,0
797,1765915373542,-321,8307,-456,0,0,0,0,0
798,1765915373776,-358,8290,-452,0,0,0,0,0
799,1765915373843,-360,8279,-461,0,0,0,0,0
800,1765915374092,-334,8299,-439,0,0,0,0,0
801,1765915374208,-356,8300,-463,0,0,0,0,0
802,1765915374391,-356,8290,-444,0,0,0,0,0
803,1765915374543,-336,8296,-433,0,0,0,0,0
804,1765915374709,-352,8314,-469,0,0,0,0,0
805,1765915374892,-342,8290,-403,0,0,0,0,0
806,1765915375009,-361,8287,-422,0,0,0,0,0
807,1765915375224,-351,8306,-440,0,0,0,0,0
808,1765915376158,-355,8266,-429,0,0,0,0,0
809,1765915376357,-354,8300,-440,0,0,0,0,0
810,1765915376441,-336,8292,-480,0,0,0,0,0
811,1765915376657,-335,8316,-458,0,0,0,0,0
812,1765915376741,-364,8254,-436,0,0,0,0,0
813,1765915376973,-331,8303,-445,0,0,0,0,0
814,1765915377090,-340,8274,-432,0,0,0,0,0
815,1765915377377,-362,8294,-440,0,0,0,0,0
816,1765915377390,-347,8318,-434,0,0,0,0,0
817,1765915377557,-344,8280,-456,0,0,0,0,0
818,1765915377722,-351,8292,-451,0,0,0,0,0
819,1765915377822,-342,8310,-408,0,0,0,0,0
820,1765915378006,-333,8281,-404,0,0,0,0,0
821,1765915378105,-339,8317,-466,0,0,0,0,0
822,1765915378340,-356,8309,-499,0,0,0,0,0
823,1765915378406,-339,8283,-412,0,0,0,0,0
824,1765915378638,-356,8313,-395,0,0,0,0,0
825,1765915378688,-340,8303,-410,0,0,0,0,0
826,1765915378920,-364,8288,-452,0,0,0,0,0
827,1765915379035,-347,8286,-456,0,0,0,0,0
828,1765915379203,-336,8310,-428,0,0,0,0,0
829,1765915379319,-354,8285,-438,0,0,0,0,0
830,1765915379569,-389,8288,-438,0,0,0,0,0
831,1765915379669,-341,8292,-451,0,0,0,0,0
832,1765915379903,-305,8283,-434,0,0,0,0,0
833,1765915379969,-359,8315,-449,0,0,0,0,0
834,1765915380170,-361,8282,-446,0,0,0,0,0
835,1765915380285,-342,8317,-449,0,0,0,0,0
836,1765915380502,-336,8277,-437,0,0,0,0,0
837,1765915380586,-353,8288,-418,0,0,0,0,0
838,1765915380819,-350,8301,-450,0,0,0,0,0
839,1765915380901,-341,8278,-444,0,0,0,0,0
840,1765915381101,-336,8311,-420,0,0,0,0,0
841,1765915381185,-346,8303,-440,0,0,0,0,0
842,1765915381417,-339,8265,-454,0,0,0,0,0
843,1765915381483,-341,8312,-441,0,0,0,0,0
844,1765915381717,-340,8295,-458,0,0,0,0,0
845,1765915381800,-347,8314,-443,0,0,0,0,0
846,1765915382035,-352,8284,-430,0,0,0,0,0
847,1765915382101,-336,8304,-431,0,0,0,0,0
848,1765915382351,-349,8289,-448,0,0,0,0,0
849,1765915382400,-337,8293,-442,0,0,0,0,0
850,1765915382650,-351,8295,-426,0,0,0,0,0
851,1765915382733,-344,8309,-442,0,0,0,0,0
852,1765915382966,-340,8292,-434,0,0,0,0,0
853,1765915384809,-352,8298,-443,0,0,0,0,0
854,1765915384810,-352,8288,-440,0,0,0,0,0
855,1765915384810,-338,8282,-443,0,0,0,0,0
856,1765915384810,-355,8314,-448,0,0,0,0,0
857,1765915384810,-336,8284,-458,0,0,0,0,0
858,1765915384811,-364,8268,-469,0,0,0,0,0
859,1765915384811,-354,8306,-464,0,0,0,0,0
860,1765915384811,-330,8294,-460,0,0,0,0,0
861,1765915384811,-350,8280,-420,0,0,0,0,0
862,1765915384811,-350,8314,-443,0,0,0,0,0
863,1765915384811,-339,8293,-459,0,0,0,0,0
864,1765915384914,-335,8310,-462,0,0,0,0,0
865,1765915385080,-346,8311,-438,0,0,0,0,0
866,1765915385197,-348,8265,-430,0,0,0,0,0
867,1765915385381,-350,8298,-446,0,0,0,0,0
868,1765915385514,-342,8307,-437,0,0,0,0,0
869,1765915385679,-345,8296,-444,0,0,0,0,0
870,1765915385830,-356,8309,-462,0,0,0,0,0
871,1765915385996,-342,8281,-443,0,0,0,0,0
872,1765915386163,-349,8290,-428,0,0,0,0,0
873,1765915386279,-351,8311,-426,0,0,0,0,0
874,1765915386430,-344,8316,-418,0,0,0,0,0
875,1765915386595,-343,8265,-455,0,0,0,0,0
876,1765915386762,-361,8303,-464,0,0,0,0,0
877,1765915386879,-352,8289,-433,0,0,0,0,0
878,1765915387195,-334,8314,-433,0,0,0,0,0
879,1765915387362,-340,8288,-420,0,0,0,0,0
880,1765915387495,-352,8273,-447,0,0,0,0,0
881,1765915387695,-338,8305,-468,0,0,0,0,0
882,1765915387812,-336,8289,-409,0,0,0,0,0
883,1765915387961,-357,8299,-452,0,0,0,0,0
884,1765915388112,-348,8294,-456,0,0,0,0,0
885,1765915388345,-342,8286,-460,0,0,0,0,0
886,1765915388411,-347,8303,-418,0,0,0,0,0
887,1765915388610,-350,8293,-430,0,0,0,0,0
888,1765915388728,-348,8306,-441,0,0,0,0,0
889,1765915388944,-355,8296,-458,0,0,0,0,0
890,1765915389010,-339,8288,-446,0,0,0,0,0
891,1765915389227,-353,8274,-444,0,0,0,0,0
892,1765915389327,-342,8304,-443,0,0,0,0,0
893,1765915389560,-336,8300,-440,0,0,0,0,0
894,1765915389628,-346,8299,-425,0,0,0,0,0
895,1765915389943,-353,8284,-447,0,0,0,0,0
896,1765915390178,-348,8306,-452,0,0,0,0,0
897,1765915390226,-345,8309,-455,0,0,0,0,0
898,1765915390475,-345,8285,-440,0,0,0,0,0
899,1765915390791,-351,8276,-443,0,0,0,0,0
900,1765915390891,-348,8304,-438,0,0,0,0,0
901,1765915391076,-351,8306,-443,0,0,0,0,0
902,1765915391209,-342,8305,-445,0,0,0,0,0
903,1765915391409,-330,8316,-429,0,0,0,0,0
904,1765915391525,-340,8297,-445,0,0,0,0,0
905,1765915391691,-348,8292,-439,0,0,0,0,0
906,1765915391858,-348,8303,-463,0,0,0,0,0
907,1765915392008,-340,8282,-448,0,0,0,0,0
908,1765915392158,-349,8332,-434,0,0,0,0,0
909,1765915392308,-341,8282,-441,0,0,0,0,0
910,1765915392491,-351,8287,-439,0,0,0,0,0
911,1765915392607,-345,8321,-454,0,0,0,0,0
912,1765915392808,-348,8287,-449,0,0,0,0,0
913,1765915392923,-348,8311,-438,0,0,0,0,0
914,1765915393157,-343,8279,-438,0,0,0,0,0
915,1765915393207,-344,8308,-428,0,0,0,0,0
916,1765915393457,-338,8290,-447,0,0,0,0,0
917,1765915393541,-343,8313,-447,0,0,0,0,0
918,1765915393774,-342,8284,-445,0,0,0,0,0
919,1765915393839,-343,8282,-434,0,0,0,0,0
920,1765915394090,-347,8310,-452,0,0,0,0,0
921,1765915394173,-344,8274,-451,0,0,0,0,0
922,1765915394389,-353,8306,-444,0,0,0,0,0
923,1765915394489,-340,8294,-434,0,0,0,0,0
924,1765915394672,-350,8290,-449,0,0,0,0,0
925,1765915394773,-354,8294,-451,0,0,0,0,0
926,1765915394989,-351,8295,-445,0,0,0,0,0
927,1765915395122,-354,8300,-439,0,0,0,0,0
928,1765915395289,-338,8292,-440,0,0,0,0,0
929,1765915395605,-342,8298,-454,0,0,0,0,0
930,1765915395754,-356,8281,-444,0,0,0,0,0
931,1765915395905,-341,8317,-439,0,0,0,0,0
932,1765915396088,-350,8279,-443,0,0,0,0,0
933,1765915396204,-344,8301,-450,0,0,0,0,0
934,1765915396371,-348,8294,-442,0,0,0,0,0
935,1765915396504,-351,8288,-445,0,0,0,0,0
936,1765915396704,-338,8310,-433,0,0,0,0,0
937,1765915396821,-345,8298,-441,0,0,0,0,0
938,1765915397004,-344,8304,-454,0,0,0,0,0
939,1765915397121,-346,8288,-447,0,0,0,0,0
940,1765915397353,-349,8291,-448,0,0,0,0,0
941,1765915397420,-348,8309,-428,0,0,0,0,0
942,1765915397637,-347,8303,-433,0,0,0,0,0
943,1765915397737,-346,8300,-429,0,0,0,0,0
944,1765915397953,-344,8301,-441,0,0,0,0,0
945,1765915398036,-343,8288,-454,0,0,0,0,0
946,1765915398270,-344,8301,-445,0,0,0,0,0
947,1765915398335,-348,8296,-444,0,0,0,0,0
948,1765915398569,-345,8288,-452,0,0,0,0,0
949,1765915398652,-362,8308,-459,0,0,0,0,0
950,1765915398869,-339,8279,-435,0,0,0,0,0
951,1765915398886,-354,8304,-443,0,0,0,0,0
952,1765915398953,-336,8280,-454,0,0,0,0,0
953,1765915399269,-352,8314,-447,0,0,0,0,0
954,1765915399285,-350,8300,-442,0,0,0,0,0
955,1765915399486,-351,8290,-430,0,0,0,0,0
956,1765915399802,-350,8298,-433,0,0,0,0,0
957,1765915399902,-351,8290,-432,0,0,0,0,0
958,1765915400086,-346,8305,-454,0,0,0,0,0
959,1765915400235,-359,8300,-452,0,0,0,0,0
960,1765915400402,-331,8312,-442,0,0,0,0,0
961,1765915400502,-345,8283,-446,0,0,0,0,0
962,1765915400701,-341,8294,-441,0,0,0,0,0
963,1765915400836,-350,8299,-456,0,0,0,0,0
964,1765915401018,-346,8288,-419,0,0,0,0,0
965,1765915401134,-348,8292,-448,0,0,0,0,0
966,1765915401301,-352,8296,-472,0,0,0,0,0
967,1765915401449,-340,8298,-464,0,0,0,0,0
968,1765915401600,-345,8298,-419,0,0,0,0,0
969,1765915401767,-339,8292,-448,0,0,0,0,0
970,1765915401917,-348,8294,-458,0,0,0,0,0
971,1765915402083,-370,8310,-460,0,0,0,0,0
972,1765915402216,-344,8266,-437,0,0,0,0,0
973,1765915402383,-352,8296,-440,0,0,0,0,0
974,1765915402533,-355,8298,-456,0,0,0,0,0
975,1765915402749,-348,8290,-445,0,0,0,0,0
976,1765915402816,-338,8298,-432,0,0,0,0,0
977,1765915403133,-344,8286,-463,0,0,0,0,0
978,1765915403349,-332,8284,-466,0,0,0,0,0
979,1765915403433,-320,8321,-438,0,0,0,0,0
980,1765915403681,-372,8266,-420,0,0,0,0,0
981,1765915403748,-354,8284,-442,0,0,0,0,0
982,1765915403998,-335,8306,-450,0,0,0,0,0
983,1765915404049,-352,8276,-429,0,0,0,0,0
984,1765915404282,-340,8306,-422,0,0,0,0,0
985,1765915404381,-345,8302,-456,0,0,0,0,0
986,1765915404598,-323,8314,-469,0,0,0,0,0
987,1765915404665,-346,8358,-432,0,0,0,0,0
988,1765915404882,-368,8196,-448,0,0,0,0,0
989,1765915404998,-336,8317,-444,0,0,0,0,0
990,1765915405214,-330,8316,-429,0,0,0,0,0
991,1765915405297,-352,8278,-446,0,0,0,0,0
992,1765915405497,-359,8284,-460,0,0,0,0,0
993,1765915405613,-334,8327,-458,0,0,0,0,0
994,1765915405796,-347,8292,-424,0,0,0,0,0
995,1765915405864,-347,8306,-458,0,0,0,0,0
996,1765915406013,-354,8273,-466,0,0,0,0,0
997,1765915406164,-362,8277,-457,0,0,0,0,0
998,1765915406313,-319,8337,-444,0,0,0,0,0
999,1765915406445,-350,8286,-416,0,0,0,0,0
1000,1765915406513,-360,8297,-448,0,0,0,0,0
1001,1765915406696,-350,8290,-444,0,0,0,0,0
1002,1765915406796,-338,8290,-436,0,0,0,0,0
1003,1765915406995,-326,8302,-433,0,0,0,0,0
1004,1765915407096,-358,8299,-449,0,0,0,0,0
1005,1765915407362,-338,8314,-444,0,0,0,0,0
1006,1765915407445,-345,8291,-432,0,0,0,0,0
1007,1765915407662,-348,8282,-443,0,0,0,0,0
1008,1765915407745,-344,8303,-443,0,0,0,0,0
1009,1765915408028,-346,8270,-455,0,0,0,0,0
1010,1765915408095,-358,8302,-452,0,0,0,0,0
1011,1765915408312,-332,8318,-413,0,0,0,0,0
1012,1765915408379,-344,8282,-446,0,0,0,0,0
1013,1765915408663,-343,8330,-422,0,0,0,0,0
1014,1765915408727,-333,8303,-468,0,0,0,0,0
1015,1765915408961,-353,8230,-520,0,0,0,0,0
1016,1765915409012,-362,8322,-468,0,0,0,0,0
1017,1765915409310,-329,8289,-433,0,0,0,0,0
1018,1765915409377,-360,8281,-452,0,0,0,0,0
1019,1765915409611,-367,8306,-475,0,0,0,0,0
1020,1765915409661,-334,8288,-484,0,0,0,0,0
1021,1765915409961,-341,8310,-456,0,0,0,0,0
1022,1765915410197,-328,8297,-449,0,0,0,0,0
1023,1765915410243,-356,8268,-464,0,0,0,0,0
1024,1765915410327,-360,8310,-460,0,0,0,0,0
1025,1765915410611,-344,8296,-420,0,0,0,0,0
1026,1765915410694,-346,8292,-451,0,0,0,0,0
1027,1765915410893,-350,8315,-485,0,0,0,0,0
1028,1765915410993,-348,8287,-456,0,0,0,0,0
1029,1765915411175,-333,8289,-433,0,0,0,0,0
1030,1765915411242,-354,8306,-430,0,0,0,0,0
1031,1765915411377,-346,8290,-460,0,0,0,0,0
1032,1765915411657,-332,8312,-453,0,0,0,0,0
1033,1765915411824,-359,8296,-405,0,0,0,0,0
1034,1765915411974,-346,8290,-449,0,0,0,0,0
1035,1765915412157,-353,8290,-470,0,0,0,0,0
1036,1765915412257,-344,8287,-474,0,0,0,0,0
1037,1765915412441,-349,8300,-422,0,0,0,0,0
1038,1765915412541,-352,8302,-414,0,0,0,0,0
1039,1765915412607,-348,8290,-449,0,0,0,0,0
1040,1765915412806,-366,8306,-441,0,0,0,0,0
1041,1765915412892,-333,8296,-435,0,0,0,0,0
1042,1765915413091,-339,8291,-446,0,0,0,0,0
1043,1765915413175,-348,8296,-434,0,0,0,0,0
1044,1765915413425,-340,8288,-440,0,0,0,0,0
1045,1765915413508,-346,8293,-447,0,0,0,0,0
1046,1765915413708,-339,8295,-440,0,0,0,0,0
1047,1765915413774,-350,8292,-444,0,0,0,0,0
1048,1765915414075,-357,8289,-428,0,0,0,0,0
1049,1765915414141,-358,8284,-476,0,0,0,0,0
1050,1765915414489,-344,8300,-464,0,0,0,0,0
1051,1765915414690,-353,8281,-417,0,0,0,0,0
1052,1765915414807,-342,8308,-442,0,0,0,0,0
1053,1765915414975,-341,8290,-460,0,0,0,0,0
1054,1765915415123,-1118,8286,-454,0,0,0,0,0
1055,1765915415306,-375,8256,-449,0,0,0,0,0
1056,1765915415456,-335,8336,-390,0,0,0,0,0
1057,1765915415589,-309,8304,-373,0,0,0,0,0
1058,1765915415806,-364,8272,-422,0,0,0,0,0
1059,1765915415888,-360,8309,-472,0,0,0,0,0
1060,1765915416155,-326,8347,-441,0,0,0,0,0
1061,1765915416439,-392,8264,-411,0,0,0,0,0
1062,1765915416572,-302,8331,-380,0,0,0,0,0
1063,1765915416771,-317,8339,-425,0,0,0,0,0
1064,1765915416939,-350,8257,-367,0,0,0,0,0
1065,1765915417073,-392,8324,-509,0,0,0,0,0
1066,1765915417271,-330,8288,-422,0,0,0,0,0
1067,1765915417371,-306,8230,-417,0,0,0,0,0
1068,1765915417621,-341,8266,-428,0,0,0,0,0
1069,1765915417721,-398,8346,-434,0,0,0,0,0
1070,1765915417920,-307,8268,-421,0,0,0,0,0
1071,1765915418054,-331,8325,-462,0,0,0,0,0
1072,1765915418254,-367,8261,-460,0,0,0,0,0
1073,1765915418453,-337,8317,-428,0,0,0,0,0
1074,1765915418554,-358,8281,-356,0,0,0,0,0
1075,1765915418820,-304,8310,-452,0,0,0,0,0
1076,1765915418903,-302,8262,-542,0,0,0,0,0
1077,1765915419120,-431,8268,-559,0,0,0,0,0
1078,1765915419287,-427,8427,1656,0,0,0,0,0
1079,1765915419404,-308,8487,726,0,0,0,0,0
1080,1765915419688,-179,8047,465,0,0,0,0,0
1081,1765915419753,-447,8343,261,0,0,0,0,0
1082,1765915419970,-415,8605,423,0,0,0,0,0
1083,1765915420137,-236,7997,377,0,0,0,0,0
1084,1765915420235,-296,8514,12,0,0,0,0,0
1085,1765915420303,-190,8055,67,0,0,0,0,0
1086,1765915420552,-437,8188,-374,0,0,0,0,0
1087,1765915420619,-384,8490,-488,0,0,0,0,0
1088,1765915420836,-721,8230,-1090,0,0,0,0,0
1089,1765915421198,-598,8086,-1033,0,0,0,0,0
1090,1765915421204,-401,8624,-1092,0,0,0,0,0
1091,1765915421402,-344,8182,-366,0,0,0,0,0
1092,1765915421503,-315,8204,-278,0,0,0,0,0
1093,1765915421737,-366,8344,-732,0,0,0,0,0
1094,1765915421834,-418,8194,-512,0,0,0,0,0
1095,1765915422201,-78,8210,-267,0,0,0,0,0
1096,1765915422351,-520,8218,-775,0,0,0,0,0
1097,1765915422533,-233,8396,-538,0,0,0,0,0
1098,1765915422650,-238,8231,-694,0,0,0,0,0
1099,1765915422884,-386,8282,-619,0,0,0,0,0
1100,1765915422952,-393,8276,-628,0,0,0,0,0
1101,1765915423199,-404,8258,-413,0,0,0,0,0
1102,1765915423315,-196,8404,-368,0,0,0,0,0
1103,1765915423499,-339,8220,-554,0,0,0,0,0
1104,1765915423683,-311,8243,-677,0,0,0,0,0
1105,1765915423816,-337,8652,1588,0,0,0,0,0
1106,1765915424066,-424,8417,758,0,0,0,0,0
1107,1765915424117,-362,8121,353,0,0,0,0,0
1108,1765915424366,-243,8070,185,0,0,0,0,0
1109,1765915424516,-433,8084,-992,0,0,0,0,0
1110,1765915424682,-269,8196,-394,0,0,0,0,0
1111,1765915424866,-492,8402,-774,0,0,0,0,0
1112,1765915424982,-230,8438,-435,0,0,0,0,0
1113,1765915425231,-228,8282,-418,0,0,0,0,0
1114,1765915425315,-505,8404,-698,0,0,0,0,0
1115,1765915425547,-319,8232,-828,0,0,0,0,0
1116,1765915425648,-179,8192,-348,0,0,0,0,0
1117,1765915425865,-428,8294,-669,0,0,0,0,0
1118,1765915425998,-330,8178,-661,0,0,0,0,0
1119,1765915426164,-336,8453,-1160,0,0,0,0,0
1120,1765915426348,-366,8121,-1118,0,0,0,0,0
1121,1765915426464,-354,8292,-620,0,0,0,0,0
1122,1765915426698,-317,8285,-465,0,0,0,0,0
1123,1765915426780,-328,8385,-398,0,0,0,0,0
1124,1765915427013,-370,8218,-255,0,0,0,0,0
1125,1765915427115,-348,8342,-378,0,0,0,0,0
1126,1765915427347,-349,8272,-440,0,0,0,0,0
1127,1765915427480,-347,8300,-391,0,0,0,0,0
1128,1765915427646,-359,8300,-390,0,0,0,0,0
1129,1765915427830,-318,8288,-402,0,0,0,0,0
1130,1765915427963,-374,8294,-416,0,0,0,0,0
1131,1765915428195,-332,8268,-389,0,0,0,0,0
1132,1765915428279,-326,8312,-424,0,0,0,0,0
1133,1765915428496,-378,8287,-423,0,0,0,0,0
1134,1765915428629,-354,8295,-455,0,0,0,0,0
1135,1765915428812,-350,8309,-480,0,0,0,0,0
1136,1765915428995,-367,8268,-448,0,0,0,0,0
1137,1765915429113,-375,8240,-411,0,0,0,0,0
1138,1765915429362,-369,8256,-480,0,0,0,0,0
1139,1765915429445,-296,8276,-438,0,0,0,0,0
1140,1765915429677,-362,8385,-354,0,0,0,0,0
1141,1765915429778,-392,8312,-420,0,0,0,0,0
1142,1765915429960,-330,8247,-438,0,0,0,0,0
1143,1765915430146,-347,8308,-429,0,0,0,0,0
1144,1765915430294,-345,8311,-406,0,0,0,0,0
1145,1765915430477,-353,8282,-418,0,0,0,0,0
1146,1765915430595,-349,8303,-432,0,0,0,0,0
1147,1765915430827,-352,8297,-406,0,0,0,0,0
1148,1765915430911,-343,8292,-424,0,0,0,0,0
1149,1765915431145,-352,8290,-406,0,0,0,0,0
1150,1765915431243,-363,8302,-417,0,0,0,0,0
1151,1765915431478,-334,8283,-412,0,0,0,0,0
1152,1765915431609,-348,8300,-416,0,0,0,0,0
1153,1765915431776,-361,8296,-392,0,0,0,0,0
1154,1765915432121,-340,8301,-420,0,0,0,0,0
1155,1765915432127,-342,8290,-434,0,0,0,0,0
1156,1765915432310,-351,8286,-427,0,0,0,0,0
1157,1765915432392,-348,8290,-439,0,0,0,0,0
1158,1765915432626,-343,8302,-415,0,0,0,0,0
1159,1765915432742,-361,8284,-395,0,0,0,0,0
1160,1765915432945,-357,8308,-400,0,0,0,0,0
1161,1765915433093,-346,8278,-404,0,0,0,0,0
1162,1765915433241,-344,8303,-416,0,0,0,0,0
1163,1765915433424,-351,8302,-424,0,0,0,0,0
1164,1765915433576,-343,8301,-421,0,0,0,0,0
1165,1765915433792,-360,8300,-412,0,0,0,0,0
1166,1765915433874,-348,8274,-414,0,0,0,0,0
1167,1765915434092,-354,8308,-403,0,0,0,0,0
1168,1765915434207,-348,8300,-409,0,0,0,0,0
1169,1765915434423,-340,8300,-422,0,0,0,0,0
1170,1765915434557,-354,8300,-404,0,0,0,0,0
1171,1765915434723,-350,8290,-413,0,0,0,0,0
1172,1765915434906,-345,8289,-420,0,0,0,0,0
1173,1765915435057,-360,8288,-409,0,0,0,0,0
1174,1765915435257,-343,8286,-423,0,0,0,0,0
1175,1765915435340,-344,8309,-412,0,0,0,0,0
1176,1765915435906,-343,8288,-415,0,0,0,0,0
1177,1765915436039,-358,8300,-417,0,0,0,0,0
1178,1765915436206,-352,8301,-402,0,0,0,0,0
1179,1765915436372,-352,8284,-417,0,0,0,0,0
1180,1765915436522,-341,8306,-422,0,0,0,0,0
1181,1765915436722,-353,8283,-412,0,0,0,0,0
1182,1765915436805,-351,8293,-417,0,0,0,0,0
1183,1765915437087,-356,8279,-420,0,0,0,0,0
1184,1765915437155,-348,8272,-421,0,0,0,0,0
1185,1765915437372,-346,8321,-413,0,0,0,0,0
1186,1765915437505,-361,8288,-413,0,0,0,0,0
1187,1765915437671,-353,8283,-419,0,0,0,0,0
1188,1765915437871,-345,8288,-415,0,0,0,0,0
1189,1765915437987,-344,8290,-407,0,0,0,0,0
1190,1765915438204,-352,8310,-418,0,0,0,0,0
1191,1765915438303,-352,8275,-411,0,0,0,0,0
1192,1765915438554,-365,8288,-427,0,0,0,0,0
1193,1765915438653,-342,8274,-446,0,0,0,0,0
1194,1765915438854,-341,8317,-405,0,0,0,0,0
1195,1765915439004,-354,8298,-378,0,0,0,0,0
1196,1765915439353,-349,8291,-406,0,0,0,0,0
1197,1765915439470,-348,8293,-414,0,0,0,0,0
1198,1765915439702,-350,8297,-424,0,0,0,0,0
1199,1765915439769,-350,8298,-412,0,0,0,0,0
1200,1765915440004,-356,8292,-416,0,0,0,0,0
1201,1765915440086,-348,8278,-410,0,0,0,0,0
1202,1765915440319,-360,8303,-416,0,0,0,0,0
1203,1765915440403,-355,8281,-415,0,0,0,0,0
1204,1765915440552,-350,8292,-408,0,0,0,0,0
1205,1765915440685,-360,8314,-400,0,0,0,0,0
1206,1765915440869,-352,8268,-407,0,0,0,0,0
1207,1765915440985,-348,8288,-409,0,0,0,0,0
1208,1765915441186,-342,8298,-422,0,0,0,0,0
1209,1765915441285,-350,8288,-413,0,0,0,0,0
1210,1765915441385,-346,8295,-413,0,0,0,0,0
1211,1765915441567,-354,8295,-423,0,0,0,0,0
1212,1765915441685,-344,8292,-426,0,0,0,0,0
1213,1765915441868,-347,8287,-417,0,0,0,0,0
1214,1765915441934,-347,8296,-390,0,0,0,0,0
1215,1765915442118,-347,8302,-439,0,0,0,0,0
1216,1765915442233,-342,8283,-444,0,0,0,0,0
1217,1765915442418,-346,8284,-456,0,0,0,0,0
1218,1765915442518,-342,8317,-390,0,0,0,0,0
1219,1765915442601,-364,8274,-438,0,0,0,0,0
1220,1765915442834,-351,8280,-437,0,0,0,0,0
1221,1765915443095,-353,8314,-407,0,0,0,0,0
1222,1765915443117,-353,8292,-386,0,0,0,0,0
1223,1765915443233,-351,8284,-404,0,0,0,0,0
1224,1765915443334,-346,8297,-404,0,0,0,0,0
1225,1765915443483,-350,8296,-408,0,0,0,0,0
1226,1765915443633,-346,8284,-404,0,0,0,0,0
1227,1765915443767,-351,8294,-429,0,0,0,0,0
1228,1765915443918,-347,8298,-423,0,0,0,0,0
1229,1765915444016,-345,8283,-415,0,0,0,0,0
1230,1765915444132,-354,8286,-417,0,0,0,0,0
1231,1765915444315,-353,8311,-416,0,0,0,0,0
1232,1765915444432,-354,8281,-413,0,0,0,0,0
1233,1765915444716,-355,8318,-422,0,0,0,0,0
1234,1765915444783,-361,8194,-468,0,0,0,0,0
1235,1765915445000,-326,8292,-427,0,0,0,0,0
1236,1765915445065,-346,8342,-319,0,0,0,0,0
1237,1765915445364,-332,8297,-397,0,0,0,0,0
1238,1765915445480,-346,8326,-412,0,0,0,0,0
1239,1765915445664,-389,8218,-451,0,0,0,0,0
1240,1765915445782,-380,8380,-394,0,0,0,0,0
1241,1765915445947,-333,8273,-452,0,0,0,0,0
1242,1765915446015,-326,8286,-410,0,0,0,0,0
1243,1765915446164,-345,8294,-413,0,0,0,0,0
1244,1765915446298,-344,8318,-404,0,0,0,0,0
1245,1765915446464,-346,8260,-405,0,0,0,0,0
1246,1765915446597,-372,8293,-440,0,0,0,0,0
1247,1765915446663,-338,8260,-400,0,0,0,0,0
1248,1765915446846,-408,8370,-469,0,0,0,0,0
1249,1765915446946,-296,8324,-420,0,0,0,0,0
1250,1765915447130,-364,8228,-545,0,0,0,0,0
1251,1765915447248,-346,8252,-474,0,0,0,0,0
1252,1765915447596,-370,8314,-404,0,0,0,0,0
1253,1765915447796,-292,8280,-408,0,0,0,0,0
1254,1765915447896,-348,8297,-444,0,0,0,0,0
1255,1765915448179,-349,8319,-410,0,0,0,0,0
1256,1765915448279,-345,8296,-428,0,0,0,0,0
1257,1765915448479,-352,8260,-427,0,0,0,0,0
1258,1765915448544,-352,8306,-431,0,0,0,0,0
1259,1765915448745,-345,8294,-418,0,0,0,0,0
1260,1765915448846,-351,8279,-393,0,0,0,0,0
1261,1765915449078,-345,8326,-337,0,0,0,0,0
1262,1765915449195,-332,8308,-397,0,0,0,0,0
1263,1765915449411,-316,8334,-619,0,0,0,0,0
1264,1765915449628,-323,8208,414,0,0,0,0,0
1265,1765915449711,-408,8417,1072,0,0,0,0,0
1266,1765915449961,-336,8472,569,0,0,0,0,0
1267,1765915450079,-490,7933,-39,0,0,0,0,0
1268,1765915450112,-284,8100,716,0,0,0,0,0
1269,1765915450277,-394,8532,845,0,0,0,0,0
1270,1765915450461,-479,8433,592,0,0,0,0,0
1271,1765915450577,-218,8350,689,0,0,0,0,0
1272,1765915450844,-191,8848,620,0,0,0,0,0
1273,1765915450978,-199,8096,798,0,0,0,0,0
1274,1765915451144,-654,7954,834,0,0,0,0,0
1275,1765915451342,-532,8798,776,0,0,0,0,0
1276,1765915451442,-303,8064,1254,0,0,0,0,0
1277,1765915451708,-2412,8086,908,0,0,0,0,0
1278,1765915451860,-1979,8182,563,0,0,0,0,0
1279,1765915452009,-2192,8478,644,0,0,0,0,0
1280,1765915452292,-2107,8412,454,0,0,0,0,0
1281,1765915452391,-1262,8274,921,0,0,0,0,0
1282,1765915452593,-2600,7961,740,0,0,0,0,0
1283,1765915452775,-1935,8173,1352,0,0,0,0,0
1284,1765915452876,-1468,7381,237,0,0,0,0,0
1285,1765915452942,-2007,8190,775,0,0,0,0,0
1286,1765915453159,-1849,9427,659,0,0,0,0,0
1287,1765915453292,-2981,7228,420,0,0,0,0,0
1288,1765915453442,-2010,8676,286,0,0,0,0,0
1289,1765915453724,-730,8646,443,0,0,0,0,0
1290,1765915453825,-2001,7807,-296,0,0,0,0,0
1291,1765915454073,-889,8834,1101,0,0,0,0,0
1292,1765915454207,-1288,8156,637,0,0,0,0,0
1293,1765915454324,-1414,8586,265,0,0,0,0,0
1294,1765915454591,-1234,7818,824,0,0,0,0,0
1295,1765915454673,-2164,7768,154,0,0,0,0,0
1296,1765915454891,-1770,7120,190,0,0,0,0,0
1297,1765915455157,-1260,7285,746,0,0,0,0,0
1298,1765915455223,31896,9342,997,0,0,0,0,0
1299,1765915455456,-1375,8697,952,0,0,0,0,0
1300,1765915455574,-814,6828,600,0,0,0,0,0
1301,1765915455790,-862,8983,573,0,0,0,0,0
1302,1765915456023,-1537,8993,833,0,0,0,0,0
1303,1765915456104,199,8054,170,0,0,0,0,0
1304,1765915456322,-286,10002,332,0,0,0,0,0
1305,1765915456455,-1243,7091,395,0,0,0,0,0
1306,1765915456570,424,9022,895,0,0,0,0,0
1307,1765915456654,-81,8850,733,0,0,0,0,0
1308,1765915456905,-556,8309,579,0,0,0,0,0
1309,1765915456972,-443,7903,248,0,0,0,0,0
1310,1765915457221,-100,9762,816,0,0,0,0,0
1311,1765915457454,-550,8872,508,0,0,0,0,0
1312,1765915457520,-1081,6769,1123,0,0,0,0,0
1313,1765915457770,841,8114,1222,0,0,0,0,0
1314,1765915457870,-410,7290,-6,0,0,0,0,0
1315,1765915457970,-619,6824,-258,0,0,0,0,0
1316,1765915458103,1006,8820,740,0,0,0,0,0
1317,1765915458319,958,9170,1873,0,0,0,0,0
1318,1765915458403,-978,8388,587,0,0,0,0,0
1319,1765915458854,1248,8808,-440,0,0,0,0,0
1320,1765915458970,-54,7557,-276,0,0,0,0,0
1321,1765915459203,134,7731,-382,0,0,0,0,0
1322,1765915459304,472,9496,-808,0,0,0,0,0
1323,1765915459369,1371,9546,290,0,0,0,0,0
1324,1765915459535,988,9182,599,0,0,0,0,0
1325,1765915459752,637,9838,615,0,0,0,0,0
1326,1765915459835,115,8389,-212,0,0,0,0,0
1327,1765915460119,-176,7270,-310,0,0,0,0,0
1328,1765915460269,-617,7992,-1169,0,0,0,0,0
1329,1765915460418,-437,8561,-1236,0,0,0,0,0
1330,1765915460602,-11,8521,-414,0,0,0,0,0
1331,1765915460701,-1566,9272,-818,0,0,0,0,0
1332,1765915460968,-944,9109,-668,0,0,0,0,0
1333,1765915461051,-864,7000,-764,0,0,0,0,0
1334,1765915461268,-1408,8166,-167,0,0,0,0,0
1335,1765915461385,-390,8906,-705,0,0,0,0,0
1336,1765915461584,-305,8612,-850,0,0,0,0,0
1337,1765915461717,-1353,9516,-1121,0,0,0,0,0
1338,1765915461867,-848,9281,-1462,0,0,0,0,0
1339,1765915462067,-1054,8657,-1600,0,0,0,0,0
1340,1765915462200,-952,7957,-1516,0,0,0,0,0
1341,1765915462417,-1341,8874,-1332,0,0,0,0,0
1342,1765915462500,-59,8176,-1588,0,0,0,0,0
1343,1765915462733,-1441,7604,-1607,0,0,0,0,0
1344,1765915462817,123,8414,-1488,0,0,0,0,0
1345,1765915463049,-576,8140,-2038,0,0,0,0,0
1346,1765915463166,-873,11223,-2069,0,0,0,0,0
1347,1765915463350,235,6382,-1613,0,0,0,0,0
1348,1765915463499,-30,9656,-1792,0,0,0,0,0
1349,1765915463682,-935,7547,-1972,0,0,0,0,0
1350,1765915463848,255,8536,-1203,0,0,0,0,0
1351,1765915463965,-428,7652,-1254,0,0,0,0,0
1352,1765915464198,-753,8276,-2135,0,0,0,0,0
1353,1765915464282,-452,7463,-1828,0,0,0,0,0
1354,1765915464531,827,8076,-2103,0,0,0,0,0
1355,1765915464614,-370,9278,-1683,0,0,0,0,0
1356,1765915465003,-738,7934,-1546,0,0,0,0,0
1357,1765915465014,-719,8560,-2108,0,0,0,0,0
1358,1765915465014,-688,7987,-2127,0,0,0,0,0
1359,1765915465147,-760,9656,-1968,0,0,0,0,0
1360,1765915465297,-280,7907,-2249,0,0,0,0,0
1361,1765915465431,-397,7582,-2144,0,0,0,0,0
1362,1765915465647,-163,7209,-1596,0,0,0,0,0
1363,1765915465763,-304,8958,-1941,0,0,0,0,0
1364,1765915465997,-866,8462,-1986,0,0,0,0,0
1365,1765915466064,-274,7242,-1906,0,0,0,0,0
1366,1765915466297,-750,8699,-1611,0,0,0,0,0
1367,1765915466330,-836,7526,-1076,0,0,0,0,0
1368,1765915466430,-731,8548,-1046,0,0,0,0,0
1369,1765915466613,-589,8585,-1190,0,0,0,0,0
1370,1765915466781,-215,8011,-936,0,0,0,0,0
1371,1765915466913,-458,8577,-1390,0,0,0,0,0
1372,1765915467129,-356,8276,-1143,0,0,0,0,0
1373,1765915467228,-500,8178,-1045,0,0,0,0,0
1374,1765915467462,-592,8185,-1064,0,0,0,0,0
1375,1765915467528,-397,8376,-981,0,0,0,0,0
1376,1765915467779,-600,8453,-1336,0,0,0,0,0
1377,1765915467878,-666,8119,-1346,0,0,0,0,0
1378,1765915468078,-247,8151,-1116,0,0,0,0,0
1379,1765915468228,-761,8333,-1185,0,0,0,0,0
1380,1765915468378,-383,8490,-1227,0,0,0,0,0
1381,1765915468594,-587,8628,-1400,0,0,0,0,0
1382,1765915468694,-629,8078,-1374,0,0,0,0,0
1383,1765915468928,-445,8229,-1297,0,0,0,0,0
1384,1765915468995,-628,8395,-1360,0,0,0,0,0
1385,1765915469260,-466,8117,-1270,0,0,0,0,0
1386,1765915469360,-464,8348,-1268,0,0,0,0,0
1387,1765915469561,-507,8302,-1179,0,0,0,0,0
1388,1765915469711,-452,8098,-1158,0,0,0,0,0
1389,1765915469877,-487,8228,-692,0,0,0,0,0
1390,1765915470043,-376,8213,-588,0,0,0,0,0
1391,1765915470177,-553,8367,-696,0,0,0,0,0
1392,1765915470376,-517,8246,-601,0,0,0,0,0
1393,1765915470459,-477,8301,-669,0,0,0,0,0
1394,1765915470726,-457,8280,-603,0,0,0,0,0
1395,1765915470843,-474,8296,-640,0,0,0,0,0
1396,1765915471026,-500,8235,-636,0,0,0,0,0
1397,1765915471176,-452,8272,-627,0,0,0,0,0
1398,1765915471344,-442,8217,-68,0,0,0,0,0
1399,1765915471576,-510,8344,-295,0,0,0,0,0
1400,1765915471641,-501,8289,-541,0,0,0,0,0
1401,1765915471892,-439,8207,-456,0,0,0,0,0
1402,1765915471975,-460,8256,-428,0,0,0,0,0
1403,1765915472208,-471,8303,-378,0,0,0,0,0
1404,1765915472325,-460,8308,-328,0,0,0,0,0
1405,1765915472508,-470,8260,-356,0,0,0,0,0
1406,1765915472691,-470,8292,-397,0,0,0,0,0
1407,1765915472841,-480,8254,-437,0,0,0,0,0
1408,1765915473041,-440,8305,-397,0,0,0,0,0
1409,1765915473123,-540,8278,-437,0,0,0,0,0
1410,1765915473390,-497,8276,-382,0,0,0,0,0
1411,1765915473474,-418,8236,-362,0,0,0,0,0
1412,1765915473690,-474,8318,-453,0,0,0,0,0
1413,1765915473823,-499,8365,-408,0,0,0,0,0
1414,1765915473974,-463,8206,-429,0,0,0,0,0
1415,1765915474157,-467,8289,-393,0,0,0,0,0
1416,1765915474307,-478,8312,-366,0,0,0,0,0
1417,1765915474489,-458,8286,-408,0,0,0,0,0
1418,1765915474590,-468,8271,-394,0,0,0,0,0
1419,1765915474773,-451,8318,-378,0,0,0,0,0
1420,1765915474905,-468,8232,-393,0,0,0,0,0
1421,1765915475089,-486,8284,-422,0,0,0,0,0
1422,1765915475207,-460,8376,-397,0,0,0,0,0
1423,1765915475505,-765,8338,-530,0,0,0,0,0
1424,1765915475638,-459,8293,-548,0,0,0,0,0
1425,1765915475954,-441,8116,-414,0,0,0,0,0
1426,1765915475954,-448,8451,-400,0,0,0,0,0
1427,1765915476088,-467,8300,-412,0,0,0,0,0
1428,1765915476105,-441,8184,-394,0,0,0,0,0
1429,1765915476188,-468,8357,-403,0,0,0,0,0
1430,1765915476404,-474,8278,-390,0,0,0,0,0
1431,1765915476521,-462,8270,-396,0,0,0,0,0
1432,1765915476688,-465,8308,-391,0,0,0,0,0
1433,1765915477004,-466,8292,-415,0,0,0,0,0
1434,1765915477088,-481,8294,-369,0,0,0,0,0
1435,1765915477288,-489,8254,-257,0,0,0,0,0
1436,1765915477405,-438,8345,-377,0,0,0,0,0
1437,1765915477604,-444,8297,-442,0,0,0,0,0
1438,1765915477705,-592,8318,-611,0,0,0,0,0
1439,1765915477906,-425,8322,524,0,0,0,0,0
1440,1765915478023,-334,8404,1050,0,0,0,0,0
1441,1765915478203,-583,8338,402,0,0,0,0,0
1442,1765915478268,-454,8410,292,0,0,0,0,0
1443,1765915478501,-434,8212,444,0,0,0,0,0
1444,1765915478585,-452,8296,496,0,0,0,0,0
1445,1765915478803,-504,8318,364,0,0,0,0,0
1446,1765915479102,-774,8257,332,0,0,0,0,0
1447,1765915479169,-936,8184,566,0,0,0,0,0
1448,1765915479403,-794,8420,414,0,0,0,0,0
1449,1765915479486,-1094,8065,509,0,0,0,0,0
1450,1765915479685,-944,8078,497,0,0,0,0,0
1451,1765915479785,-824,8248,418,0,0,0,0,0
1452,1765915480004,-1299,8333,634,0,0,0,0,0
1453,1765915480085,-1280,7753,573,0,0,0,0,0
1454,1765915480284,-504,8369,477,0,0,0,0,0
1455,1765915480401,-852,7940,581,0,0,0,0,0
1456,1765915480618,-1125,8217,542,0,0,0,0,0
1457,1765915480685,-1218,8394,596,0,0,0,0,0
1458,1765915480918,-743,8076,520,0,0,0,0,0
1459,1765915481001,-508,8038,680,0,0,0,0,0
1460,1765915481168,-906,8259,261,0,0,0,0,0
1461,1765915481284,-514,8435,761,0,0,0,0,0
1462,1765915481452,-693,8577,560,0,0,0,0,0
1463,1765915481583,-1028,7812,531,0,0,0,0,0
1464,1765915481700,-752,8462,888,0,0,0,0,0
1465,1765915481884,-1642,7942,441,0,0,0,0,0
1466,1765915482016,-1793,7784,933,0,0,0,0,0
1467,1765915482182,-1525,8387,504,0,0,0,0,0
1468,1765915482316,-30,8629,79,0,0,0,0,0
1469,1765915482483,-902,9617,1014,0,0,0,0,0
1470,1765915482549,-532,7135,684,0,0,0,0,0
1471,1765915482782,-1137,8335,136,0,0,0,0,0
1472,1765915482882,-1796,6916,264,0,0,0,0,0
1473,1765915483082,-778,8087,998,0,0,0,0,0
1474,1765915483150,-2320,8150,64,0,0,0,0,0
1475,1765915483383,-682,8530,656,0,0,0,0,0
1476,1765915483450,-2108,6963,990,0,0,0,0,0
1477,1765915483665,-718,9645,494,0,0,0,0,0
1478,1765915483698,-1592,7831,402,0,0,0,0,0
1479,1765915483831,-2214,7997,747,0,0,0,0,0
1480,1765915483999,-2452,8587,14,0,0,0,0,0
1481,1765915484198,-2246,8672,853,0,0,0,0,0
1482,1765915484315,-2620,6812,404,0,0,0,0,0
1483,1765915484581,-3390,7976,476,0,0,0,0,0
1484,1765915484748,-3772,8250,799,0,0,0,0,0
1485,1765915484881,-3143,9077,1264,0,0,0,0,0
1486,1765915485098,-2883,7724,462,0,0,0,0,0
1487,1765915485146,-4144,8367,101,0,0,0,0,0
1488,1765915485280,-3511,7736,490,0,0,0,0,0
1489,1765915485447,-3944,7724,128,0,0,0,0,0
1490,1765915485747,-4397,8196,291,0,0,0,0,0
1491,1765915485896,-4062,9360,1106,0,0,0,0,0
1492,1765915486029,-4940,7548,1414,0,0,0,0,0
1493,1765915486263,-4667,6008,422,0,0,0,0,0
1494,1765915486346,-2990,8959,305,0,0,0,0,0
1495,1765915486596,-5904,6778,-289,0,0,0,0,0
1496,1765915486895,-3918,10540,1686,0,0,0,0,0
1497,1765915486913,-4570,6610,702,0,0,0,0,0
1498,1765915487146,-5057,7432,-229,0,0,0,0,0
1499,1765915487429,-4753,9212,501,0,0,0,0,0
1500,1765915487479,-4988,7034,-352,0,0,0,0,0
1501,1765915487712,-5254,8730,671,0,0,0,0,0
1502,1765915487862,-4100,9068,214,0,0,0,0,0
1503,1765915487995,-5028,7113,296,0,0,0,0,0
1504,1765915488061,-4810,8043,1086,0,0,0,0,0
1505,1765915488294,-4886,8176,873,0,0,0,0,0
1506,1765915488444,-4583,8175,1033,0,0,0,0,0
1507,1765915488594,-4802,8131,1439,0,0,0,0,0
1508,1765915488861,-3537,8797,1558,0,0,0,0,0
1509,1765915488979,-3808,7438,418,0,0,0,0,0
1510,1765915489160,-3660,8733,278,0,0,0,0,0
1511,1765915489342,-3372,7347,760,0,0,0,0,0
1512,1765915489427,-1602,8074,151,0,0,0,0,0
1513,1765915489493,-939,8488,114,0,0,0,0,0
1514,1765915489743,-2432,9667,767,0,0,0,0,0
1515,1765915489877,-1266,8227,1122,0,0,0,0,0
1516,1765915490026,-597,9677,1262,0,0,0,0,0
1517,1765915490310,1740,9073,1253,0,0,0,0,0
1518,1765915490359,1480,8632,703,0,0,0,0,0
1519,1765915490592,1866,9351,987,0,0,0,0,0
1520,1765915490759,2219,8503,1099,0,0,0,0,0
1521,1765915490859,2293,9266,-1331,0,0,0,0,0
1522,1765915490943,1930,6983,-1023,0,0,0,0,0
1523,1765915491175,3070,8636,-1064,0,0,0,0,0
1524,1765915491275,4054,7620,-1730,0,0,0,0,0
1525,1765915491458,2483,9332,-2149,0,0,0,0,0
1526,1765915491725,5868,5992,-2769,0,0,0,0,0
1527,1765915491809,6349,7412,-2212,0,0,0,0,0
1528,1765915492025,6682,7011,-2969,0,0,0,0,0
1529,1765915492141,6624,9700,-3715,0,0,0,0,0
1530,1765915492357,3196,6592,139,0,0,0,0,0
1531,1765915492491,5623,10112,-1063,0,0,0,0,0
1532,1765915492658,5864,6948,-1667,0,0,0,0,0
1533,1765915492825,6991,9527,-2260,0,0,0,0,0
1534,1765915492974,8466,10530,-829,0,0,0,0,0
1535,1765915493207,8388,7476,-1765,0,0,0,0,0
1536,1765915493291,6904,8120,-4367,0,0,0,0,0
1537,1765915493507,8480,8826,-2216,0,0,0,0,0
1538,1765915493623,8564,9594,-2415,0,0,0,0,0
1539,1765915493840,7024,10405,-612,0,0,0,0,0
1540,1765915493972,2056,8751,-489,0,0,0,0,0
1541,1765915494123,839,7045,-1090,0,0,0,0,0
1542,1765915494306,3846,8232,-526,0,0,0,0,0
1543,1765915494340,5132,8632,-1974,0,0,0,0,0
1544,1765915494456,4718,7668,-1611,0,0,0,0,0
1545,1765915494691,5172,8276,-1184,0,0,0,0,0
1546,1765915494756,5526,8009,-1314,0,0,0,0,0
1547,1765915494989,5327,8768,-1919,0,0,0,0,0
1548,1765915495105,3902,9119,-1156,0,0,0,0,0
1549,1765915495305,3339,7808,-1084,0,0,0,0,0
1550,1765915495472,3751,8171,-1265,0,0,0,0,0
1551,1765915495605,3885,9586,-1370,0,0,0,0,0
1552,1765915495872,3702,8672,111,0,0,0,0,0
1553,1765915495988,3294,8724,-480,0,0,0,0,0
1554,1765915496171,3215,7796,-226,0,0,0,0,0
1555,1765915496354,3699,9129,-430,0,0,0,0,0
1556,1765915496504,-2654,8527,371,0,0,0,0,0
1557,1765915496753,-4265,6405,293,0,0,0,0,0
1558,1765915496854,-3684,8879,894,0,0,0,0,0
1559,1765915497053,-4001,8696,935,0,0,0,0,0
1560,1765915497321,-6342,8296,60,0,0,0,0,0
1561,1765915497387,-5999,6944,-30,0,0,0,0,0
1562,1765915497621,-6232,9470,345,0,0,0,0,0
1563,1765915497887,-5496,6398,1039,0,0,0,0,0
1564,1765915497936,-5224,8752,-50,0,0,0,0,0
1565,1765915498185,-5331,8889,-1003,0,0,0,0,0
1566,1765915498270,-4848,9938,-173,0,0,0,0,0
1567,1765915498485,-4280,9432,-882,0,0,0,0,0
1568,1765915498654,-6714,8461,-1229,0,0,0,0,0
1569,1765915498801,-6426,8828,-944,0,0,0,0,0
1570,1765915499003,-5016,7132,-1097,0,0,0,0,0
1571,1765915499103,-5792,7065,-681,0,0,0,0,0
1572,1765915499371,-4312,8688,1222,0,0,0,0,0
1573,1765915499454,-6026,7150,-252,0,0,0,0,0
1574,1765915499669,-6589,7396,375,0,0,0,0,0
1575,1765915499836,-6165,8228,-56,0,0,0,0,0
1576,1765915499967,-6173,7254,426,0,0,0,0,0
1577,1765915500233,-4806,9256,1656,0,0,0,0,0
1578,1765915500367,-6254,6688,1036,0,0,0,0,0
1579,1765915500534,-2798,7874,1581,0,0,0,0,0
1580,1765915500800,-5575,8070,-12,0,0,0,0,0
1581,1765915500885,-4506,6980,863,0,0,0,0,0
1582,1765915501116,-4092,8616,662,0,0,0,0,0
1583,1765915501267,-4910,8150,713,0,0,0,0,0
1584,1765915501400,-5531,7384,163,0,0,0,0,0
1585,1765915501449,-3617,8376,1268,0,0,0,0,0
1586,1765915501683,-1505,8553,1186,0,0,0,0,0
1587,1765915501800,-1920,8582,604,0,0,0,0,0
1588,1765915501983,-3045,8335,240,0,0,0,0,0
1589,1765915502249,-2460,9240,-37,0,0,0,0,0
1590,1765915502349,-3232,6246,280,0,0,0,0,0
1591,1765915502550,-3282,8386,-247,0,0,0,0,0
1592,1765915502732,-2955,9076,-712,0,0,0,0,0
1593,1765915502881,-170,6954,-1066,0,0,0,0,0
1594,1765915503131,-636,6996,-1791,0,0,0,0,0
1595,1765915503216,170,7157,-938,0,0,0,0,0
1596,1765915503432,-114,7410,-1091,0,0,0,0,0
1597,1765915503615,3440,8473,-1718,0,0,0,0,0
1598,1765915503748,3317,8102,-189,0,0,0,0,0
1599,1765915503965,4157,7756,-225,0,0,0,0,0
1600,1765915504048,5265,9835,-1260,0,0,0,0,0
1601,1765915504298,-1137,7764,-2354,0,0,0,0,0
1602,1765915504398,-4272,10282,-2767,0,0,0,0,0
1603,1765915504598,-4349,7002,-467,0,0,0,0,0
1604,1765915504764,-5669,9013,-1561,0,0,0,0,0
1605,1765915504897,-5966,6536,-194,0,0,0,0,0
1606,1765915505164,-3198,7216,513,0,0,0,0,0
1607,1765915505230,-3275,1007,571,0,0,0,0,0
1608,1765915505464,-3491,7645,1029,0,0,0,0,0
1609,1765915505779,-1158,7354,531,0,0,0,0,0
1610,1765915505996,-2082,7206,84,0,0,0,0,0
1611,1765915506079,-1858,8567,172,0,0,0,0,0
1612,1765915506313,-2057,7818,1022,0,0,0,0,0
1613,1765915506463,-954,9230,417,0,0,0,0,0
1614,1765915506645,-2003,7876,134,0,0,0,0,0
1615,1765915506829,-2780,7823,-305,0,0,0,0,0
1616,1765915506951,108,8520,962,0,0,0,0,0
1617,1765915507213,-5814,6648,-382,0,0,0,0,0
1618,1765915507262,-4036,7542,366,0,0,0,0,0
1619,1765915507512,-4836,8814,690,0,0,0,0,0
1620,1765915507645,-4110,8030,250,0,0,0,0,0
1621,1765915507845,-5120,8983,-1293,0,0,0,0,0
1622,1765915508029,-5779,6315,-2353,0,0,0,0,0
1623,1765915508128,-5815,9482,-1542,0,0,0,0,0
1624,1765915508378,-7010,6582,-2385,0,0,0,0,0
1625,1765915508477,-6591,7446,-2053,0,0,0,0,0
1626,1765915508693,-8104,8302,-1357,0,0,0,0,0
1627,1765915508993,-7228,8364,-1868,0,0,0,0,0
1628,1765915508993,-6340,8588,-2276,0,0,0,0,0
1629,1765915509243,-6393,8781,-3840,0,0,0,0,0
1630,1765915509328,-7098,7008,-3517,0,0,0,0,0
1631,1765915509559,-6082,8603,-2174,0,0,0,0,0
1632,1765915509644,-8423,8700,-3416,0,0,0,0,0
1633,1765915509842,-7249,6858,-3412,0,0,0,0,0
1634,1765915509876,-4537,5652,1438,0,0,0,0,0
1635,1765915509976,-6888,7176,-724,0,0,0,0,0
1636,1765915510175,-5075,6078,-550,0,0,0,0,0
1637,1765915510309,-3196,9988,148,0,0,0,0,0
1638,1765915510459,-1593,7854,692,0,0,0,0,0
1639,1765915510644,-1538,8529,-54,0,0,0,0,0
1640,1765915510791,-1242,7441,-110,0,0,0,0,0
1641,1765915510975,-1849,10389,-30,0,0,0,0,0
1642,1765915511075,-2198,7894,-285,0,0,0,0,0
1643,1765915511392,-32,9268,-364,0,0,0,0,0
1644,1765915511608,-760,7285,-477,0,0,0,0,0
1645,1765915511691,-893,7930,26,0,0,0,0,0
1646,1765915511925,-1844,8828,-180,0,0,0,0,0
1647,1765915512224,-1088,8566,-199,0,0,0,0,0
1648,1765915512307,-1638,8829,-519,0,0,0,0,0
1649,1765915512541,-596,6299,307,0,0,0,0,0
1650,1765915512642,-1780,8417,-139,0,0,0,0,0
1651,1765915512857,-913,8608,210,0,0,0,0,0
1652,1765915512923,-330,7607,428,0,0,0,0,0
1653,1765915513141,-2460,8930,-138,0,0,0,0,0
1654,1765915513257,-1202,9220,-195,0,0,0,0,0
1655,1765915513424,-1354,7163,-1038,0,0,0,0,0
1656,1765915513523,-1186,8285,-232,0,0,0,0,0
1657,1765915513740,-1088,8884,64,0,0,0,0,0
1658,1765915513823,-728,7457,-150,0,0,0,0,0
1659,1765915514356,-1503,7599,-266,0,0,0,0,0
1660,1765915514422,-24,9296,31,0,0,0,0,0
1661,1765915514655,-446,8294,366,0,0,0,0,0
1662,1765915514739,-784,7416,-410,0,0,0,0,0
1663,1765915514938,-1297,8719,-108,0,0,0,0,0
1664,1765915515022,551,8508,111,0,0,0,0,0
1665,1765915515255,-1206,9400,-376,0,0,0,0,0
1666,1765915515337,566,8099,-256,0,0,0,0,0
1667,1765915515537,-1458,8271,-696,0,0,0,0,0
1668,1765915515638,-523,8044,-51,0,0,0,0,0
1669,1765915515855,-642,6257,-364,0,0,0,0,0
1670,1765915515921,-287,10239,16,0,0,0,0,0
1671,1765915516238,-683,7216,173,0,0,0,0,0
1672,1765915516421,410,8156,18,0,0,0,0,0
1673,1765915516521,937,8044,-1278,0,0,0,0,0
1674,1765915516737,-476,5484,-26,0,0,0,0,0
1675,1765915516838,924,9584,-172,0,0,0,0,0
1676,1765915516921,-1094,6192,-1176,0,0,0,0,0
1677,1765915517238,445,8608,-1275,0,0,0,0,0
1678,1765915517419,724,8972,-76,0,0,0,0,0
1679,1765915517503,1263,9221,174,0,0,0,0,0
1680,1765915517720,996,8750,-298,0,0,0,0,0
1681,1765915517803,-909,8905,-98,0,0,0,0,0
1682,1765915518036,202,7246,-432,0,0,0,0,0
1683,1765915518086,-551,8069,-550,0,0,0,0,0
1684,1765915518352,-899,8311,-240,0,0,0,0,0
1685,1765915518535,-738,8626,118,0,0,0,0,0
1686,1765915518652,-1323,7257,-272,0,0,0,0,0
1687,1765915518936,-1222,8566,127,0,0,0,0,0
1688,1765915519086,-1383,8266,-913,0,0,0,0,0
1689,1765915519235,-1494,7685,-62,0,0,0,0,0
1690,1765915519435,-1106,7141,102,0,0,0,0,0
1691,1765915519519,-1362,8579,702,0,0,0,0,0
1692,1765915519669,677,10170,-246,0,0,0,0,0
1693,1765915519818,-488,8874,-1087,0,0,0,0,0
1694,1765915520134,-111,9362,541,0,0,0,0,0
1695,1765915520134,-365,8593,75,0,0,0,0,0
1696,1765915520384,1206,8436,358,0,0,0,0,0
1697,1765915520600,-156,8050,55,0,0,0,0,0
1698,1765915520686,-346,8321,732,0,0,0,0,0
1699,1765915520918,-974,7525,538,0,0,0,0,0
1700,1765915521201,-3850,6288,-930,0,0,0,0,0
1701,1765915521284,-5516,8144,-1133,0,0,0,0,0
1702,1765915521499,-5098,7674,-241,0,0,0,0,0
1703,1765915521667,-6236,8792,-838,0,0,0,0,0
1704,1765915521750,-4137,6893,-244,0,0,0,0,0
1705,1765915521832,-4303,8299,444,0,0,0,0,0
1706,1765915522067,-3136,8028,93,0,0,0,0,0
1707,1765915522183,-3894,8882,679,0,0,0,0,0
1708,1765915522365,-4503,8458,-206,0,0,0,0,0
1709,1765915522632,-6203,4461,772,0,0,0,0,0
1710,1765915522732,-9714,8504,-864,0,0,0,0,0
1711,1765915522932,-3496,10309,674,0,0,0,0,0
1712,1765915523081,-6074,4845,-869,0,0,0,0,0
1713,1765915523266,-2962,8922,116,0,0,0,0,0
1714,1765915523499,-2821,7050,-552,0,0,0,0,0
1715,1765915523581,-3475,9399,-946,0,0,0,0,0
1716,1765915523798,-2300,6827,561,0,0,0,0,0
1717,1765915524030,-6215,8589,-1206,0,0,0,0,0
1718,1765915524132,-6447,7334,-825,0,0,0,0,0
1719,1765915524381,-5898,7104,-476,0,0,0,0,0
1720,1765915524447,-5113,7959,860,0,0,0,0,0
1721,1765915524699,-5564,8654,-1076,0,0,0,0,0
1722,1765915524897,-5284,6047,-432,0,0,0,0,0
1723,1765915524997,-4646,9320,-129,0,0,0,0,0
1724,1765915525230,-6094,8400,-916,0,0,0,0,0
1725,1765915525414,-6179,8762,1191,0,0,0,0,0
1726,1765915525563,-9194,9540,-426,0,0,0,0,0
1727,1765915525780,-7190,8356,-174,0,0,0,0,0
1728,1765915525863,-5380,8412,166,0,0,0,0,0
1729,1765915526130,-7819,9871,-413,0,0,0,0,0
1730,1765915526279,-8358,8437,-967,0,0,0,0,0
1731,1765915526445,-8478,7076,-1377,0,0,0,0,0
1732,1765915526646,-7498,8212,-768,0,0,0,0,0
1733,1765915526762,-5605,9342,-660,0,0,0,0,0
1734,1765915526995,-3319,7152,-908,0,0,0,0,0
1735,1765915527112,-2627,7795,-528,0,0,0,0,0
1736,1765915527312,-1588,6344,26,0,0,0,0,0
1737,1765915527545,-2600,7252,-1153,0,0,0,0,0
1738,1765915527628,-1732,7082,-295,0,0,0,0,0
1739,1765915527845,-2153,7734,-822,0,0,0,0,0
1740,1765915527927,-2951,8436,-178,0,0,0,0,0
1741,1765915528162,-4026,7200,94,0,0,0,0,0
1742,1765915528361,-2536,8636,518,0,0,0,0,0
1743,1765915528478,-3747,7800,-366,0,0,0,0,0
1744,1765915528711,-2911,8762,-798,0,0,0,0,0
1745,1765915528777,-2989,7970,504,0,0,0,0,0
1746,1765915529026,-1693,8414,444,0,0,0,0,0
1747,1765915529160,-1772,8098,181,0,0,0,0,0
1748,1765915529327,-2505,6478,-187,0,0,0,0,0
1749,1765915529593,-349,8637,-386,0,0,0,0,0
1750,1765915529676,-839,7510,138,0,0,0,0,0
1751,1765915529893,1016,8200,-779,0,0,0,0,0
1752,1765915530009,331,8824,-544,0,0,0,0,0
1753,1765915530193,237,8632,-145,0,0,0,0,0
1754,1765915530459,1833,9050,-554,0,0,0,0,0
1755,1765915530526,2816,8609,-690,0,0,0,0,0
1756,1765915530758,2645,7931,-1542,0,0,0,0,0
1757,1765915531060,3430,7460,-2662,0,0,0,0,0
1758,1765915531242,3312,8432,-1039,0,0,0,0,0
1759,1765915531375,3147,8224,-1987,0,0,0,0,0
1760,1765915531591,4048,9302,-1485,0,0,0,0,0
1761,1765915531707,3479,8131,-927,0,0,0,0,0
1762,1765915531941,3192,7890,-696,0,0,0,0,0
1763,1765915532008,3579,8592,-1388,0,0,0,0,0
1764,1765915532241,4039,8143,-1208,0,0,0,0,0
1765,1765915532357,4283,8450,-1760,0,0,0,0,0
1766,1765915532391,5181,8975,978,0,0,0,0,0
1767,1765915532575,6310,9866,-746,0,0,0,0,0
1768,1765915532776,4772,6935,-248,0,0,0,0,0
1769,1765915532874,5448,9541,-204,0,0,0,0,0
1770,1765915533423,6500,8136,-1206,0,0,0,0,0
1771,1765915533573,7160,8386,-2134,0,0,0,0,0
1772,1765915533723,7199,8404,-2136,0,0,0,0,0
1773,1765915533923,6382,8516,-1345,0,0,0,0,0
1774,1765915534056,6616,7984,-1840,0,0,0,0,0
1775,1765915534272,6207,9992,-1906,0,0,0,0,0
1776,1765915534339,5348,7866,-1698,0,0,0,0,0
1777,1765915534605,5511,9633,-1968,0,0,0,0,0
1778,1765915534689,5718,8630,-2200,0,0,0,0,0
1779,1765915534906,5981,7714,-1411,0,0,0,0,0
1780,1765915535054,4955,7906,-1428,0,0,0,0,0
1781,1765915535222,4952,9027,-1670,0,0,0,0,0
1782,1765915535422,7949,4241,31331,0,0,0,0,0
1783,1765915535521,5127,7798,-937,0,0,0,0,0
1784,1765915535755,4346,8864,-913,0,0,0,0,0
1785,1765915535855,4758,9687,-1754,0,0,0,0,0
1786,1765915535905,-2124,6029,-363,0,0,0,0,0
1787,1765915536088,-2500,7734,-183,0,0,0,0,0
1788,1765915536288,-2531,8264,193,0,0,0,0,0
1789,1765915536388,-3974,6834,250,0,0,0,0,0
1790,1765915536654,-5551,7908,136,0,0,0,0,0
1791,1765915536820,-7034,7476,152,0,0,0,0,0
1792,1765915536953,-7074,8345,-467,0,0,0,0,0
1793,1765915537203,-7383,7070,266,0,0,0,0,0
1794,1765915537253,-7462,7318,-795,0,0,0,0,0
1795,1765915537519,-4848,7550,31,0,0,0,0,0
1796,1765915537636,-4208,8081,-559,0,0,0,0,0
1797,1765915537820,-4741,9184,-1378,0,0,0,0,0
1798,1765915538136,-7963,11813,-11846,0,0,0,0,0
1799,1765915538369,-6699,8409,583,0,0,0,0,0
1800,1765915538436,-3461,8291,1754,0,0,0,0,0
1801,1765915538669,-448,7299,2534,0,0,0,0,0
1802,1765915539202,-3550,8606,309,0,0,0,0,0
1803,1765915539285,-6613,8003,-551,0,0,0,0,0
1804,1765915539551,-5418,8875,-160,0,0,0,0,0
1805,1765915539718,-4060,9187,533,0,0,0,0,0
1806,1765915539868,-3758,8827,1466,0,0,0,0,0
1807,1765915540051,-5951,8139,1260,0,0,0,0,0
1808,1765915540184,-5221,7189,646,0,0,0,0,0
1809,1765915540417,-4750,8944,-2,0,0,0,0,0
1810,1765915540500,-4467,8224,1048,0,0,0,0,0
1811,1765915540716,-3626,7787,830,0,0,0,0,0
1812,1765915540933,-2228,7820,1336,0,0,0,0,0
1813,1765915541033,-4133,8596,682,0,0,0,0,0
1814,1765915541266,-3617,9377,74,0,0,0,0,0
1815,1765915541333,-3789,8239,155,0,0,0,0,0
1816,1765915541617,-1852,8199,1286,0,0,0,0,0
1817,1765915541749,-1362,7610,962,0,0,0,0,0
1818,1765915541899,-380,8385,1178,0,0,0,0,0
1819,1765915542116,1232,9030,1087,0,0,0,0,0
1820,1765915542199,190,9455,931,0,0,0,0,0
1821,1765915542548,1630,8338,1900,0,0,0,0,0
1822,1765915542765,249,9158,1223,0,0,0,0,0
1823,1765915542916,-426,10008,801,0,0,0,0,0
1824,1765915542966,-1266,6998,368,0,0,0,0,0
1825,1765915543098,-1981,8032,1128,0,0,0,0,0
1826,1765915543398,-2532,7968,565,0,0,0,0,0
1827,1765915543632,-2278,9173,648,0,0,0,0,0
1828,1765915543665,-2180,9085,-16588,0,0,0,0,0
1829,1765915543965,-3650,9081,487,0,0,0,0,0
1830,1765915544164,-1718,8546,352,0,0,0,0,0
1831,1765915544249,-3972,7312,176,0,0,0,0,0
1832,1765915544500,-1896,10316,158,0,0,0,0,0
1833,1765915544580,-897,7416,302,0,0,0,0,0
1834,1765915544815,-191,9472,-289,0,0,0,0,0
1835,1765915544913,-682,7493,-930,0,0,0,0,0
1836,1765915545214,-1780,9153,-23,0,0,0,0,0
1837,1765915545430,-3484,8906,-253,0,0,0,0,0
1838,1765915545563,-3631,9848,-90,0,0,0,0,0
1839,1765915545746,-2342,9721,-1333,0,0,0,0,0
1840,1765915545847,-3662,8191,-288,0,0,0,0,0
1841,1765915546029,-2858,8388,-336,0,0,0,0,0
1842,1765915546179,-2406,6635,520,0,0,0,0,0
1843,1765915546330,-1590,7790,-505,0,0,0,0,0
1844,1765915546463,-4999,6732,-1884,0,0,0,0,0
1845,1765915546645,-5771,6194,-1573,0,0,0,0,0
1846,1765915546778,-4986,8706,-2077,0,0,0,0,0
1847,1765915546945,-9510,4629,-2511,0,0,0,0,0
1848,1765915547077,-5352,8207,-723,0,0,0,0,0
1849,1765915547245,-7251,6008,-2148,0,0,0,0,0
1850,1765915547361,-8766,9446,-576,0,0,0,0,0
1851,1765915547544,-9725,6692,-142,0,0,0,0,0
1852,1765915547678,-6475,6750,-1552,0,0,0,0,0
1853,1765915547861,-5864,8651,-436,0,0,0,0,0
1854,1765915547978,-7530,8598,-2874,0,0,0,0,0
1855,1765915549343,-3326,-29710,-1726,0,0,0,0,0
1856,1765915549410,-384,7296,539,0,0,0,0,0
1857,1765915549643,2673,9868,-8,0,0,0,0,0
1858,1765915549710,878,8009,-1626,0,0,0,0,0
1859,1765915549926,-3694,4187,-766,0,0,0,0,0
1860,1765915550009,-512,8148,-890,0,0,0,0,0
1861,1765915550226,37,8526,-908,0,0,0,0,0
1862,1765915550543,-407,7956,-93,0,0,0,0,0
1863,1765915550758,-633,8564,530,0,0,0,0,0
1864,1765915550909,-431,11031,-92,0,0,0,0,0
1865,1765915551075,255,8259,296,0,0,0,0,0
1866,1765915551208,-677,6342,347,0,0,0,0,0
1867,1765915551308,131,8679,923,0,0,0,0,0
1868,1765915551508,-781,8296,510,0,0,0,0,0
1869,1765915551641,-651,8250,204,0,0,0,0,0
1870,1765915551808,-728,9062,504,0,0,0,0,0
1871,1765915552108,-489,7901,433,0,0,0,0,0
1872,1765915552174,-1136,8146,862,0,0,0,0,0
1873,1765915552407,-1642,7980,589,0,0,0,0,0
1874,1765915552508,-360,8205,548,0,0,0,0,0
1875,1765915552724,-1658,8250,197,0,0,0,0,0
1876,1765915552775,-2088,6385,56,0,0,0,0,0
1877,1765915553024,-1369,8958,981,0,0,0,0,0
1878,1765915553140,153,9049,860,0,0,0,0,0
1879,1765915553307,148,8823,1195,0,0,0,0,0
1880,1765915553590,-1070,8249,-551,0,0,0,0,0
1881,1765915553656,-944,8058,-18,0,0,0,0,0
1882,1765915554171,-178,7899,-543,0,0,0,0,0
1883,1765915554222,962,8430,378,0,0,0,0,0
1884,1765915554455,561,8923,-32,0,0,0,0,0
1885,1765915554823,1251,9453,1389,0,0,0,0,0
1886,1765915554838,1009,8537,-2462,0,0,0,0,0
1887,1765915554838,392,10795,-1239,0,0,0,0,0
1888,1765915555038,-433,5296,-826,0,0,0,0,0
1889,1765915555187,310,8846,-748,0,0,0,0,0
1890,1765915555338,182,7435,-833,0,0,0,0,0
1891,1765915555605,-715,9734,-1063,0,0,0,0,0
1892,1765915555705,-544,7450,-316,0,0,0,0,0
1893,1765915555904,-730,8775,-130,0,0,0,0,0
1894,1765915556088,-558,8278,-1325,0,0,0,0,0
1895,1765915556239,-1559,7858,-2127,0,0,0,0,0
1896,1765915556487,-1971,7940,-2071,0,0,0,0,0
1897,1765915556621,-1540,8164,-2518,0,0,0,0,0
1898,1765915556787,-1745,8626,-2402,0,0,0,0,0
1899,1765915557052,676,8224,-1663,0,0,0,0,0
1900,1765915557102,-504,8392,-2249,0,0,0,0,0
1901,1765915557353,-686,8681,-2531,0,0,0,0,0
1902,1765915557486,-263,7317,-2409,0,0,0,0,0
1903,1765915557686,-1259,7068,-2350,0,0,0,0,0
1904,1765915557918,-625,8010,-2549,0,0,0,0,0
1905,1765915558019,-548,9856,-1515,0,0,0,0,0
1906,1765915558219,661,6475,-1496,0,0,0,0,0
1907,1765915558469,376,7498,-888,0,0,0,0,0
1908,1765915558554,1,8310,-776,0,0,0,0,0
1909,1765915558785,-590,9059,-885,0,0,0,0,0
1910,1765915558884,412,7823,-288,0,0,0,0,0
1911,1765915559119,-272,9069,-764,0,0,0,0,0
1912,1765915559351,158,7003,-688,0,0,0,0,0
1913,1765915559417,-751,8116,-802,0,0,0,0,0
1914,1765915559651,-483,8482,-610,0,0,0,0,0
1915,1765915559851,-488,8159,-734,0,0,0,0,0
1916,1765915559985,-658,8744,-990,0,0,0,0,0
1917,1765915560218,152,8859,-727,0,0,0,0,0
1918,1765915560301,-308,7659,-621,0,0,0,0,0
1919,1765915560567,-184,8221,-1318,0,0,0,0,0
1920,1765915560750,-571,7618,-1276,0,0,0,0,0
1921,1765915560850,101,8372,-1346,0,0,0,0,0
1922,1765915561099,-266,9074,-1538,0,0,0,0,0
1923,1765915561266,-1874,8632,-1745,0,0,0,0,0
1924,1765915561415,-1446,8113,-2033,0,0,0,0,0
1925,1765915561649,-1366,7752,-1944,0,0,0,0,0
1926,1765915561716,-1723,8616,-2002,0,0,0,0,0
1927,1765915561998,-910,8301,-1922,0,0,0,0,0
1928,1765915562149,-649,7801,-2099,0,0,0,0,0
1929,1765915562281,-1092,8940,-2153,0,0,0,0,0
1930,1765915562515,-1005,8197,-1961,0,0,0,0,0
1931,1765915562564,-790,8061,-1902,0,0,0,0,0
1932,1765915562665,-424,8332,-2356,0,0,0,0,0
1933,1765915562865,-586,7978,-2338,0,0,0,0,0
1934,1765915563032,-916,7854,-2246,0,0,0,0,0
1935,1765915563165,-572,8443,-2328,0,0,0,0,0
1936,1765915563431,-471,8212,-2324,0,0,0,0,0
1937,1765915563547,-514,8180,-2281,0,0,0,0,0
1938,1765915563731,-535,8080,-2266,0,0,0,0,0
1939,1765915563931,-473,8274,-2075,0,0,0,0,0
1940,1765915563997,-401,8110,-386,0,0,0,0,0
1941,1765915564063,-462,8360,-407,0,0,0,0,0
1942,1765915564297,-457,8250,-425,0,0,0,0,0
1943,1765915564414,-432,8260,-189,0,0,0,0,0
1944,1765915564597,-434,8336,-325,0,0,0,0,0
1945,1765915564846,-460,8278,-445,0,0,0,0,0
1946,1765915564930,-446,8306,-442,0,0,0,0,0
1947,1765915565163,-460,8282,-344,0,0,0,0,0
1948,1765915565263,-446,8288,-323,0,0,0,0,0
1949,1765915565480,-498,8309,-398,0,0,0,0,0
1950,1765915565779,-453,8285,-381,0,0,0,0,0
1951,1765915565779,-452,8271,-405,0,0,0,0,0
1952,1765915566031,-466,8312,-394,0,0,0,0,0
1953,1765915566096,-510,8254,-400,0,0,0,0,0
1954,1765915566179,-563,8542,-544,0,0,0,0,0
1955,1765915566363,-368,7840,-537,0,0,0,0,0
1956,1765915566529,-539,8170,-304,0,0,0,0,0
1957,1765915566663,-363,8810,206,0,0,0,0,0
1958,1765915566912,-412,8288,-424,0,0,0,0,0
1959,1765915567029,-434,8338,-440,0,0,0,0,0
1960,1765915567228,-484,8227,-430,0,0,0,0,0
1961,1765915567395,-460,8242,-432,0,0,0,0,0
1962,1765915567513,-440,8377,-375,0,0,0,0,0
1963,1765915567561,-435,8273,-280,0,0,0,0,0
1964,1765915567795,-510,8336,-405,0,0,0,0,0
1965,1765915567910,-384,8209,-369,0,0,0,0,0
1966,1765915568093,-456,8320,-446,0,0,0,0,0
1967,1765915568327,-473,8307,-370,0,0,0,0,0
1968,1765915568427,-491,8285,-408,0,0,0,0,0
1969,1765915568660,-443,8266,-392,0,0,0,0,0
1970,1765915568743,-410,8285,-344,0,0,0,0,0
1971,1765915568992,-523,8308,-366,0,0,0,0,0
1972,1765915569109,-468,8260,-370,0,0,0,0,0
1973,1765915569276,-429,8282,-368,0,0,0,0,0
1974,1765915569476,-434,8342,-392,0,0,0,0,0
1975,1765915569576,-487,8222,-372,0,0,0,0,0
1976,1765915569843,-407,8268,-340,0,0,0,0,0
1977,1765915569960,-404,8241,-383,0,0,0,0,0
1978,1765915570142,-510,8283,-375,0,0,0,0,0
1979,1765915570326,-511,8331,-350,0,0,0,0,0
1980,1765915570358,-455,8288,-362,0,0,0,0,0
1981,1765915570475,-413,8289,-328,0,0,0,0,0
1982,1765915570708,-494,8317,-363,0,0,0,0,0
1983,1765915570792,-498,8231,-393,0,0,0,0,0
1984,1765915570991,-410,8320,-416,0,0,0,0,0
1985,1765915571191,-487,8275,-341,0,0,0,0,0
1986,1765915571324,-482,8255,-386,0,0,0,0,0
1987,1765915571541,-436,8303,-422,0,0,0,0,0
1988,1765915571624,-461,8274,-406,0,0,0,0,0
1989,1765915571891,-472,8298,-342,0,0,0,0,0
1990,1765915571990,-458,8282,-402,0,0,0,0,0
1991,1765915572190,-446,8294,-420,0,0,0,0,0
1992,1765915572340,-482,8265,-373,0,0,0,0,0
1993,1765915572524,-442,8258,-412,0,0,0,0,0
1994,1765915572740,-454,8338,-350,0,0,0,0,0
1995,1765915572807,-469,8307,-316,0,0,0,0,0
1996,1765915573057,-461,8226,-414,0,0,0,0,0
1997,1765915573156,-464,8346,-420,0,0,0,0,0
1998,1765915573389,-476,8312,-372,0,0,0,0,0
1999,1765915573540,-436,8184,-389,0,0,0,0,0
2000,1765915573673,-468,8340,-420,0,0,0,0,0
2001,1765915573921,-454,8334,-168,0,0,0,0,0
2002,1765915573989,-472,8288,-310,0,0,0,0,0
2003,1765915574238,-448,8261,-417,0,0,0,0,0
2004,1765915574305,-454,8309,-464,0,0,0,0,0
2005,1765915574521,-474,8251,-518,0,0,0,0,0
2006,1765915574688,-454,8275,-444,0,0,0,0,0
2007,1765915574855,-453,8326,-319,0,0,0,0,0
2008,1765915575055,-454,8291,-252,0,0,0,0,0
2009,1765915575154,-426,8286,-403,0,0,0,0,0
2010,1765915575421,-467,8280,-424,0,0,0,0,0
2011,1765915575504,-452,8252,-362,0,0,0,0,0
2012,1765915575704,-470,8323,-352,0,0,0,0,0
2013,1765915575854,-462,8260,-379,0,0,0,0,0
2014,1765915576037,-452,8285,-409,0,0,0,0,0
2015,1765915576237,-464,8292,-385,0,0,0,0,0
2016,1765915576338,-460,8297,-382,0,0,0,0,0
2017,1765915576737,-453,8292,-375,0,0,0,0,0
2018,1765915576737,-465,8282,-389,0,0,0,0,0
2019,1765915576903,-463,8292,-377,0,0,0,0,0
2020,1765915577036,-462,8278,-385,0,0,0,0,0
2021,1765915577187,-460,8296,-384,0,0,0,0,0
2022,1765915577419,-460,8272,-400,0,0,0,0,0
2023,1765915577519,-457,8292,-376,0,0,0,0,0
2024,1765915577753,-448,8297,-355,0,0,0,0,0
2025,1765915577835,-464,8283,-398,0,0,0,0,0
2026,1765915578052,-459,8285,-407,0,0,0,0,0
2027,1765915578219,-454,8293,-405,0,0,0,0,0
2028,1765915578370,-455,8298,-364,0,0,0,0,0
2029,1765915578553,-455,8248,-345,0,0,0,0,0
2030,1765915578668,-452,8330,-420,0,0,0,0,0
2031,1765915578917,-468,8282,-398,0,0,0,0,0
2032,1765915579000,-448,8299,-358,0,0,0,0,0
2033,1765915579233,-465,8310,-380,0,0,0,0,0
2034,1765915579334,-451,8250,-387,0,0,0,0,0
2035,1765915579550,-469,8294,-384,0,0,0,0,0
2036,1765915579634,-456,8300,-353,0,0,0,0,0
2037,1765915579851,-465,8285,-388,0,0,0,0,0
2038,1765915579967,-455,8306,-410,0,0,0,0,0
2039,1765915580134,-472,8269,-420,0,0,0,0,0
2040,1765915580251,-436,8304,-308,0,0,0,0,0
2041,1765915580450,-453,8266,-371,0,0,0,0,0
2042,1765915580583,-454,8284,-401,0,0,0,0,0
2043,1765915580750,-475,8310,-434,0,0,0,0,0
2044,1765915581049,-459,8290,-352,0,0,0,0,0
2045,1765915581133,-476,8294,-398,0,0,0,0,0
2046,1765915581332,-448,8283,-407,0,0,0,0,0
2047,1765915581450,-460,8280,-422,0,0,0,0,0
2048,1765915581649,-462,8282,-346,0,0,0,0,0
2049,1765915581699,-459,8271,-388,0,0,0,0,0
2050,1765915581949,-466,8285,-441,0,0,0,0,0
2051,1765915582017,-466,8292,-432,0,0,0,0,0
2052,1765915582249,-446,8272,-379,0,0,0,0,0
2053,1765915582315,-458,8278,-396,0,0,0,0,0
2054,1765915582547,-452,8302,-395,0,0,0,0,0
2055,1765915582631,-441,8298,-400,0,0,0,0,0
2056,1765915582848,-431,8284,-357,0,0,0,0,0
2057,1765915582949,-454,8275,-384,0,0,0,0,0
2058,1765915583147,-452,8302,-392,0,0,0,0,0
2059,1765915583215,-457,8293,-388,0,0,0,0,0
2060,1765915583448,-464,8271,-387,0,0,0,0,0
2061,1765915583514,-447,8262,-371,0,0,0,0,0
2062,1765915583714,-440,8272,-396,0,0,0,0,0
2063,1765915583831,-500,8334,-417,0,0,0,0,0
2064,1765915584030,-437,8241,-405,0,0,0,0,0
2065,1765915584114,-428,8316,-369,0,0,0,0,0
2066,1765915584429,-452,8292,-405,0,0,0,0,0
2067,1765915584596,-466,8261,-397,0,0,0,0,0
2068,1765915584713,-450,8290,-392,0,0,0,0,0
2069,1765915584880,-461,8300,-392,0,0,0,0,0
2070,1765915585029,-450,8269,-353,0,0,0,0,0
2071,1765915585113,-456,8292,-371,0,0,0,0,0
2072,1765915585313,-430,8321,-397,0,0,0,0,0
2073,1765915585429,-469,8276,-432,0,0,0,0,0
2074,1765915585613,-469,8255,-388,0,0,0,0,0
2075,1765915585912,-488,8264,-435,0,0,0,0,0
2076,1765915585979,-436,8287,-405,0,0,0,0,0
2077,1765915586211,-476,8284,-378,0,0,0,0,0
2078,1765915586295,-427,8280,-349,0,0,0,0,0
2079,1765915586445,-437,8284,-404,0,0,0,0,0
2080,1765915586579,-468,8302,-371,0,0,0,0,0
2081,1765915586728,-435,8261,-374,0,0,0,0,0
2082,1765915586861,-447,8264,-405,0,0,0,0,0
2083,1765915587045,-479,8340,-410,0,0,0,0,0
2084,1765915587177,-478,8252,-426,0,0,0,0,0
2085,1765915587261,-510,8320,-406,0,0,0,0,0
2086,1765915587677,-412,8244,-353,0,0,0,0,0
2087,1765915587677,-456,8280,-404,0,0,0,0,0
2088,1765915587777,-482,8271,-375,0,0,0,0,0
2089,1765915587860,-452,8262,-388,0,0,0,0,0
2090,1765915588076,-458,8322,-404,0,0,0,0,0
2091,1765915588211,-462,8240,-386,0,0,0,0,0
2092,1765915588377,-454,8341,-363,0,0,0,0,0
2093,1765915588628,-457,8298,-388,0,0,0,0,0
2094,1765915588694,-502,8170,-430,0,0,0,0,0
2095,1765915588943,-472,8281,-383,0,0,0,0,0
2096,1765915589076,-424,8286,-360,0,0,0,0,0
2097,1765915589259,-456,8318,-373,0,0,0,0,0
2098,1765915589460,-440,8255,-399,0,0,0,0,0
2099,1765915589559,-445,8288,-427,0,0,0,0,0
2100,1765915589808,-457,8304,-388,0,0,0,0,0
2101,1765915589891,-456,8271,-359,0,0,0,0,0
2102,1765915589941,-454,8343,-398,0,0,0,0,0
2103,1765915590124,-431,8246,-404,0,0,0,0,0
2104,1765915590325,-462,8243,-346,0,0,0,0,0
2105,1765915590425,-450,8337,-436,0,0,0,0,0
2106,1765915590708,-457,8301,-393,0,0,0,0,0
2107,1765915590841,-478,8274,-430,0,0,0,0,0
2108,1765915590991,-441,8296,-419,0,0,0,0,0
2109,1765915591224,-447,8284,-348,0,0,0,0,0
2110,1765915591357,-471,8306,-408,0,0,0,0,0
2111,1765915591557,-452,8289,-390,0,0,0,0,0
2112,1765915591708,-430,8295,-367,0,0,0,0,0
2113,1765915591857,-460,8296,-370,0,0,0,0,0
2114,1765915592124,-436,8318,-379,0,0,0,0,0
2115,1765915592206,-436,8300,-373,0,0,0,0,0
2116,1765915592423,-468,8272,-364,0,0,0,0,0
2117,1765915592557,-462,8316,-398,0,0,0,0,0
2118,1765915592773,-446,8306,-363,0,0,0,0,0
2119,1765915593006,-456,8287,-381,0,0,0,0,0
2120,1765915593072,-448,8271,-396,0,0,0,0,0
2121,1765915593305,-451,8292,-411,0,0,0,0,0
2122,1765915593556,-452,8303,-388,0,0,0,0,0
2123,1765915593623,-454,8256,-387,0,0,0,0,0
2124,1765915593873,-449,8310,-398,0,0,0,0,0
2125,1765915593972,-448,8284,-384,0,0,0,0,0
2126,1765915594189,-452,8315,-378,0,0,0,0,0
2127,1765915594421,-446,8265,-380,0,0,0,0,0
2128,1765915594505,-443,8307,-404,0,0,0,0,0
2129,1765915594738,-458,8276,-385,0,0,0,0,0
2130,1765915594838,-454,8269,-401,0,0,0,0,0
2131,1765915594888,-457,8314,-372,0,0,0,0,0
2132,1765915595056,-450,8266,-414,0,0,0,0,0
2133,1765915595254,-455,8304,-384,0,0,0,0,0
2134,1765915595371,-453,8312,-354,0,0,0,0,0
2135,1765915595621,-450,8300,-374,0,0,0,0,0
2136,1765915595753,-447,8278,-404,0,0,0,0,0
2137,1765915595937,-449,8288,-384,0,0,0,0,0
2138,1765915596120,-458,8288,-394,0,0,0,0,0
2139,1765915596221,-457,8283,-398,0,0,0,0,0
2140,1765915596504,-450,8275,-394,0,0,0,0,0
2141,1765915596636,-454,8296,-393,0,0,0,0,0
2142,1765915596803,-452,8286,-391,0,0,0,0,0
2143,1765915597069,-453,8271,-400,0,0,0,0,0
2144,1765915597152,-442,8286,-383,0,0,0,0,0
2145,1765915597369,-459,8313,-385,0,0,0,0,0
2146,1765915597502,-468,8277,-389,0,0,0,0,0
2147,1765915597702,-444,8297,-388,0,0,0,0,0
2148,1765915597936,-458,8282,-386,0,0,0,0,0
2149,1765915598018,-455,8295,-391,0,0,0,0,0
2150,1765915598236,-455,8295,-389,0,0,0,0,0
2151,1765915598586,-448,8272,-404,0,0,0,0,0
2152,1765915598601,-461,8313,-368,0,0,0,0,0
2153,1765915598601,-462,8288,-402,0,0,0,0,0
2154,1765915598801,-432,8260,-400,0,0,0,0,0
2155,1765915598884,-471,8296,-392,0,0,0,0,0
2156,1765915599134,-456,8303,-392,0,0,0,0,0
2157,1765915599301,-447,8262,-386,0,0,0,0,0
2158,1765915599436,-453,8311,-399,0,0,0,0,0
2159,1765915599634,-464,8298,-389,0,0,0,0,0
2160,1765915599734,-437,8284,-394,0,0,0,0,0
2161,1765915599984,-452,8273,-397,0,0,0,0,0
2162,1765915600035,-457,8275,-378,0,0,0,0,0
2163,1765915600285,-442,8316,-387,0,0,0,0,0
2164,1765915600383,-460,8284,-400,0,0,0,0,0
2165,1765915600600,-462,8307,-364,0,0,0,0,0
2166,1765915600716,-446,8320,-398,0,0,0,0,0
2167,1765915600899,-450,8246,-396,0,0,0,0,0
2168,1765915601067,-454,8313,-409,0,0,0,0,0
2169,1765915601216,-441,8272,-389,0,0,0,0,0
2170,1765915601432,-447,8304,-386,0,0,0,0,0
2171,1765915601515,-450,8278,-408,0,0,0,0,0
2172,1765915601749,-450,8280,-396,0,0,0,0,0
2173,1765915601848,-449,8311,-388,0,0,0,0,0
2174,1765915602082,-441,8310,-392,0,0,0,0,0
2175,1765915602182,-445,8288,-393,0,0,0,0,0
2176,1765915602364,-459,8271,-384,0,0,0,0,0
2177,1765915602532,-473,8310,-390,0,0,0,0,0
2178,1765915602681,-439,8275,-387,0,0,0,0,0
2179,1765915602880,-455,8318,-387,0,0,0,0,0
2180,1765915602981,-457,8273,-401,0,0,0,0,0
2181,1765915603215,-450,8282,-385,0,0,0,0,0
2182,1765915603314,-454,8274,-356,0,0,0,0,0
2183,1765915603531,-482,8271,-418,0,0,0,0,0
2184,1765915603630,-446,8285,-405,0,0,0,0,0
2185,1765915603830,-452,8278,-386,0,0,0,0,0
2186,1765915603981,-471,8286,-357,0,0,0,0,0
2187,1765915604164,-438,8354,-415,0,0,0,0,0
2188,1765915604313,-464,8295,-401,0,0,0,0,0
2189,1765915604463,-458,8248,-495,0,0,0,0,0
2190,1765915604646,-427,8320,-418,0,0,0,0,0
2191,1765915604779,-483,8291,-319,0,0,0,0,0
2192,1765915604997,-479,8288,-398,0,0,0,0,0
2193,1765915605062,-439,8274,-456,0,0,0,0,0
2194,1765915605313,-434,8270,-428,0,0,0,0,0
2195,1765915605412,-448,8295,-358,0,0,0,0,0
2196,1765915605629,-464,8300,-403,0,0,0,0,0
2197,1765915605729,-456,8268,-425,0,0,0,0,0
2198,1765915605912,-462,8295,-413,0,0,0,0,0
2199,1765915606078,-451,8299,-361,0,0,0,0,0
2200,1765915606246,-452,8298,-404,0,0,0,0,0
2201,1765915606412,-449,8300,-377,0,0,0,0,0
2202,1765915606545,-458,8277,-362,0,0,0,0,0
2203,1765915606744,-454,8294,-389,0,0,0,0,0
2204,1765915606861,-443,8294,-378,0,0,0,0,0
2205,1765915607094,-448,8292,-382,0,0,0,0,0
2206,1765915607145,-456,8278,-399,0,0,0,0,0
2207,1765915607394,-466,8295,-407,0,0,0,0,0
2208,1765915607494,-452,8283,-401,0,0,0,0,0
2209,1765915607494,-469,8252,-420,0,0,0,0,0
2210,1765915607710,-422,8344,-386,0,0,0,0,0
2211,1765915607828,-450,8229,-330,0,0,0,0,0
2212,1765915608010,-448,8335,-370,0,0,0,0,0
2213,1765915608176,-450,8232,-354,0,0,0,0,0
2214,1765915608326,-448,8287,-397,0,0,0,0,0
2215,1765915608510,-435,8298,-397,0,0,0,0,0
2216,1765915608610,-474,8295,-364,0,0,0,0,0
2217,1765915608843,-450,8222,-359,0,0,0,0,0
2218,1765915608926,-470,8277,-425,0,0,0,0,0
2219,1765915609159,-436,8229,-353,0,0,0,0,0
2220,1765915609226,-440,8375,-363,0,0,0,0,0
2221,1765915609558,-448,8228,-366,0,0,0,0,0
2222,1765915609575,-466,8266,-410,0,0,0,0,0
2223,1765915609792,-442,8302,-382,0,0,0,0,0
2224,1765915609925,-460,8295,-380,0,0,0,0,0
2225,1765915610076,-452,8276,-386,0,0,0,0,0
2226,1765915610242,-442,8297,-411,0,0,0,0,0
2227,1765915610393,-454,8287,-382,0,0,0,0,0
2228,1765915610574,-464,8279,-422,0,0,0,0,0
2229,1765915610691,-452,8301,-424,0,0,0,0,0
2230,1765915610941,-453,8282,-361,0,0,0,0,0
2231,1765915611025,-453,8267,-418,0,0,0,0,0
2232,1765915611259,-462,8298,-417,0,0,0,0,0
2233,1765915611309,-448,8294,-380,0,0,0,0,0
2234,1765915611540,-448,8284,-352,0,0,0,0,0
2235,1765915611657,-449,8288,-376,0,0,0,0,0
2236,1765915611873,-441,8270,-394,0,0,0,0,0
2237,1765915611990,-444,8310,-378,0,0,0,0,0
2238,1765915612157,-454,8272,-379,0,0,0,0,0
2239,1765915612339,-450,8290,-392,0,0,0,0,0
2240,1765915612489,-455,8294,-391,0,0,0,0,0
2241,1765915612689,-442,8282,-371,0,0,0,0,0
2242,1765915612773,-451,8295,-396,0,0,0,0,0
2243,1765915613006,-450,8298,-397,0,0,0,0,0
2244,1765915613090,-455,8303,-384,0,0,0,0,0
2245,1765915613340,-451,8280,-390,0,0,0,0,0
2246,1765915613406,-448,8295,-401,0,0,0,0,0
2247,1765915613638,-457,8288,-390,0,0,0,0,0
2248,1765915613772,-445,8289,-386,0,0,0,0,0
2249,1765915613955,-445,8269,-386,0,0,0,0,0
2250,1765915614055,-447,8273,-380,0,0,0,0,0
2251,1765915614238,-452,8317,-389,0,0,0,0,0
2252,1765915614372,-455,8286,-385,0,0,0,0,0
2253,1765915614522,-456,8290,-390,0,0,0,0,0
2254,1765915614604,-452,8312,-381,0,0,0,0,0
2255,1765915614838,-454,8269,-386,0,0,0,0,0
2256,1765915614905,-455,8285,-372,0,0,0,0,0
2257,1765915615204,-446,8273,-380,0,0,0,0,0
2258,1765915615354,-455,8306,-382,0,0,0,0,0
2259,1765915615487,-448,8288,-389,0,0,0,0,0
2260,1765915615670,-448,8269,-403,0,0,0,0,0
2261,1765915615788,-451,8297,-407,0,0,0,0,0
2262,1765915615887,-462,8280,-369,0,0,0,0,0
2263,1765915616087,-460,8276,-398,0,0,0,0,0
2264,1765915616188,-458,8312,-420,0,0,0,0,0
2265,1765915616370,-447,8284,-360,0,0,0,0,0
2266,1765915616470,-436,8276,-374,0,0,0,0,0
2267,1765915616603,-458,8281,-388,0,0,0,0,0
2268,1765915616736,-460,8282,-396,0,0,0,0,0
2269,1765915616902,-453,8297,-398,0,0,0,0,0
2270,1765915617019,-445,8285,-410,0,0,0,0,0
2271,1765915617269,-446,8311,-375,0,0,0,0,0
2272,1765915617369,-440,8290,-396,0,0,0,0,0
2273,1765915617552,-456,8276,-411,0,0,0,0,0
2274,1765915617669,-458,8295,-385,0,0,0,0,0
2275,1765915617852,-442,8292,-382,0,0,0,0,0
2276,1765915617935,-460,8286,-394,0,0,0,0,0
2277,1765915618018,-448,8299,-410,0,0,0,0,0
2278,1765915618219,-440,8272,-389,0,0,0,0,0
2279,1765915618318,-448,8292,-382,0,0,0,0,0
2280,1765915618518,-455,8282,-382,0,0,0,0,0
2281,1765915618600,-448,8272,-412,0,0,0,0,0
2282,1765915618668,-448,8270,-414,0,0,0,0,0
2283,1765915618884,-467,8309,-386,0,0,0,0,0
2284,1765915618951,-456,8287,-367,0,0,0,0,0
2285,1765915619184,-442,8281,-384,0,0,0,0,0
2286,1765915619250,-452,8304,-394,0,0,0,0,0
2287,1765915619334,-438,8282,-384,0,0,0,0,0
2288,1765915619534,-457,8290,-407,0,0,0,0,0
2289,1765915619618,-469,8289,-390,0,0,0,0,0
2290,1765915619834,-440,8294,-384,0,0,0,0,0
2291,1765915619900,-443,8279,-398,0,0,0,0,0
2292,1765915620018,-454,8304,-399,0,0,0,0,0
2293,1765915620514,-456,8294,-389,0,0,0,0,0
2294,1765915620533,-453,8284,-384,0,0,0,0,0
2295,1765915620534,-453,8286,-380,0,0,0,0,0
2296,1765915620666,-451,8283,-390,0,0,0,0,0
2297,1765915620833,-457,8288,-380,0,0,0,0,0
2298,1765915620949,-458,8303,-393,0,0,0,0,0
2299,1765915621115,-446,8279,-395,0,0,0,0,0
2300,1765915621300,-462,8287,-392,0,0,0,0,0
2301,1765915621466,-450,8286,-388,0,0,0,0,0
2302,1765915621599,-442,8274,-394,0,0,0,0,0
2303,1765915621766,-449,8313,-394,0,0,0,0,0
2304,1765915621883,-455,8271,-396,0,0,0,0,0
2305,1765915621948,-460,8286,-394,0,0,0,0,0
2306,1765915622115,-451,8290,-388,0,0,0,0,0
2307,1765915622250,-454,8283,-385,0,0,0,0,0
2308,1765915622397,-452,8289,-398,0,0,0,0,0
2309,1765915622514,-448,8290,-397,0,0,0,0,0
2310,1765915622680,-448,8288,-390,0,0,0,0,0
2311,1765915622764,-455,8276,-388,0,0,0,0,0
2312,1765915622997,-460,8293,-385,0,0,0,0,0
2313,1765915623081,-443,8286,-385,0,0,0,0,0
2314,1765915623314,-458,8299,-386,0,0,0,0,0
2315,1765915623381,-447,8287,-396,0,0,0,0,0
2316,1765915623614,-452,8287,-390,0,0,0,0,0
2317,1765915623713,-458,8307,-398,0,0,0,0,0
2318,1765915623914,-448,8283,-376,0,0,0,0,0
2319,1765915624031,-468,8282,-397,0,0,0,0,0
2320,1765915624230,-433,8302,-402,0,0,0,0,0
2321,1765915624363,-457,8269,-383,0,0,0,0,0
2322,1765915624529,-456,8288,-362,0,0,0,0,0
2323,1765915624828,-440,8289,-384,0,0,0,0,0
2324,1765915624979,-460,8302,-378,0,0,0,0,0
2325,1765915625128,-447,8284,-386,0,0,0,0,0
2326,1765915625313,-450,8275,-400,0,0,0,0,0
2327,1765915625446,-450,8281,-385,0,0,0,0,0
2328,1765915625595,-450,8270,-388,0,0,0,0,0
2329,1765915625746,-451,8303,-385,0,0,0,0,0
2330,1765915625944,-450,8286,-388,0,0,0,0,0
2331,1765915626078,-446,8311,-392,0,0,0,0,0
2332,1765915626260,-463,8264,-400,0,0,0,0,0
2333,1765915626362,-450,8297,-400,0,0,0,0,0
2334,1765915626594,-452,8300,-391,0,0,0,0,0
2335,1765915626695,-450,8289,-394,0,0,0,0,0
2336,1765915626928,-446,8293,-394,0,0,0,0,0
2337,1765915626995,-460,8309,-394,0,0,0,0,0
2338,1765915627210,-454,8267,-396,0,0,0,0,0
2339,1765915627327,-454,8294,-388,0,0,0,0,0
2340,1765915627527,-452,8273,-408,0,0,0,0,0
2341,1765915627627,-450,8285,-392,0,0,0,0,0
2342,1765915627827,-452,8311,-393,0,0,0,0,0
2343,1765915627960,-453,8274,-383,0,0,0,0,0
2344,1765915628144,-453,8318,-388,0,0,0,0,0
2345,1765915628276,-450,8266,-394,0,0,0,0,0
2346,1765915628427,-448,8285,-381,0,0,0,0,0
2347,1765915628575,-446,8312,-382,0,0,0,0,0
2348,1765915628726,-458,8274,-389,0,0,0,0,0
2349,1765915628876,-454,8288,-384,0,0,0,0,0
2350,1765915629026,-449,8302,-397,0,0,0,0,0
2351,1765915629209,-454,8276,-392,0,0,0,0,0
2352,1765915629325,-451,8280,-390,0,0,0,0,0
2353,1765915629642,-456,8293,-397,0,0,0,0,0
2354,1765915629858,-454,8292,-392,0,0,0,0,0
2355,1765915629942,-450,8273,-391,0,0,0,0,0
2356,1765915630174,-446,8305,-389,0,0,0,0,0
2357,1765915630257,-453,8276,-396,0,0,0,0,0
2358,1765915630491,-441,8280,-397,0,0,0,0,0
2359,1765915630557,-464,8300,-381,0,0,0,0,0
2360,1765915630791,-448,8262,-384,0,0,0,0,0
2361,1765915630874,-449,8301,-392,0,0,0,0,0
2362,1765915631415,-464,8287,-390,0,0,0,0,0
2363,1765915631418,-450,8274,-392,0,0,0,0,0
2364,1765915631440,-443,8315,-401,0,0,0,0,0
2365,1765915631490,-447,8276,-395,0,0,0,0,0
2366,1765915631724,-453,8285,-393,0,0,0,0,0
2367,1765915631789,-447,8302,-406,0,0,0,0,0
2368,1765915632023,-451,8272,-395,0,0,0,0,0
2369,1765915632124,-451,8296,-386,0,0,0,0,0
2370,1765915632339,-455,8267,-393,0,0,0,0,0
2371,1765915632472,-448,8316,-392,0,0,0,0,0
2372,1765915632623,-468,8268,-376,0,0,0,0,0
2373,1765915632806,-448,8286,-383,0,0,0,0,0
2374,1765915632923,-458,8290,-399,0,0,0,0,0
2375,1765915633090,-441,8272,-373,0,0,0,0,0
2376,1765915633239,-462,8295,-384,0,0,0,0,0
2377,1765915633422,-449,8298,-382,0,0,0,0,0
2378,1765915633537,-455,8280,-396,0,0,0,0,0
2379,1765915633738,-453,8302,-391,0,0,0,0,0
2380,1765915633855,-450,8288,-390,0,0,0,0,0
2381,1765915634055,-458,8279,-390,0,0,0,0,0
2382,1765915634154,-455,8300,-388,0,0,0,0,0
2383,1765915634371,-452,8289,-383,0,0,0,0,0
2384,1765915634470,-472,8294,-397,0,0,0,0,0
2385,1765915634688,-446,8276,-379,0,0,0,0,0
2386,1765915634754,-445,8272,-388,0,0,0,0,0
2387,1765915634987,-452,8293,-401,0,0,0,0,0
2388,1765915635104,-459,8276,-407,0,0,0,0,0
2389,1765915635321,-446,8283,-385,0,0,0,0,0
2390,1765915635420,-442,8284,-400,0,0,0,0,0
2391,1765915635620,-458,8274,-396,0,0,0,0,0
2392,1765915635769,-453,8316,-392,0,0,0,0,0
2393,1765915635936,-469,8292,-421,0,0,0,0,0
2394,1765915636102,-480,8281,-388,0,0,0,0,0
2395,1765915636219,-417,8299,-370,0,0,0,0,0
2396,1765915636436,-452,8262,-388,0,0,0,0,0
2397,1765915636536,-438,8217,-395,0,0,0,0,0
2398,1765915636769,-438,8266,-412,0,0,0,0,0
2399,1765915636836,-448,8342,-393,0,0,0,0,0
2400,1765915637085,-480,8253,-380,0,0,0,0,0
2401,1765915637136,-447,8249,-365,0,0,0,0,0
2402,1765915637402,-466,8308,-417,0,0,0,0,0
2403,1765915637485,-450,8280,-360,0,0,0,0,0
2404,1765915637685,-451,8293,-372,0,0,0,0,0
2405,1765915637818,-453,8332,-365,0,0,0,0,0
2406,1765915638001,-446,8306,-370,0,0,0,0,0
2407,1765915638134,-480,8278,-336,0,0,0,0,0
2408,1765915638301,-451,8299,-394,0,0,0,0,0
2409,1765915638451,-460,8330,-424,0,0,0,0,0
2410,1765915638618,-454,8279,-356,0,0,0,0,0
2411,1765915638800,-465,8286,-394,0,0,0,0,0
2412,1765915638917,-446,8286,-429,0,0,0,0,0
2413,1765915639134,-446,8276,-413,0,0,0,0,0
2414,1765915639200,-468,8282,-364,0,0,0,0,0
2415,1765915639433,-451,8270,-436,0,0,0,0,0
2416,1765915639533,-448,8278,-430,0,0,0,0,0
2417,1765915639750,-458,8299,-361,0,0,0,0,0
2418,1765915639817,-456,8285,-356,0,0,0,0,0
2419,1765915640067,-447,8314,-425,0,0,0,0,0
2420,1765915640149,-432,8317,-393,0,0,0,0,0
2421,1765915640382,-449,8260,-344,0,0,0,0,0
2422,1765915640467,-466,8294,-371,0,0,0,0,0
2423,1765915640700,-440,8269,-388,0,0,0,0,0
2424,1765915640766,-448,8294,-374,0,0,0,0,0
2425,1765915640999,-445,8287,-397,0,0,0,0,0
2426,1765915641115,-454,8263,-401,0,0,0,0,0
2427,1765915641282,-462,8313,-402,0,0,0,0,0
2428,1765915641448,-456,8281,-402,0,0,0,0,0
2429,1765915641582,-443,8275,-382,0,0,0,0,0
2430,1765915641782,-451,8273,-401,0,0,0,0,0
2431,1765915641948,-458,8286,-403,0,0,0,0,0
2432,1765915642379,-453,8300,-394,0,0,0,0,0
2433,1765915642397,-446,8283,-384,0,0,0,0,0
2434,1765915642431,-448,8298,-405,0,0,0,0,0
2435,1765915642564,-453,8279,-387,0,0,0,0,0
2436,1765915642714,-456,8288,-394,0,0,0,0,0
2437,1765915642863,-456,8303,-387,0,0,0,0,0
2438,1765915642997,-454,8279,-381,0,0,0,0,0
2439,1765915643064,-468,8262,-386,0,0,0,0,0
2440,1765915643214,-447,8308,-386,0,0,0,0,0
2441,1765915643347,-444,8292,-402,0,0,0,0,0
2442,1765915643480,-462,8270,-394,0,0,0,0,0
2443,1765915643646,-455,8293,-386,0,0,0,0,0
2444,1765915643714,-443,8314,-398,0,0,0,0,0
2445,1765915643830,-458,8271,-374,0,0,0,0,0
2446,1765915643996,-465,8292,-394,0,0,0,0,0
2447,1765915644113,-450,8300,-394,0,0,0,0,0
2448,1765915644278,-461,8274,-396,0,0,0,0,0
2449,1765915644347,-447,8298,-396,0,0,0,0,0
2450,1765915644395,-468,8298,-384,0,0,0,0,0
2451,1765915644628,-444,8269,-394,0,0,0,0,0
2452,1765915644679,-448,8281,-387,0,0,0,0,0
2453,1765915644912,-443,8311,-377,0,0,0,0,0
2454,1765915644979,-456,8273,-386,0,0,0,0,0
2455,1765915645229,-448,8301,-386,0,0,0,0,0
2456,1765915645328,-452,8300,-396,0,0,0,0,0
2457,1765915645495,-450,8275,-402,0,0,0,0,0
2458,1765915645612,-454,8267,-387,0,0,0,0,0
2459,1765915645811,-460,8298,-402,0,0,0,0,0
2460,1765915645962,-453,8248,-384,0,0,0,0,0
2461,1765915646095,-455,8310,-396,0,0,0,0,0
2462,1765915646244,-466,8291,-410,0,0,0,0,0
2463,1765915646377,-445,8262,-386,0,0,0,0,0
2464,1765915646411,-436,8278,-370,0,0,0,0,0
2465,1765915646594,-457,8294,-393,0,0,0,0,0
2466,1765915646694,-474,8297,-411,0,0,0,0,0
2467,1765915646877,-445,8271,-394,0,0,0,0,0
2468,1765915646977,-444,8286,-394,0,0,0,0,0
2469,1765915647227,-450,8303,-400,0,0,0,0,0
2470,1765915647294,-455,8279,-402,0,0,0,0,0
2471,1765915647510,-454,8278,-399,0,0,0,0,0
2472,1765915647576,-448,8288,-383,0,0,0,0,0
2473,1765915647793,-445,8290,-398,0,0,0,0,0
2474,1765915647926,-450,8279,-395,0,0,0,0,0
2475,1765915648043,-455,8270,-396,0,0,0,0,0
2476,1765915648210,-465,8297,-392,0,0,0,0,0
2477,1765915648343,-450,8291,-384,0,0,0,0,0
2478,1765915648559,-446,8292,-398,0,0,0,0,0
2479,1765915648643,-453,8296,-372,0,0,0,0,0
2480,1765915648843,-466,8288,-391,0,0,0,0,0
2481,1765915648926,-458,8286,-402,0,0,0,0,0
2482,1765915649159,-453,8286,-393,0,0,0,0,0
2483,1765915649242,-458,8294,-383,0,0,0,0,0
2484,1765915649442,-453,8290,-382,0,0,0,0,0
2485,1765915649542,-454,8280,-395,0,0,0,0,0
2486,1765915649825,-460,8282,-393,0,0,0,0,0
2487,1765915649925,-456,8282,-384,0,0,0,0,0
2488,1765915650124,-454,8296,-397,0,0,0,0,0
2489,1765915650257,-450,8296,-391,0,0,0,0,0
2490,1765915650440,-457,8277,-402,0,0,0,0,0
2491,1765915650540,-443,8275,-394,0,0,0,0,0
2492,1765915650740,-453,8306,-379,0,0,0,0,0
2493,1765915650841,-455,8264,-376,0,0,0,0,0
2494,1765915651040,-446,8286,-384,0,0,0,0,0
2495,1765915651140,-456,8299,-385,0,0,0,0,0
2496,1765915651340,-456,8268,-378,0,0,0,0,0
2497,1765915651457,-458,8286,-384,0,0,0,0,0
2498,1765915651640,-450,8298,-391,0,0,0,0,0
2499,1765915651957,-455,8283,-391,0,0,0,0,0
2500,1765915652090,-456,8307,-394,0,0,0,0,0
2501,1765915652255,-445,8270,-396,0,0,0,0,0
2502,1765915652406,-452,8285,-386,0,0,0,0,0
2503,1765915652572,-462,8271,-395,0,0,0,0,0
2504,1765915652706,-451,8280,-401,0,0,0,0,0
2505,1765915652856,-458,8294,-396,0,0,0,0,0
2506,1765915653299,-458,8290,-376,0,0,0,0,0
2507,1765915653307,-457,8283,-401,0,0,0,0,0
2508,1765915653371,-445,8303,-382,0,0,0,0,0
2509,1765915653471,-455,8286,-386,0,0,0,0,0
2510,1765915653688,-451,8278,-394,0,0,0,0,0
2511,1765915653772,-452,8294,-388,0,0,0,0,0
2512,1765915653989,-446,8282,-395,0,0,0,0,0
2513,1765915654088,-450,8277,-384,0,0,0,0,0
2514,1765915654322,-454,8313,-385,0,0,0,0,0
2515,1765915654371,-456,8276,-392,0,0,0,0,0
2516,1765915654604,-446,8296,-394,0,0,0,0,0
2517,1765915654687,-467,8286,-390,0,0,0,0,0
2518,1765915654937,-458,8286,-388,0,0,0,0,0
2519,1765915654989,-445,8289,-388,0,0,0,0,0
2520,1765915655219,-456,8282,-384,0,0,0,0,0
2521,1765915655303,-458,8280,-392,0,0,0,0,0
2522,1765915655535,-449,8278,-391,0,0,0,0,0
2523,1765915655620,-465,8299,-390,0,0,0,0,0
2524,1765915655836,-454,8286,-387,0,0,0,0,0
2525,1765915656153,-460,8304,-388,0,0,0,0,0
2526,1765915656268,-456,8265,-391,0,0,0,0,0
2527,1765915656453,-451,8290,-395,0,0,0,0,0
2528,1765915656587,-465,8289,-392,0,0,0,0,0
2529,1765915656769,-444,8288,-402,0,0,0,0,0
2530,1765915656886,-437,8305,-396,0,0,0,0,0
2531,1765915657052,-465,8275,-384,0,0,0,0,0
2532,1765915657219,-456,8293,-398,0,0,0,0,0
2533,1765915657384,-452,8275,-379,0,0,0,0,0
2534,1765915657519,-448,8303,-387,0,0,0,0,0
2535,1765915657669,-451,8282,-394,0,0,0,0,0
2536,1765915657835,-461,8278,-390,0,0,0,0,0
2537,1765915657968,-451,8298,-383,0,0,0,0,0
2538,1765915658134,-467,8296,-402,0,0,0,0,0
2539,1765915658284,-474,8258,-394,0,0,0,0,0
2540,1765915658468,-441,8307,-392,0,0,0,0,0
2541,1765915658568,-444,8282,-388,0,0,0,0,0
2542,1765915658785,-465,8309,-392,0,0,0,0,0
2543,1765915658884,-462,8300,-391,0,0,0,0,0
2544,1765915659100,-452,8269,-394,0,0,0,0,0
2545,1765915659184,-456,8306,-394,0,0,0,0,0
2546,1765915659399,-448,8289,-387,0,0,0,0,0
2547,1765915659499,-450,8290,-395,0,0,0,0,0
2548,1765915659733,-460,8294,-392,0,0,0,0,0
2549,1765915659816,-451,8298,-396,0,0,0,0,0
2550,1765915660032,-453,8280,-387,0,0,0,0,0
2551,1765915660349,-444,8277,-394,0,0,0,0,0
2552,1765915660450,-458,8276,-387,0,0,0,0,0
2553,1765915660633,-456,8301,-392,0,0,0,0,0
2554,1765915660765,-451,8301,-384,0,0,0,0,0
2555,1765915660965,-454,8304,-407,0,0,0,0,0
2556,1765915661082,-461,8290,-398,0,0,0,0,0
2557,1765915661248,-459,8278,-388,0,0,0,0,0
2558,1765915661431,-450,8287,-394,0,0,0,0,0
2559,1765915661582,-451,8290,-399,0,0,0,0,0
2560,1765915661731,-456,8273,-395,0,0,0,0,0
2561,1765915661882,-456,8300,-390,0,0,0,0,0
2562,1765915662064,-455,8303,-390,0,0,0,0,0
2563,1765915662165,-455,8268,-395,0,0,0,0,0
2564,1765915662198,-454,8300,-372,0,0,0,0,0
2565,1765915662381,-465,8275,-384,0,0,0,0,0
2566,1765915662498,-440,8297,-399,0,0,0,0,0
2567,1765915662697,-448,8276,-414,0,0,0,0,0
2568,1765915662781,-477,8297,-393,0,0,0,0,0
2569,1765915663013,-453,8287,-391,0,0,0,0,0
2570,1765915663113,-448,8298,-394,0,0,0,0,0
2571,1765915663329,-457,8296,-381,0,0,0,0,0
2572,1765915663414,-451,8284,-387,0,0,0,0,0
2573,1765915663663,-450,8284,-382,0,0,0,0,0
2574,1765915663746,-452,8275,-390,0,0,0,0,0
2575,1765915664238,-464,8312,-386,0,0,0,0,0
2576,1765915664246,-453,8286,-391,0,0,0,0,0
2577,1765915664262,-441,8286,-396,0,0,0,0,0
2578,1765915664279,-458,8294,-394,0,0,0,0,0
2579,1765915664379,-455,8301,-387,0,0,0,0,0
2580,1765915664562,-447,8268,-393,0,0,0,0,0
2581,1765915664696,-451,8290,-384,0,0,0,0,0
2582,1765915664846,-461,8300,-402,0,0,0,0,0
2583,1765915664995,-454,8288,-399,0,0,0,0,0
2584,1765915665163,-456,8289,-393,0,0,0,0,0
2585,1765915665329,-457,8295,-382,0,0,0,0,0
2586,1765915665462,-452,8274,-397,0,0,0,0,0
2587,1765915665645,-452,8304,-392,0,0,0,0,0
2588,1765915665794,-456,8270,-386,0,0,0,0,0
2589,1765915665995,-459,8296,-392,0,0,0,0,0
2590,1765915666078,-467,8306,-394,0,0,0,0,0
2591,1765915666326,-446,8270,-395,0,0,0,0,0
2592,1765915666410,-458,8296,-392,0,0,0,0,0
2593,1765915666626,-456,8270,-390,0,0,0,0,0
2594,1765915666694,-451,8282,-382,0,0,0,0,0
2595,1765915666927,-450,8301,-390,0,0,0,0,0
2596,1765915667010,-451,8280,-390,0,0,0,0,0
2597,1765915667243,-458,8297,-384,0,0,0,0,0
2598,1765915667310,-449,8298,-397,0,0,0,0,0
2599,1765915667543,-445,8278,-393,0,0,0,0,0
2600,1765915667627,-460,8278,-396,0,0,0,0,0
2601,1765915667859,-442,8286,-391,0,0,0,0,0
2602,1765915667926,-460,8271,-386,0,0,0,0,0
2603,1765915668159,-458,8314,-390,0,0,0,0,0
2604,1765915668259,-447,8276,-396,0,0,0,0,0
2605,1765915668476,-456,8306,-395,0,0,0,0,0
2606,1765915668542,-472,8324,-365,0,0,0,0,0
2607,1765915668759,-468,8238,-408,0,0,0,0,0
2608,1765915668876,-418,8262,-394,0,0,0,0,0
2609,1765915669058,-458,8341,-394,0,0,0,0,0
2610,1765915669374,-459,8247,-402,0,0,0,0,0
2611,1765915669474,-433,8276,-404,0,0,0,0,0
2612,1765915669658,-473,8295,-389,0,0,0,0,0
2613,1765915669825,-444,8278,-342,0,0,0,0,0
2614,1765915669957,-476,8326,-358,0,0,0,0,0
2615,1765915670141,-450,8274,-355,0,0,0,0,0
2616,1765915670257,-446,8272,-349,0,0,0,0,0
2617,1765915670391,-461,8335,-457,0,0,0,0,0
2618,1765915670441,-451,8236,-450,0,0,0,0,0
2619,1765915670508,-449,8290,-426,0,0,0,0,0
2620,1765915670557,-472,8326,-404,0,0,0,0,0
2621,1765915670623,-454,8272,-360,0,0,0,0,0
2622,1765915670674,-430,8288,-332,0,0,0,0,0
2623,1765915670740,-454,8302,-370,0,0,0,0,0
2624,1765915670791,-466,8334,-382,0,0,0,0,0
2625,1765915670874,-465,8288,-402,0,0,0,0,0
2626,1765915670923,-439,8251,-398,0,0,0,0,0
2627,1765915670990,-453,8311,-423,0,0,0,0,0
2628,1765915671040,-484,8320,-383,0,0,0,0,0
2629,1765915671107,-447,8263,-373,0,0,0,0,0
2630,1765915671157,-434,8277,-398,0,0,0,0,0
2631,1765915671223,-448,8330,-399,0,0,0,0,0
2632,1765915671290,-473,8298,-395,0,0,0,0,0
2633,1765915671340,-478,8255,-419,0,0,0,0,0
2634,1765915671407,-451,8304,-377,0,0,0,0,0
2635,1765915671457,-460,8252,-395,0,0,0,0,0
2636,1765915671523,-474,8329,-414,0,0,0,0,0
2637,1765915671573,-436,8289,-404,0,0,0,0,0
2638,1765915671639,-438,8259,-395,0,0,0,0,0
2639,1765915671690,-454,8298,-394,0,0,0,0,0
2640,1765915671756,-460,8311,-378,0,0,0,0,0
2641,1765915671823,-458,8278,-376,0,0,0,0,0
2642,1765915671889,-445,8280,-392,0,0,0,0,0
2643,1765915671940,-455,8298,-402,0,0,0,0,0
2644,1765915672006,-464,8300,-402,0,0,0,0,0
2645,1765915672056,-458,8261,-401,0,0,0,0,0
2646,1765915672122,-446,8293,-393,0,0,0,0,0
2647,1765915672172,-452,8312,-375,0,0,0,0,0
2648,1765915672238,-460,8280,-374,0,0,0,0,0
2649,1765915672290,-443,8280,-388,0,0,0,0,0
2650,1765915672356,-442,8303,-413,0,0,0,0,0
2651,1765915672422,-454,8286,-395,0,0,0,0,0
2652,1765915672489,-459,8291,-389,0,0,0,0,0
2653,1765915672538,-446,8288,-394,0,0,0,0,0
2654,1765915672606,-444,8287,-376,0,0,0,0,0
2655,1765915672655,-463,8291,-391,0,0,0,0,0
2656,1765915672722,-448,8294,-396,0,0,0,0,0
2657,1765915672789,-442,8284,-404,0,0,0,0,0
2658,1765915672838,-451,8287,-397,0,0,0,0,0
2659,1765915672905,-460,8303,-387,0,0,0,0,0
2660,1765915672955,-468,8273,-382,0,0,0,0,0
2661,1765915673022,-444,8277,-388,0,0,0,0,0
2662,1765915673088,-449,8316,-392,0,0,0,0,0
2663,1765915673155,-444,8282,-412,0,0,0,0,0
2664,1765915673205,-461,8274,-375,0,0,0,0,0
2665,1765915673272,-454,8279,-372,0,0,0,0,0
2666,1765915673323,-447,8321,-406,0,0,0,0,0
2667,1765915673388,-434,8293,-403,0,0,0,0,0
2668,1765915673437,-454,8257,-411,0,0,0,0,0
2669,1765915673505,-490,8275,-403,0,0,0,0,0
2670,1765915673571,-442,8317,-354,0,0,0,0,0
2671,1765915673622,-428,8296,-382,0,0,0,0,0
2672,1765915673688,-453,8283,-406,0,0,0,0,0
2673,1765915673754,-471,8286,-396,0,0,0,0,0
2674,1765915673805,-468,8295,-389,0,0,0,0,0
2675,1765915673871,-437,8284,-389,0,0,0,0,0
2676,1765915673921,-432,8272,-382,0,0,0,0,0
2677,1765915673988,-476,8278,-406,0,0,0,0,0
2678,1765915674038,-454,8295,-370,0,0,0,0,0
2679,1765915674104,-440,8306,-390,0,0,0,0,0
2680,1765915674171,-440,8280,-418,0,0,0,0,0
2681,1765915674222,-487,8245,-425,0,0,0,0,0
2682,1765915674287,-461,8315,-386,0,0,0,0,0
2683,1765915674354,-423,8315,-390,0,0,0,0,0
2684,1765915674404,-430,8278,-366,0,0,0,0,0
2685,1765915674470,-476,8280,-396,0,0,0,0,0
2686,1765915674520,-484,8322,-369,0,0,0,0,0
2687,1765915674587,-448,8341,-421,0,0,0,0,0
2688,1765915674637,-430,8221,-399,0,0,0,0,0
2689,1765915674704,-484,8299,-404,0,0,0,0,0
2690,1765915674769,-457,8332,-380,0,0,0,0,0
2691,1765915675166,-451,8272,-376,0,0,0,0,0
2692,1765915675188,-422,8246,-380,0,0,0,0,0
2693,1765915675188,-470,8344,-396,0,0,0,0,0
2694,1765915675188,-470,8298,-408,0,0,0,0,0
2695,1765915675188,-441,8252,-392,0,0,0,0,0
2696,1765915675188,-451,8308,-400,0,0,0,0,0
2697,1765915675188,-454,8296,-402,0,0,0,0,0
2698,1765915675237,-450,8262,-353,0,0,0,0,0
2699,1765915675303,-460,8288,-403,0,0,0,0,0
2700,1765915675370,-456,8302,-403,0,0,0,0,0
2701,1765915675437,-456,8289,-395,0,0,0,0,0
2702,1765915675487,-455,8276,-408,0,0,0,0,0
2703,1765915675553,-446,8278,-395,0,0,0,0,0
2704,1765915675603,-451,8307,-384,0,0,0,0,0
2705,1765915675669,-460,8298,-385,0,0,0,0,0
2706,1765915675720,-458,8272,-386,0,0,0,0,0
2707,1765915675786,-452,8306,-386,0,0,0,0,0
2708,1765915675837,-453,8301,-376,0,0,0,0,0
2709,1765915675902,-457,8278,-378,0,0,0,0,0
2710,1765915675971,-451,8281,-395,0,0,0,0,0
2711,1765915676037,-466,8292,-391,0,0,0,0,0
2712,1765915676087,-462,8302,-391,0,0,0,0,0
2713,1765915676153,-449,8276,-393,0,0,0,0,0
2714,1765915676202,-453,8272,-382,0,0,0,0,0
2715,1765915676269,-456,8320,-400,0,0,0,0,0
2716,1765915676469,-451,8241,-416,0,0,0,0,0
2717,1765915676587,-466,8277,-430,0,0,0,0,0
2718,1765915676751,-436,8325,-426,0,0,0,0,0
2719,1765915676886,-450,8282,-417,0,0,0,0,0
2720,1765915677069,-510,8270,-416,0,0,0,0,0
2721,1765915677202,-434,8291,-370,0,0,0,0,0
2722,1765915677268,-407,8300,-396,0,0,0,0,0
2723,1765915677317,-447,8298,-394,0,0,0,0,0
2724,1765915677384,-480,8310,-381,0,0,0,0,0
2725,1765915677434,-458,8260,-390,0,0,0,0,0
2726,1765915677501,-461,8310,-414,0,0,0,0,0
2727,1765915677552,-484,8288,-399,0,0,0,0,0
2728,1765915677618,-445,8273,-358,0,0,0,0,0
2729,1765915677685,-426,8280,-399,0,0,0,0,0
2730,1765915677751,-466,8317,-408,0,0,0,0,0
2731,1765915677802,-463,8269,-353,0,0,0,0,0
2732,1765915677867,-445,8274,-380,0,0,0,0,0
2733,1765915677918,-447,8310,-410,0,0,0,0,0
2734,1765915677984,-453,8296,-384,0,0,0,0,0
2735,1765915678034,-485,8278,-376,0,0,0,0,0
2736,1765915678101,-446,8290,-402,0,0,0,0,0
2737,1765915678151,-437,8308,-398,0,0,0,0,0
2738,1765915678218,-452,8289,-377,0,0,0,0,0
2739,1765915678284,-475,8288,-400,0,0,0,0,0
2740,1765915678351,-476,8274,-423,0,0,0,0,0
2741,1765915678401,-430,8290,-397,0,0,0,0,0
2742,1765915678468,-438,8288,-404,0,0,0,0,0
2743,1765915678516,-464,8312,-408,0,0,0,0,0
2744,1765915678584,-478,8279,-392,0,0,0,0,0
