index,date,GYRO_X,GYRO_Y,GYRO_Z,1,2,3,4,5
0,1765915244417,-8,10,1,0,0,0,0,0
1,1765915244616,-5,11,2,0,0,0,0,0
2,1765915244683,-6,10,1,0,0,0,0,0
3,1765915244900,-6,10,1,0,0,0,0,0
4,1765915244966,-6,11,1,0,0,0,0,0
5,1765915245233,-5,10,1,0,0,0,0,0
6,1765915245316,-5,10,2,0,0,0,0,0
7,1765915245499,-6,9,2,0,0,0,0,0
8,1765915245599,-6,9,2,0,0,0,0,0
9,1765915245799,-7,15,2,0,0,0,0,0
10,1765915245949,-3,15,1,0,0,0,0,0
11,1765915246082,-7,8,0,0,0,0,0,0
12,1765915246231,-2,10,1,0,0,0,0,0
13,1765915246365,-8,11,4,0,0,0,0,0
14,1765915246398,-6,9,0,0,0,0,0,0
15,1765915246581,-6,10,1,0,0,0,0,0
16,1765915246665,-6,12,1,0,0,0,0,0
17,1765915246864,-4,10,1,0,0,0,0,0
18,1765915246948,-6,9,0,0,0,0,0,0
19,1765915247214,-5,11,1,0,0,0,0,0
20,1765915247298,-7,11,2,0,0,0,0,0
21,1765915247498,-6,11,1,0,0,0,0,0
22,1765915247630,-7,11,1,0,0,0,0,0
23,1765915247814,-5,10,0,0,0,0,0,0
24,1765915247881,-6,11,1,0,0,0,0,0
25,1765915248113,-6,8,0,0,0,0,0,0
26,1765915248213,-6,13,1,0,0,0,0,0
27,1765915248429,-8,10,1,0,0,0,0,0
28,1765915248496,-5,9,3,0,0,0,0,0
29,1765915248729,-6,9,0,0,0,0,0,0
30,1765915248830,-5,10,1,0,0,0,0,0
31,1765915249029,-4,10,0,0,0,0,0,0
32,1765915249129,-9,12,1,0,0,0,0,0
33,1765915249346,-5,11,0,0,0,0,0,0
34,1765915249480,-8,12,2,0,0,0,0,0
35,1765915249628,-9,11,1,0,0,0,0,0
36,1765915249945,-6,11,2,0,0,0,0,0
37,1765915250078,-4,7,2,0,0,0,0,0
38,1765915250228,-8,13,0,0,0,0,0,0
39,1765915250394,-6,13,2,0,0,0,0,0
40,1765915250545,-6,12297,1,0,0,0,0,0
41,1765915250696,-6,10,0,0,0,0,0,0
42,1765915250844,-6,12297,0,0,0,0,0,0
43,1765915251028,-5,12,1,0,0,0,0,0
44,1765915251144,-7,10,3,0,0,0,0,0
45,1765915251161,-6,10,1,0,0,0,0,0
46,1765915251294,-5,10,1,0,0,0,0,0
47,1765915251444,-6,10,1,0,0,0,0,0
48,1765915251595,-6,11,0,0,0,0,0,0
49,1765915251744,-7,11,2,0,0,0,0,0
50,1765915251893,-6,10,1,0,0,0,0,0
51,1765915252060,-5,11,1,0,0,0,0,0
52,1765915252209,-7,9,1,0,0,0,0,0
53,1765915252360,-6,11,1,0,0,0,0,0
54,1765915252543,-6,11,0,0,0,0,0,0
55,1765915252676,-6,10,0,0,0,0,0,0
56,1765915252827,-4,10,0,0,0,0,0,0
57,1765915252960,-6,10,1,0,0,0,0,0
58,1765915253159,-5,10,0,0,0,0,0,0
59,1765915253276,-5,11,1,0,0,0,0,0
60,1765915253409,-7,10,2,0,0,0,0,0
61,1765915253575,-9,12,0,0,0,0,0,0
62,1765915253759,-6,11,0,0,0,0,0,0
63,1765915253859,-7,12299,1,0,0,0,0,0
64,1765915254041,-6,9,1,0,0,0,0,0
65,1765915254175,-5,11,2,0,0,0,0,0
66,1765915254407,-6,11,2,0,0,0,0,0
67,1765915254474,-7,10,0,0,0,0,0,0
68,1765915254675,-4,11,1,0,0,0,0,0
69,1765915254792,-7,10,0,0,0,0,0,0
70,1765915254991,-7,11,0,0,0,0,0,0
71,1765915255090,-6,11,2,0,0,0,0,0
72,1765915255406,-6,11,1,0,0,0,0,0
73,1765915255607,-5,11,1,0,0,0,0,0
74,1765915255690,-7,10,2,0,0,0,0,0
75,1765915255923,-6,11,2,0,0,0,0,0
76,1765915256007,-5,11,1,0,0,0,0,0
77,1765915256207,-7,10,1,0,0,0,0,0
78,1765915256306,-6,9,1,0,0,0,0,0
79,1765915256540,-6,11,0,0,0,0,0,0
80,1765915256641,-5,10,0,0,0,0,0,0
81,1765915256858,-8,11,1,0,0,0,0,0
82,1765915256939,-7,12,2,0,0,0,0,0
83,1765915257158,-5,9,1,0,0,0,0,0
84,1765915257256,-6,10,1,0,0,0,0,0
85,1765915257472,-6,10,0,0,0,0,0,0
86,1765915257555,-6,10,1,0,0,0,0,0
87,1765915257770,-8,11,1,0,0,0,0,0
88,1765915257888,-4,12,0,0,0,0,0,0
89,1765915258054,-6,12,-1,0,0,0,0,0
90,1765915258087,-6,12,1,0,0,0,0,0
91,1765915258154,-6,9,1,0,0,0,0,0
92,1765915258370,-6,10,1,0,0,0,0,0
93,1765915258487,-7,11,1,0,0,0,0,0
94,1765915258670,-4,9,1,0,0,0,0,0
95,1765915258970,-6,10,0,0,0,0,0,0
96,1765915259103,-6,10,2,0,0,0,0,0
97,1765915259269,-5,10,2,0,0,0,0,0
98,1765915259419,-5,10,1,0,0,0,0,0
99,1765915259586,-7,10,2,0,0,0,0,0
100,1765915259735,-6,11,0,0,0,0,0,0
101,1765915259886,-6,10,2,0,0,0,0,0
102,1765915260068,-7,12,2,0,0,0,0,0
103,1765915260202,-6,11,2,0,0,0,0,0
104,1765915260385,-5,10,2,0,0,0,0,0
105,1765915260502,-7,11,1,0,0,0,0,0
106,1765915260701,-7,10,2,0,0,0,0,0
107,1765915260786,-7,10,2,0,0,0,0,0
108,1765915261051,-5,9,1,0,0,0,0,0
109,1765915261103,-6,11,2,0,0,0,0,0
110,1765915261353,-5,11,2,0,0,0,0,0
111,1765915261420,-8,10,0,0,0,0,0,0
112,1765915261670,-6,10,1,0,0,0,0,0
113,1765915261720,-7,10,1,0,0,0,0,0
114,1765915261970,-6,11,2,0,0,0,0,0
115,1765915262052,-7,11,2,0,0,0,0,0
116,1765915262285,-5,9,1,0,0,0,0,0
117,1765915262352,-6,9,1,0,0,0,0,0
118,1765915262567,-8,10,1,0,0,0,0,0
119,1765915262683,-7,11,1,0,0,0,0,0
120,1765915262867,-5,11,0,0,0,0,0,0
121,1765915263001,-6,8,1,0,0,0,0,0
122,1765915263184,-5,10,2,0,0,0,0,0
123,1765915263334,-7,10,1,0,0,0,0,0
124,1765915263483,-6,10,1,0,0,0,0,0
125,1765915263800,-6,10,2,0,0,0,0,0
126,1765915263965,-6,11,1,0,0,0,0,0
127,1765915264098,-7,10,1,0,0,0,0,0
128,1765915264299,-6,11,1,0,0,0,0,0
129,1765915264415,-6,11,2,0,0,0,0,0
130,1765915264598,-7,10,2,0,0,0,0,0
131,1765915264698,-6,9,1,0,0,0,0,0
132,1765915264915,-7,9,2,0,0,0,0,0
133,1765915264998,-5,11,1,0,0,0,0,0
134,1765915265216,-6,9,0,0,0,0,0,0
135,1765915265299,-5,9,1,0,0,0,0,0
136,1765915265549,-6,10,0,0,0,0,0,0
137,1765915265600,-6,10,1,0,0,0,0,0
138,1765915265849,-6,11,1,0,0,0,0,0
139,1765915265931,-5,10,2,0,0,0,0,0
140,1765915266166,-6,11,1,0,0,0,0,0
141,1765915266381,-6,11,2,0,0,0,0,0
142,1765915266481,-8,11,1,0,0,0,0,0
143,1765915266547,-7,11,0,0,0,0,0,0
144,1765915266765,-5,9,255,0,0,0,0,0
145,1765915266851,-7,9,2,0,0,0,0,0
146,1765915267065,-4,11,2,0,0,0,0,0
147,1765915267164,-6,8,1,0,0,0,0,0
148,1765915267397,-7,10,2,0,0,0,0,0
149,1765915267497,-5,9,1,0,0,0,0,0
150,1765915267682,-5,9,1,0,0,0,0,0
151,1765915267996,-7,10,2,0,0,0,0,0
152,1765915269512,-7,11,2,0,0,0,0,0
153,1765915269512,-4,8,0,0,0,0,0,0
154,1765915269512,-6,10,2,0,0,0,0,0
155,1765915269512,-7,11,2,0,0,0,0,0
156,1765915269512,-7,10,1,0,0,0,0,0
157,1765915269512,-5,8,1,0,0,0,0,0
158,1765915269513,-6,9,1,0,0,0,0,0
159,1765915269513,-6,10,0,0,0,0,0,0
160,1765915269513,-5,11,1,0,0,0,0,0
161,1765915269517,-7,9,2,0,0,0,0,0
162,1765915269730,-8,10,1,0,0,0,0,0
163,1765915269812,-6,9,2,0,0,0,0,0
164,1765915270013,-5,10,0,0,0,0,0,0
165,1765915270129,-6,11,1,0,0,0,0,0
166,1765915270346,-5,10,1,0,0,0,0,0
167,1765915270412,-6,9,1,0,0,0,0,0
168,1765915270662,-7,9,1,0,0,0,0,0
169,1765915270745,-4,11,1,0,0,0,0,0
170,1765915270977,-5,9,1,0,0,0,0,0
171,1765915271045,-5,11,1,0,0,0,0,0
172,1765915271276,-5,10,2,0,0,0,0,0
173,1765915271360,-6,10,0,0,0,0,0,0
174,1765915271594,-7,10,2,0,0,0,0,0
175,1765915271678,-6,10,0,0,0,0,0,0
176,1765915271877,-5,10,2,0,0,0,0,0
177,1765915272193,-7,10,0,0,0,0,0,0
178,1765915272293,-6,10,0,0,0,0,0,0
179,1765915272493,-6,10,1,0,0,0,0,0
180,1765915272626,-5,9,2,0,0,0,0,0
181,1765915272793,-4,10,1,0,0,0,0,0
182,1765915272893,-7,10,2,0,0,0,0,0
183,1765915273093,-7,10,1,0,0,0,0,0
184,1765915273209,-7,10,0,0,0,0,0,0
185,1765915273359,-8,10,1,0,0,0,0,0
186,1765915273459,-4,9,1,0,0,0,0,0
187,1765915273675,-6,8,2,0,0,0,0,0
188,1765915273758,-7,10,1,0,0,0,0,0
189,1765915273993,-4,10,1,0,0,0,0,0
190,1765915274058,-6,10,2,0,0,0,0,0
191,1765915275467,-6,11,1,0,0,0,0,0
192,1765915275467,-6,8,1,0,0,0,0,0
193,1765915275467,-7,9,1,0,0,0,0,0
194,1765915275468,-4,10,1,0,0,0,0,0
195,1765915275468,-6,11,2,0,0,0,0,0
196,1765915275468,-5,9,2,0,0,0,0,0
197,1765915275468,-6,9,1,0,0,0,0,0
198,1765915275468,-6,9,1,0,0,0,0,0
199,1765915275524,-8,9,2,0,0,0,0,0
200,1765915275624,-4,10,2,0,0,0,0,0
201,1765915275808,-8,13,1,0,0,0,0,0
202,1765915275923,-5,9,-1,0,0,0,0,0
203,1765915276156,-6,10,0,0,0,0,0,0
204,1765915276273,-9,12,-1,0,0,0,0,0
205,1765915276439,-6,11,-2,0,0,0,0,0
206,1765915276555,-4,8,-1,0,0,0,0,0
207,1765915276723,-9,10,2,0,0,0,0,0
208,1765915276806,-4,9,2,0,0,0,0,0
209,1765915276922,-9,11,1,0,0,0,0,0
210,1765915277105,-5,10,2,0,0,0,0,0
211,1765915277256,-8,9,1,0,0,0,0,0
212,1765915277389,-8,13,3,0,0,0,0,0
213,1765915277488,-6,10,2,0,0,0,0,0
214,1765915277555,-7,9,2,0,0,0,0,0
215,1765915277788,-5,13,0,0,0,0,0,0
216,1765915277871,-5,9,1,0,0,0,0,0
217,1765915278156,-7,10,0,0,0,0,0,0
218,1765915278288,-6,9,2,0,0,0,0,0
219,1765915278438,-6,12,1,0,0,0,0,0
220,1765915278604,-6,9,1,0,0,0,0,0
221,1765915278738,-5,10,0,0,0,0,0,0
222,1765915278839,-7,1,5,0,0,0,0,0
223,1765915279052,-2,8,7,0,0,0,0,0
224,1765915279136,7,7,-2,0,0,0,0,0
225,1765915279336,-3,4,-1,0,0,0,0,0
226,1765915279454,-4,12,10,0,0,0,0,0
227,1765915279587,-10,0,10,0,0,0,0,0
228,1765915279703,-16,-6,-1,0,0,0,0,0
229,1765915279903,-10,-14,4,0,0,0,0,0
230,1765915279987,-31,-2,-6,0,0,0,0,0
231,1765915280303,-25,-83,9,0,0,0,0,0
232,1765915280402,46,-61,9,0,0,0,0,0
233,1765915280586,-46,-71,76,0,0,0,0,0
234,1765915280719,41,-84,35,0,0,0,0,0
235,1765915280885,-37,231,19,0,0,0,0,0
236,1765915280953,-64,244,-36,0,0,0,0,0
237,1765915281185,-14,275,-11,0,0,0,0,0
238,1765915281268,9,273,-66,0,0,0,0,0
239,1765915281484,-84,296,-20,0,0,0,0,0
240,1765915281518,11,272,56,0,0,0,0,0
241,1765915281585,28,310,-79,0,0,0,0,0
242,1765915281818,-3,284,20,0,0,0,0,0
243,1765915281968,-63,289,-34,0,0,0,0,0
244,1765915282101,35,299,37,0,0,0,0,0
245,1765915282351,-38,171,-57,0,0,0,0,0
246,1765915282434,-17,184,30,0,0,0,0,0
247,1765915282667,21,111,48,0,0,0,0,0
248,1765915282785,-33,110,-34,0,0,0,0,0
249,1765915283001,-26,-16,2,0,0,0,0,0
250,1765915283234,-2,50,22,0,0,0,0,0
251,1765915283301,9,-15,5,0,0,0,0,0
252,1765915283533,-2,-6,15,0,0,0,0,0
253,1765915283800,0,-406,-33,0,0,0,0,0
254,1765915283883,18,-430,62,0,0,0,0,0
255,1765915284116,54,-397,35,0,0,0,0,0
256,1765915284266,-5,-321,40,0,0,0,0,0
257,1765915284365,-8,-289,34,0,0,0,0,0
258,1765915284449,-12,-296,26,0,0,0,0,0
259,1765915284682,32,-303,4,0,0,0,0,0
260,1765915284800,-236,-297,7,0,0,0,0,0
261,1765915284998,42,-308,39,0,0,0,0,0
262,1765915285265,-32,-312,-60,0,0,0,0,0
263,1765915285365,44,-342,-20,0,0,0,0,0
264,1765915285565,-15,-308,-16,0,0,0,0,0
265,1765915285731,-29,-356,-30,0,0,0,0,0
266,1765915285815,-93,-484,32,0,0,0,0,0
267,1765915285897,93,-427,12,0,0,0,0,0
268,1765915286131,6,-450,27,0,0,0,0,0
269,1765915286264,-2,-460,0,0,0,0,0,0
270,1765915286431,2,-449,2,0,0,0,0,0
271,1765915286714,70,-486,86,0,0,0,0,0
272,1765915286814,0,-543,-45,0,0,0,0,0
273,1765915286998,4,-535,95,0,0,0,0,0
274,1765915287163,68,-574,-111,0,0,0,0,0
275,1765915287279,39,-512,71,0,0,0,0,0
276,1765915287347,44,-463,-7,0,0,0,0,0
277,1765915287564,-45,-561,121,0,0,0,0,0
278,1765915287696,-3,-536,100,0,0,0,0,0
279,1765915287879,49,-486,-21,0,0,0,0,0
280,1765915288227,29,-387,48,0,0,0,0,0
281,1765915288246,27,-243,75,0,0,0,0,0
282,1765915288446,-5,-73,97,0,0,0,0,0
283,1765915288612,13,21,93,0,0,0,0,0
284,1765915288696,-52,112,20,0,0,0,0,0
285,1765915288779,-35,111,23,0,0,0,0,0
286,1765915289013,26,71,-23,0,0,0,0,0
287,1765915289129,-40,93,62,0,0,0,0,0
288,1765915289312,-69,78,-20,0,0,0,0,0
289,1765915289579,82,68,20,0,0,0,0,0
290,1765915289661,-98,52,-34,0,0,0,0,0
291,1765915289895,-21,32,43,0,0,0,0,0
292,1765915290045,-46,49,-48,0,0,0,0,0
293,1765915290132,-37,-6,25,0,0,0,0,0
294,1765915290212,48,-53,-11,0,0,0,0,0
295,1765915290460,-82,-11,78,0,0,0,0,0
296,1765915290576,78,-64,-20,0,0,0,0,0
297,1765915290776,-57,275,-5,0,0,0,0,0
298,1765915290960,1,280,35,0,0,0,0,0
299,1765915291077,-113,425,-29,0,0,0,0,0
300,1765915291326,32,336,10,0,0,0,0,0
301,1765915291377,-58,368,-54,0,0,0,0,0
302,1765915291643,-31,656,11,0,0,0,0,0
303,1765915291726,-56,639,-28,0,0,0,0,0
304,1765915291926,-145,661,-93,0,0,0,0,0
305,1765915292076,-68,612,-164,0,0,0,0,0
306,1765915292259,37,371,-18,0,0,0,0,0
307,1765915292426,-59,408,-20,0,0,0,0,0
308,1765915292559,-43,433,39,0,0,0,0,0
309,1765915292760,-8,423,-85,0,0,0,0,0
310,1765915292842,-60,461,-75,0,0,0,0,0
311,1765915292877,-24,573,-24,0,0,0,0,0
312,1765915293109,-76,555,-51,0,0,0,0,0
313,1765915293208,-49,558,-11,0,0,0,0,0
314,1765915293409,-17,554,-14,0,0,0,0,0
315,1765915293542,-59,550,-49,0,0,0,0,0
316,1765915293591,-1,477,-35,0,0,0,0,0
317,1765915293742,-35,480,-25,0,0,0,0,0
318,1765915293958,-47,419,-30,0,0,0,0,0
319,1765915294041,-66,465,-47,0,0,0,0,0
320,1765915294307,-71,317,13,0,0,0,0,0
321,1765915294474,42,312,-1,0,0,0,0,0
322,1765915294608,8,294,36,0,0,0,0,0
323,1765915295887,5,334,14,0,0,0,0,0
324,1765915295887,-50,-203,8,0,0,0,0,0
325,1765915295887,-88,-283,-75,0,0,0,0,0
326,1765915295887,40,-487,62,0,0,0,0,0
327,1765915295887,-28,-587,108,0,0,0,0,0
328,1765915295887,21,-216,104,0,0,0,0,0
329,1765915295989,-29,-224,-104,0,0,0,0,0
330,1765915296092,41,-303,65,0,0,0,0,0
331,1765915296307,-4,-469,21,0,0,0,0,0
332,1765915296439,58,-754,60,0,0,0,0,0
333,1765915296655,-12,-685,60,0,0,0,0,0
334,1765915296774,71,-497,146,0,0,0,0,0
335,1765915296939,53,-316,45,0,0,0,0,0
336,1765915297123,149,-970,-16,0,0,0,0,0
337,1765915297272,32,-1071,117,0,0,0,0,0
338,1765915297488,13,-1065,-117,0,0,0,0,0
339,1765915297571,131,-1079,172,0,0,0,0,0
340,1765915297837,-4,-305,-26,0,0,0,0,0
341,1765915297923,3,-310,-24,0,0,0,0,0
342,1765915298121,31,-284,28,0,0,0,0,0
343,1765915298254,-2,-273,-5,0,0,0,0,0
344,1765915298421,6,-317,-25,0,0,0,0,0
345,1765915298621,65,-430,48,0,0,0,0,0
346,1765915298753,8,-437,33,0,0,0,0,0
347,1765915298971,-2,-421,26,0,0,0,0,0
348,1765915299054,46,-378,0,0,0,0,0,0
349,1765915299321,-9,-118,23,0,0,0,0,0
350,1765915299436,33,-151,40,0,0,0,0,0
351,1765915299620,-19,-93,-35,0,0,0,0,0
352,1765915299837,16,246,44,0,0,0,0,0
353,1765915299886,25,178,25,0,0,0,0,0
354,1765915300003,38,227,-12,0,0,0,0,0
355,1765915300186,-10,208,0,0,0,0,0,0
356,1765915300352,-49,217,30,0,0,0,0,0
357,1765915300469,-43,139,38,0,0,0,0,0
358,1765915300751,-29,465,-12,0,0,0,0,0
359,1765915300918,9,476,-43,0,0,0,0,0
360,1765915301051,-50,448,15,0,0,0,0,0
361,1765915301268,-36,445,-52,0,0,0,0,0
362,1765915301334,-5,-316,-70,0,0,0,0,0
363,1765915301401,22,-438,52,0,0,0,0,0
364,1765915301617,25,-508,11,0,0,0,0,0
365,1765915301917,-2,-554,53,0,0,0,0,0
366,1765915302185,25,344,20,0,0,0,0,0
367,1765915302317,-75,389,-14,0,0,0,0,0
368,1765915302484,13,346,-25,0,0,0,0,0
369,1765915302684,-10,147,-132,0,0,0,0,0
370,1765915302751,-22,-26,-6,0,0,0,0,0
371,1765915302834,8,-40,-36,0,0,0,0,0
372,1765915303052,13,-41,19,0,0,0,0,0
373,1765915303169,-25,-29,20,0,0,0,0,0
374,1765915303350,-27,-23,-10,0,0,0,0,0
375,1765915303601,-10,-126,10,0,0,0,0,0
376,1765915303684,3,-141,-70,0,0,0,0,0
377,1765915303916,3,-190,-12,0,0,0,0,0
378,1765915304017,78,-223,41,0,0,0,0,0
379,1765915304249,-33,-146,1,0,0,0,0,0
380,1765915304399,-45,-129,-34,0,0,0,0,0
381,1765915304766,87,-123,1,0,0,0,0,0
382,1765915304867,18,-262,8,0,0,0,0,0
383,1765915305116,-59,-129,43,0,0,0,0,0
384,1765915305215,31,-90,57,0,0,0,0,0
385,1765915305415,13,-192,-98,0,0,0,0,0
386,1765915305598,-61,-705,-26,0,0,0,0,0
387,1765915305731,67,-533,73,0,0,0,0,0
388,1765915305948,47,-401,-8,0,0,0,0,0
389,1765915306031,64,-264,112,0,0,0,0,0
390,1765915306299,-37,-302,31,0,0,0,0,0
391,1765915306398,71,-24948,-4187,0,0,0,0,0
392,1765915306597,-14,-435,30,0,0,0,0,0
393,1765915306765,16,-518,-58,0,0,0,0,0
394,1765915306897,43,-569,96,0,0,0,0,0
395,1765915307230,117,-369,10,0,0,0,0,0
396,1765915307464,37,-372,39,0,0,0,0,0
397,1765915307615,6,-374,25,0,0,0,0,0
398,1765915307780,58,-374,61,0,0,0,0,0
399,1765915307948,20,-391,-54,0,0,0,0,0
400,1765915308080,2,-388,75,0,0,0,0,0
401,1765915308264,-40,-385,21,0,0,0,0,0
402,1765915308396,-28,-274,4,0,0,0,0,0
403,1765915308563,32,-257,-17,0,0,0,0,0
404,1765915308979,74,-104,41,0,0,0,0,0
405,1765915309196,-42,-58,-44,0,0,0,0,0
406,1765915309295,11,-45,9,0,0,0,0,0
407,1765915309529,-10,-30,52,0,0,0,0,0
408,1765915309595,19,-49,26,0,0,0,0,0
409,1765915309846,4,-241,9,0,0,0,0,0
410,1765915309913,-13,17,-38,0,0,0,0,0
411,1765915310146,-48,5,-20,0,0,0,0,0
412,1765915310229,-18,-2,-2,0,0,0,0,0
413,1765915310531,35,1,46,0,0,0,0,0
414,1765915310545,-42,4,-14,0,0,0,0,0
415,1765915310761,44,36,19,0,0,0,0,0
416,1765915311045,27,1,19,0,0,0,0,0
417,1765915311362,42,64,-45,0,0,0,0,0
418,1765915311429,-34,22,70,0,0,0,0,0
419,1765915311661,9,42,20,0,0,0,0,0
420,1765915311759,5,69,41,0,0,0,0,0
421,1765915311960,-22,49,-8,0,0,0,0,0
422,1765915312027,46,53,-18,0,0,0,0,0
423,1765915312258,-110,73,35,0,0,0,0,0
424,1765915312360,22,45,-40,0,0,0,0,0
425,1765915312561,2,22,29,0,0,0,0,0
426,1765915312628,-127,15,-8,0,0,0,0,0
427,1765915312876,76,-13,-40,0,0,0,0,0
428,1765915312958,15,-25,-13,0,0,0,0,0
429,1765915313174,-54,-25,-3,0,0,0,0,0
430,1765915313242,-11,-24,27,0,0,0,0,0
431,1765915313475,-54,-55,-7,0,0,0,0,0
432,1765915313542,-30,5,23,0,0,0,0,0
433,1765915313776,-9,-42,-15,0,0,0,0,0
434,1765915313874,46,-33,32,0,0,0,0,0
435,1765915314059,14,3,10,0,0,0,0,0
436,1765915314142,0,-18,18,0,0,0,0,0
437,1765915314357,-14,-10,-15,0,0,0,0,0
438,1765915314741,24,29,4,0,0,0,0,0
439,1765915314874,28,44,28,0,0,0,0,0
440,1765915315024,1,29,-29,0,0,0,0,0
441,1765915315192,-7,32,-1,0,0,0,0,0
442,1765915315324,55,-47,-58,0,0,0,0,0
443,1765915315391,-75,-56,24,0,0,0,0,0
444,1765915315625,28,-142,-73,0,0,0,0,0
445,1765915315707,38,-277,-29,0,0,0,0,0
446,1765915315923,15,-444,-23,0,0,0,0,0
447,1765915316007,73,-451,68,0,0,0,0,0
448,1765915316240,31,-479,56,0,0,0,0,0
449,1765915316339,61,-419,-28,0,0,0,0,0
450,1765915316523,51,-404,62,0,0,0,0,0
451,1765915316772,35,-547,6,0,0,0,0,0
452,1765915316873,-57,-595,-1,0,0,0,0,0
453,1765915317106,-119,-420,96,0,0,0,0,0
454,1765915317206,24,-268,-156,0,0,0,0,0
455,1765915317439,13,-359,20,0,0,0,0,0
456,1765915317671,-8,-375,-40,0,0,0,0,0
457,1765915317738,44,-384,29,0,0,0,0,0
458,1765915317972,-27,-378,-26,0,0,0,0,0
459,1765915318255,20,-468,25,0,0,0,0,0
460,1765915318322,10,-435,-60,0,0,0,0,0
461,1765915318555,12,-564,42,0,0,0,0,0
462,1765915318721,20,-568,-14,0,0,0,0,0
463,1765915318804,22,-580,104,0,0,0,0,0
464,1765915318871,72,-492,-26,0,0,0,0,0
465,1765915319104,94,-505,67,0,0,0,0,0
466,1765915319272,11,-572,53,0,0,0,0,0
467,1765915319403,-1,-552,-41,0,0,0,0,0
468,1765915319688,21,-593,163,0,0,0,0,0
469,1765915319854,-29,-620,-55,0,0,0,0,0
470,1765915319987,51,-502,129,0,0,0,0,0
471,1765915320204,106,-481,35,0,0,0,0,0
472,1765915320255,0,-541,15,0,0,0,0,0
473,1765915320353,120,-552,-93,0,0,0,0,0
474,1765915320554,98,-580,145,0,0,0,0,0
475,1765915320737,31,-619,-88,0,0,0,0,0
476,1765915320852,71,-613,158,0,0,0,0,0
477,1765915321119,31,-596,95,0,0,0,0,0
478,1765915321286,25,-537,-69,0,0,0,0,0
479,1765915321537,62,-580,64,0,0,0,0,0
480,1765915321702,-217,-501,-30,0,0,0,0,0
481,1765915321803,6,-440,148,0,0,0,0,0
482,1765915322003,-8,112,-18,0,0,0,0,0
483,1765915322185,-47,665,106,0,0,0,0,0
484,1765915322302,-61,885,187,0,0,0,0,0
485,1765915322566,71,-112,56,0,0,0,0,0
486,1765915322716,1,144,117,0,0,0,0,0
487,1765915322866,12,171,-62,0,0,0,0,0
488,1765915323133,-168,62,26,0,0,0,0,0
489,1765915323217,11,84,3,0,0,0,0,0
490,1765915323434,-11,67,-91,0,0,0,0,0
491,1765915323616,-26,74,70,0,0,0,0,0
492,1765915323733,18,57,-16,0,0,0,0,0
493,1765915324015,5,56,22,0,0,0,0,0
494,1765915324134,-24,61,4,0,0,0,0,0
495,1765915324300,46,153,20,0,0,0,0,0
496,1765915324584,-67,516,-80,0,0,0,0,0
497,1765915324666,110,448,9,0,0,0,0,0
498,1765915324868,-50,584,-87,0,0,0,0,0
499,1765915325016,23,588,-23,0,0,0,0,0
500,1765915325166,37,661,-86,0,0,0,0,0
501,1765915325450,-70,853,-155,0,0,0,0,0
502,1765915325549,4,887,-77,0,0,0,0,0
503,1765915325732,-92,974,-40,0,0,0,0,0
504,1765915325899,-99,1044,-31,0,0,0,0,0
505,1765915326066,-46,659,-86,0,0,0,0,0
506,1765915326233,-46,651,-8,0,0,0,0,0
507,1765915326365,-16,595,-115,0,0,0,0,0
508,1765915326582,-3,507,-2,0,0,0,0,0
509,1765915326616,-22,-590,-145,0,0,0,0,0
510,1765915326682,-27,12,-7,0,0,0,0,0
511,1765915326914,-38,408,-59,0,0,0,0,0
512,1765915327032,-60,263,-40,0,0,0,0,0
513,1765915328764,-47,283,-33,0,0,0,0,0
514,1765915328764,-12,203,0,0,0,0,0,0
515,1765915328765,-57,240,5,0,0,0,0,0
516,1765915328765,44,191,20,0,0,0,0,0
517,1765915328765,-41,160,-27,0,0,0,0,0
518,1765915328765,-84,87,70,0,0,0,0,0
519,1765915328765,7,83,-89,0,0,0,0,0
520,1765915328765,-46,55,71,0,0,0,0,0
521,1765915328765,-48,85,-14,0,0,0,0,0
522,1765915328773,-22,-60,-134,0,0,0,0,0
523,1765915328980,14,-160,29,0,0,0,0,0
524,1765915329129,73,-192,35,0,0,0,0,0
525,1765915329280,-73,-297,-52,0,0,0,0,0
526,1765915329479,7,-604,7,0,0,0,0,0
527,1765915329595,41,-610,90,0,0,0,0,0
528,1765915329829,87,-594,11,0,0,0,0,0
529,1765915329913,92,-558,129,0,0,0,0,0
530,1765915330162,76,-679,68,0,0,0,0,0
531,1765915330230,36,-704,-34,0,0,0,0,0
532,1765915330446,87,-677,26,0,0,0,0,0
533,1765915330579,82,-638,53,0,0,0,0,0
534,1765915330746,-87,-699,105,0,0,0,0,0
535,1765915330929,61,-652,70,0,0,0,0,0
536,1765915331062,28,-664,29,0,0,0,0,0
537,1765915331278,31,-638,8,0,0,0,0,0
538,1765915331361,65,-613,73,0,0,0,0,0
539,1765915331628,20,-460,12,0,0,0,0,0
540,1765915331710,1,-457,0,0,0,0,0,0
541,1765915331927,51,-444,6,0,0,0,0,0
542,1765915332044,57,-439,39,0,0,0,0,0
543,1765915332244,-13,-200,-18,0,0,0,0,0
544,1765915332490,39,-196,62,0,0,0,0,0
545,1765915332543,-62,-194,36,0,0,0,0,0
546,1765915332726,-37,-192,-8,0,0,0,0,0
547,1765915332844,51,-191,22,0,0,0,0,0
548,1765915333093,-10,-172,-8,0,0,0,0,0
549,1765915333160,-15,-169,16,0,0,0,0,0
550,1765915333393,38,-164,68,0,0,0,0,0
551,1765915333510,12,-161,5,0,0,0,0,0
552,1765915333709,34,69,39,0,0,0,0,0
553,1765915333843,-46,25,-8,0,0,0,0,0
554,1765915334008,18,205,53,0,0,0,0,0
555,1765915334175,-63,258,-78,0,0,0,0,0
556,1765915334294,-42,102,-4,0,0,0,0,0
557,1765915334541,26,196,19,0,0,0,0,0
558,1765915334625,-31,208,-12,0,0,0,0,0
559,1765915334874,-78,181,-25,0,0,0,0,0
560,1765915334958,-11,178,15,0,0,0,0,0
561,1765915335192,21,67,-16,0,0,0,0,0
562,1765915335325,-29,67,22,0,0,0,0,0
563,1765915335475,13,26,-67,0,0,0,0,0
564,1765915335674,9,46,19,0,0,0,0,0
565,1765915335807,-66,37,16,0,0,0,0,0
566,1765915336023,-33,42,12,0,0,0,0,0
567,1765915336107,59,45,-14,0,0,0,0,0
568,1765915336340,-34,39,3,0,0,0,0,0
569,1765915336440,-43,65,-12,0,0,0,0,0
570,1765915336474,7,51,-19,0,0,0,0,0
571,1765915336790,-23,-66,-35,0,0,0,0,0
572,1765915336956,-9,-97,16,0,0,0,0,0
573,1765915337156,49,-109,3,0,0,0,0,0
574,1765915337289,-26,-108,-37,0,0,0,0,0
575,1765915337490,17,-116,-2,0,0,0,0,0
576,1765915337589,-5,-114,32,0,0,0,0,0
577,1765915337806,14,-95,-17,0,0,0,0,0
578,1765915337839,7,-91,28,0,0,0,0,0
579,1765915337939,24,-92,12,0,0,0,0,0
580,1765915338138,23,-90,8,0,0,0,0,0
581,1765915338271,-27,-90,15,0,0,0,0,0
582,1765915338439,-9,-85,31,0,0,0,0,0
583,1765915338638,15,-76,12,0,0,0,0,0
584,1765915338773,2,-54,16,0,0,0,0,0
585,1765915338988,9,-57,30,0,0,0,0,0
586,1765915339055,6,-53,8,0,0,0,0,0
587,1765915339320,-10,-18,15,0,0,0,0,0
588,1765915339421,-8,-25,1,0,0,0,0,0
589,1765915339620,-17,16,26,0,0,0,0,0
590,1765915339754,11,32,-8,0,0,0,0,0
591,1765915339904,-7,51,31,0,0,0,0,0
592,1765915340121,-14,161,-10,0,0,0,0,0
593,1765915340237,-21,191,-26,0,0,0,0,0
594,1765915340453,7,214,20,0,0,0,0,0
595,1765915340536,-58,207,-36,0,0,0,0,0
596,1765915340803,-38,289,1,0,0,0,0,0
597,1765915340853,-1,303,4,0,0,0,0,0
598,1765915341219,-33,324,-1,0,0,0,0,0
599,1765915341419,-73,232,-20,0,0,0,0,0
600,1765915341719,35,169,-56,0,0,0,0,0
601,1765915341936,-38,139,-27,0,0,0,0,0
602,1765915342002,-4,91,24,0,0,0,0,0
603,1765915342268,49,24,-4,0,0,0,0,0
604,1765915342352,-30,-16,17,0,0,0,0,0
605,1765915342568,48,-55,-30,0,0,0,0,0
606,1765915342685,-12,-65,21,0,0,0,0,0
607,1765915342867,42,-123,-9,0,0,0,0,0
608,1765915342935,6,-192,-14,0,0,0,0,0
609,1765915343168,-14,-151,16,0,0,0,0,0
610,1765915343251,30,-174,8,0,0,0,0,0
611,1765915343434,-8,-258,24,0,0,0,0,0
612,1765915343644,10,-263,5,0,0,0,0,0
613,1765915343750,-27,-277,6,0,0,0,0,0
614,1765915343834,6,-274,32,0,0,0,0,0
615,1765915344068,28,-285,-9,0,0,0,0,0
616,1765915344134,-3,-276,9,0,0,0,0,0
617,1765915344301,0,-257,14,0,0,0,0,0
618,1765915344433,3,-265,18,0,0,0,0,0
619,1765915344617,-1,-272,17,0,0,0,0,0
620,1765915344734,-10,-268,10,0,0,0,0,0
621,1765915344866,9,-244,11,0,0,0,0,0
622,1765915345032,11,-218,14,0,0,0,0,0
623,1765915345168,-10,-222,-2,0,0,0,0,0
624,1765915345332,14,-231,28,0,0,0,0,0
625,1765915345633,18,-197,5,0,0,0,0,0
626,1765915345682,-3,-187,9,0,0,0,0,0
627,1765915345914,5,-186,19,0,0,0,0,0
628,1765915345981,2,-192,30,0,0,0,0,0
629,1765915346283,-4,-34,13,0,0,0,0,0
630,1765915346398,2,-46,17,0,0,0,0,0
631,1765915346581,38,-25,13,0,0,0,0,0
632,1765915346715,0,-31,14,0,0,0,0,0
633,1765915346864,-17,-7,-8,0,0,0,0,0
634,1765915346931,-8,-9,4,0,0,0,0,0
635,1765915347147,-3,-2,-1,0,0,0,0,0
636,1765915347231,-7,-5,2,0,0,0,0,0
637,1765915347447,-9,1,4,0,0,0,0,0
638,1765915347531,1,13,4,0,0,0,0,0
639,1765915347666,-12,7,-2,0,0,0,0,0
640,1765915347815,0,9,4,0,0,0,0,0
641,1765915347964,-13,10,8,0,0,0,0,0
642,1765915348113,-13,7,-6,0,0,0,0,0
643,1765915348380,-9,9,2,0,0,0,0,0
644,1765915348480,0,8,2,0,0,0,0,0
645,1765915348696,-7,10,1,0,0,0,0,0
646,1765915348780,-8,8,0,0,0,0,0,0
647,1765915349063,-5,8,2,0,0,0,0,0
648,1765915349113,-4,8,3,0,0,0,0,0
649,1765915349347,-8,12,3,0,0,0,0,0
650,1765915349429,-2,11,2,0,0,0,0,0
651,1765915349712,-5,8,2,0,0,0,0,0
652,1765915349795,-6,9,2,0,0,0,0,0
653,1765915349995,-5,8,1,0,0,0,0,0
654,1765915350079,-5,9,0,0,0,0,0,0
655,1765915350362,-6,8,2,0,0,0,0,0
656,1765915350445,-5,10,1,0,0,0,0,0
657,1765915350645,-5,8,2,0,0,0,0,0
658,1765915350744,-5,12,0,0,0,0,0,0
659,1765915351012,-6,8,2,0,0,0,0,0
660,1765915351212,-7,9,1,0,0,0,0,0
661,1765915351312,-5,9,0,0,0,0,0,0
662,1765915351527,-5,11,1,0,0,0,0,0
663,1765915351628,-5,10,3,0,0,0,0,0
664,1765915351861,-7,8,2,0,0,0,0,0
665,1765915351944,-6,9,3,0,0,0,0,0
666,1765915352161,-6,10,3,0,0,0,0,0
667,1765915352277,-6,9,1,0,0,0,0,0
668,1765915352479,-7,8,0,0,0,0,0,0
669,1765915352576,-7,10,0,0,0,0,0,0
670,1765915352761,-7,10,3,0,0,0,0,0
671,1765915352926,-5,10,2,0,0,0,0,0
672,1765915353093,-3,9,1,0,0,0,0,0
673,1765915353243,-3,9,2,0,0,0,0,0
674,1765915353392,-6,11,1,0,0,0,0,0
675,1765915353593,-7,9,1,0,0,0,0,0
676,1765915353709,-6,9,-1,0,0,0,0,0
677,1765915353942,-5,9,0,0,0,0,0,0
678,1765915354009,-6,9,1,0,0,0,0,0
679,1765915354241,-6,8,1,0,0,0,0,0
680,1765915354358,-6,10,1,0,0,0,0,0
681,1765915354625,-6,9,1,0,0,0,0,0
682,1765915354725,-6,8,1,0,0,0,0,0
683,1765915354859,-7,9,1,0,0,0,0,0
684,1765915355057,-7,8,2,0,0,0,0,0
685,1765915355175,-3,10,1,0,0,0,0,0
686,1765915355392,-5,9,2,0,0,0,0,0
687,1765915355476,-4,9,1,0,0,0,0,0
688,1765915355723,-6,10,1,0,0,0,0,0
689,1765915355808,-6,9,1,0,0,0,0,0
690,1765915356039,-4,8,1,0,0,0,0,0
691,1765915356156,-5,9,2,0,0,0,0,0
692,1765915356340,-4,10,2,0,0,0,0,0
693,1765915356473,-6,10,1,0,0,0,0,0
694,1765915356672,-7,9,1,0,0,0,0,0
695,1765915356839,-4,9,2,0,0,0,0,0
696,1765915356957,-6,9,1,0,0,0,0,0
697,1765915357156,-5,9,2,0,0,0,0,0
698,1765915357190,-2,10,1,0,0,0,0,0
699,1765915357274,-8,9,1,0,0,0,0,0
700,1765915357506,-5,9,1,0,0,0,0,0
701,1765915357573,-5,9,2,0,0,0,0,0
702,1765915357807,-5,9,2,0,0,0,0,0
703,1765915357939,-3,9,2,0,0,0,0,0
704,1765915358123,-5,10,1,0,0,0,0,0
705,1765915358272,-5,10,1,0,0,0,0,0
706,1765915358422,-5,9,1,0,0,0,0,0
707,1765915358623,-5,9,2,0,0,0,0,0
708,1765915358738,-4,10,0,0,0,0,0,0
709,1765915358936,-6,10,1,0,0,0,0,0
710,1765915359036,-5,11,1,0,0,0,0,0
711,1765915359302,-4,9,2,0,0,0,0,0
712,1765915359369,-5,9,3,0,0,0,0,0
713,1765915359603,-6,9,1,0,0,0,0,0
714,1765915359702,-5,11,3,0,0,0,0,0
715,1765915359886,-5,8,2,0,0,0,0,0
716,1765915360052,-6,8,1,0,0,0,0,0
717,1765915360219,-6,9,1,0,0,0,0,0
718,1765915360418,-5,10,1,0,0,0,0,0
719,1765915360520,-5,10,0,0,0,0,0,0
720,1765915360768,-4,10,1,0,0,0,0,0
721,1765915360834,-5,9,2,0,0,0,0,0
722,1765915361068,-5,10,2,0,0,0,0,0
723,1765915361184,-4,10,0,0,0,0,0,0
724,1765915361384,-4,8,1,0,0,0,0,0
725,1765915361517,-6,10,1,0,0,0,0,0
726,1765915361683,-5,9,1,0,0,0,0,0
727,1765915361850,-7,9,2,0,0,0,0,0
728,1765915361983,-5,9,1,0,0,0,0,0
729,1765915362200,-4,10,1,0,0,0,0,0
730,1765915362300,-4,9,1,0,0,0,0,0
731,1765915362533,-6,10,2,0,0,0,0,0
732,1765915362616,-6,8,1,0,0,0,0,0
733,1765915362866,-4,9,1,0,0,0,0,0
734,1765915362983,-5,8,1,0,0,0,0,0
735,1765915363165,-8,9,2,0,0,0,0,0
736,1765915363315,-6,9,1,0,0,0,0,0
737,1765915363450,-5,10,1,0,0,0,0,0
738,1765915363482,-3,8,2,0,0,0,0,0
739,1765915363665,-7,8,2,0,0,0,0,0
740,1765915363783,-5,8,1,0,0,0,0,0
741,1765915364015,-6,10,1,0,0,0,0,0
742,1765915364099,-3,8,1,0,0,0,0,0
743,1765915364331,-5,7,1,0,0,0,0,0
744,1765915364465,-5,9,1,0,0,0,0,0
745,1765915364631,-6,9,1,0,0,0,0,0
746,1765915364798,-5,9,1,0,0,0,0,0
747,1765915364965,-6,10,2,0,0,0,0,0
748,1765915365148,-7,9,2,0,0,0,0,0
749,1765915365249,-5,8,1,0,0,0,0,0
750,1765915365564,-7,10,1,0,0,0,0,0
751,1765915365564,-5,9,1,0,0,0,0,0
752,1765915365814,-6,9,0,0,0,0,0,0
753,1765915365898,-5,9,1,0,0,0,0,0
754,1765915366115,-5,9,2,0,0,0,0,0
755,1765915366248,-5,10,1,0,0,0,0,0
756,1765915366429,-7,8,1,0,0,0,0,0
757,1765915366583,-5,9,1,0,0,0,0,0
758,1765915366713,-6,10,2,0,0,0,0,0
759,1765915366945,-5,9,1,0,0,0,0,0
760,1765915367047,-9,9,1,0,0,0,0,0
761,1765915367296,-5,10,2,0,0,0,0,0
762,1765915367379,-6,10,2,0,0,0,0,0
763,1765915367579,-7,10,1,0,0,0,0,0
764,1765915367728,-4,9,1,0,0,0,0,0
765,1765915367895,-5,9,-8,0,0,0,0,0
766,1765915368061,6,7,-9,0,0,0,0,0
767,1765915368196,-7,9,-2,0,0,0,0,0
768,1765915368411,-3,8,0,0,0,0,0,0
769,1765915368528,-6,10,1,0,0,0,0,0
770,1765915368761,-7,9,3,0,0,0,0,0
771,1765915368827,-5,10,2,0,0,0,0,0
772,1765915369045,-8,8,2,0,0,0,0,0
773,1765915369079,-7,10,2,0,0,0,0,0
774,1765915369161,-8,9,3,0,0,0,0,0
775,1765915369379,-6,10,3,0,0,0,0,0
776,1765915369514,-6,8,4,0,0,0,0,0
777,1765915369664,-4,10,0,0,0,0,0,0
778,1765915369863,0,10,1,0,0,0,0,0
779,1765915369979,-10,7,2,0,0,0,0,0
780,1765915370229,-2,10,1,0,0,0,0,0
781,1765915370279,-7,8,1,0,0,0,0,0
782,1765915370544,-8,10,0,0,0,0,0,0
783,1765915370630,-5,9,1,0,0,0,0,0
784,1765915370845,-5,10,1,0,0,0,0,0
785,1765915370978,-6,9,2,0,0,0,0,0
786,1765915371144,-7,9,2,0,0,0,0,0
787,1765915371345,-7,8,2,0,0,0,0,0
788,1765915371461,-5,9,0,0,0,0,0,0
789,1765915371693,-9,10,3,0,0,0,0,0
790,1765915371761,-1,8,1,0,0,0,0,0
791,1765915372028,-6,10,1,0,0,0,0,0
792,1765915372110,-4,10,0,0,0,0,0,0
793,1765915372311,-6,9,1,0,0,0,0,0
794,1765915372444,-4,10,2,0,0,0,0,0
795,1765915372645,-2,10,1,0,0,0,0,0
796,1765915372810,-6,7,2,0,0,0,0,0
797,1765915372943,-4,10,1,0,0,0,0,0
798,1765915373143,-11,10,11,0,0,0,0,0
799,1765915373242,-14,8,7,0,0,0,0,0
800,1765915373492,-5,9,1,0,0,0,0,0
801,1765915373576,-6,9,1,0,0,0,0,0
802,1765915373793,-6,8,1,0,0,0,0,0
803,1765915373909,-5,8,1,0,0,0,0,0
804,1765915374125,-6,10,1,0,0,0,0,0
805,1765915374275,-4,8,1,0,0,0,0,0
806,1765915374408,-5,9,2,0,0,0,0,0
807,1765915374609,-6,9,2,0,0,0,0,0
808,1765915374725,-6,7,2,0,0,0,0,0
809,1765915374959,-4,10,1,0,0,0,0,0
810,1765915375010,-6,8,0,0,0,0,0,0
811,1765915376191,-7,9,1,0,0,0,0,0
812,1765915376407,-5,10,2,0,0,0,0,0
813,1765915376474,-6,8,2,0,0,0,0,0
814,1765915376690,-6,9,0,0,0,0,0,0
815,1765915376773,-5,9,2,0,0,0,0,0
816,1765915377023,-6,11,1,0,0,0,0,0
817,1765915377090,-7,10,1,0,0,0,0,0
818,1765915377377,-5,9,1,0,0,0,0,0
819,1765915377390,-7,9,2,0,0,0,0,0
820,1765915377589,-6,9,3,0,0,0,0,0
821,1765915377722,-6,9,2,0,0,0,0,0
822,1765915377889,-6,9,1,0,0,0,0,0
823,1765915378006,-5,8,1,0,0,0,0,0
824,1765915378173,-5,10,1,0,0,0,0,0
825,1765915378357,-6,8,2,0,0,0,0,0
826,1765915378455,-8,8,0,0,0,0,0,0
827,1765915378638,-5,10,1,0,0,0,0,0
828,1765915378738,-5,9,2,0,0,0,0,0
829,1765915378969,-7,7,3,0,0,0,0,0
830,1765915379052,-4,10,2,0,0,0,0,0
831,1765915379254,-5,9,0,0,0,0,0,0
832,1765915379336,-4,9,1,0,0,0,0,0
833,1765915379636,-4,10,255,0,0,0,0,0
834,1765915379703,-6,9,2,0,0,0,0,0
835,1765915379919,-6,9,2,0,0,0,0,0
836,1765915380035,-7,9,0,0,0,0,0,0
837,1765915380236,-6,9,2,0,0,0,0,0
838,1765915380302,-7,10,1,0,0,0,0,0
839,1765915380535,-5,10,0,0,0,0,0,0
840,1765915380619,-5,9,1,0,0,0,0,0
841,1765915380835,-6,10,1,0,0,0,0,0
842,1765915380902,-6,9,2,0,0,0,0,0
843,1765915381151,-6,8,0,0,0,0,0,0
844,1765915381218,-4,9,1,0,0,0,0,0
845,1765915381435,-5,8,2,0,0,0,0,0
846,1765915381535,-5,9,1,0,0,0,0,0
847,1765915381750,-5,8,2,0,0,0,0,0
848,1765915381834,-6,9,2,0,0,0,0,0
849,1765915382050,-5,8,2,0,0,0,0,0
850,1765915382166,-6,8,2,0,0,0,0,0
851,1765915382367,-4,10,0,0,0,0,0,0
852,1765915382466,-5,10,1,0,0,0,0,0
853,1765915382650,-5,9,1,0,0,0,0,0
854,1765915382800,-5,9,1,0,0,0,0,0
855,1765915382966,-6,9,0,0,0,0,0,0
856,1765915384809,-4,9,2,0,0,0,0,0
857,1765915384810,-7,9,2,0,0,0,0,0
858,1765915384810,-4,11,1,0,0,0,0,0
859,1765915384810,-6,8,2,0,0,0,0,0
860,1765915384810,-5,10,0,0,0,0,0,0
861,1765915384810,-5,10,0,0,0,0,0,0
862,1765915384811,-5,12,2,0,0,0,0,0
863,1765915384811,-4,9,3,0,0,0,0,0
864,1765915384811,-5,8,2,0,0,0,0,0
865,1765915384811,-6,9,2,0,0,0,0,0
866,1765915384811,-3,7,2,0,0,0,0,0
867,1765915384964,-5,9,1,0,0,0,0,0
868,1765915385097,-5,9,2,0,0,0,0,0
869,1765915385231,-6,10,0,0,0,0,0,0
870,1765915385381,-5,10,1,0,0,0,0,0
871,1765915385580,-5,8,3,0,0,0,0,0
872,1765915385680,-6,8,2,0,0,0,0,0
873,1765915385863,-4,10,1,0,0,0,0,0
874,1765915385996,-8,10,1,0,0,0,0,0
875,1765915386229,-5,9,1,0,0,0,0,0
876,1765915386296,-4,10,2,0,0,0,0,0
877,1765915386496,-4,10,2,0,0,0,0,0
878,1765915386613,-6,8,1,0,0,0,0,0
879,1765915386812,-6,10,1,0,0,0,0,0
880,1765915386912,-3,9,1,0,0,0,0,0
881,1765915387096,-6,7,2,0,0,0,0,0
882,1765915387229,-6,9,2,0,0,0,0,0
883,1765915387429,-6,11,0,0,0,0,0,0
884,1765915387512,-6,10,1,0,0,0,0,0
885,1765915387746,-3,10,2,0,0,0,0,0
886,1765915387828,-6,8,2,0,0,0,0,0
887,1765915388028,-3,9,1,0,0,0,0,0
888,1765915388127,-6,9,1,0,0,0,0,0
889,1765915388361,-6,10,2,0,0,0,0,0
890,1765915388428,-4,9,0,0,0,0,0,0
891,1765915388677,-3,8,1,0,0,0,0,0
892,1765915388746,-5,10,1,0,0,0,0,0
893,1765915388978,-5,8,2,0,0,0,0,0
894,1765915389044,-5,8,2,0,0,0,0,0
895,1765915389294,-5,9,2,0,0,0,0,0
896,1765915389361,-6,9,1,0,0,0,0,0
897,1765915389576,-6,9,2,0,0,0,0,0
898,1765915389676,-5,9,1,0,0,0,0,0
899,1765915389893,-6,8,2,0,0,0,0,0
900,1765915389960,-5,10,0,0,0,0,0,0
901,1765915390194,-6,8,2,0,0,0,0,0
902,1765915390294,-5,8,1,0,0,0,0,0
903,1765915390475,-7,10,2,0,0,0,0,0
904,1765915390593,-5,10,2,0,0,0,0,0
905,1765915390791,-6,8,1,0,0,0,0,0
906,1765915390924,-6,9,1,0,0,0,0,0
907,1765915391108,-5,8,2,0,0,0,0,0
908,1765915391259,-5,9,2,0,0,0,0,0
909,1765915391425,-6,8,2,0,0,0,0,0
910,1765915391591,-6,10,2,0,0,0,0,0
911,1765915391724,-5,9,1,0,0,0,0,0
912,1765915391925,-4,9,1,0,0,0,0,0
913,1765915392041,-5,10,1,0,0,0,0,0
914,1765915392224,-7,10,1,0,0,0,0,0
915,1765915392325,-5,9,2,0,0,0,0,0
916,1765915392558,-6,9,1,0,0,0,0,0
917,1765915392624,-5,10,1,0,0,0,0,0
918,1765915392640,-6,9,1,0,0,0,0,0
919,1765915392858,-6,8,2,0,0,0,0,0
920,1765915392941,-5,9,3,0,0,0,0,0
921,1765915393174,-4,9,1,0,0,0,0,0
922,1765915393273,-6,8,1,0,0,0,0,0
923,1765915393491,-3,9,2,0,0,0,0,0
924,1765915393573,-6,10,2,0,0,0,0,0
925,1765915393775,-5,8,2,0,0,0,0,0
926,1765915393907,-5,10,1,0,0,0,0,0
927,1765915394106,-6,9,0,0,0,0,0,0
928,1765915394223,-7,10,1,0,0,0,0,0
929,1765915394389,-5,10,1,0,0,0,0,0
930,1765915394539,-5,9,1,0,0,0,0,0
931,1765915394688,-6,8,2,0,0,0,0,0
932,1765915394839,-6,9,1,0,0,0,0,0
933,1765915395005,-5,9,1,0,0,0,0,0
934,1765915395155,-6,8,2,0,0,0,0,0
935,1765915395305,-6,9,1,0,0,0,0,0
936,1765915395472,-5,9,0,0,0,0,0,0
937,1765915395622,-5,9,2,0,0,0,0,0
938,1765915395822,-5,9,1,0,0,0,0,0
939,1765915395921,-5,9,3,0,0,0,0,0
940,1765915396222,-6,11,3,0,0,0,0,0
941,1765915396437,-5,9,1,0,0,0,0,0
942,1765915396521,-6,9,0,0,0,0,0,0
943,1765915396754,-6,10,1,0,0,0,0,0
944,1765915396837,-5,9,1,0,0,0,0,0
945,1765915397071,-5,9,2,0,0,0,0,0
946,1765915397121,-6,8,1,0,0,0,0,0
947,1765915397371,-6,9,2,0,0,0,0,0
948,1765915397453,-5,8,0,0,0,0,0,0
949,1765915397687,-6,10,2,0,0,0,0,0
950,1765915397754,-6,9,1,0,0,0,0,0
951,1765915397987,-6,8,2,0,0,0,0,0
952,1765915398086,-4,10,1,0,0,0,0,0
953,1765915398303,-4,8,1,0,0,0,0,0
954,1765915398370,-6,10,1,0,0,0,0,0
955,1765915398586,-5,11,1,0,0,0,0,0
956,1765915398703,-6,8,0,0,0,0,0,0
957,1765915398903,-6,8,2,0,0,0,0,0
958,1765915399003,-4,9,3,0,0,0,0,0
959,1765915399269,-7,9,2,0,0,0,0,0
960,1765915399319,-6,9,0,0,0,0,0,0
961,1765915399486,-6,10,1,0,0,0,0,0
962,1765915399619,-6,9,1,0,0,0,0,0
963,1765915399802,-5,9,2,0,0,0,0,0
964,1765915399952,-5,9,2,0,0,0,0,0
965,1765915400103,-5,10,1,0,0,0,0,0
966,1765915400269,-6,9,1,0,0,0,0,0
967,1765915400418,-6,9,1,0,0,0,0,0
968,1765915400568,-6,9,1,0,0,0,0,0
969,1765915400717,-7,9,1,0,0,0,0,0
970,1765915400901,-5,10,0,0,0,0,0,0
971,1765915401033,-5,10,3,0,0,0,0,0
972,1765915401202,-6,10,2,0,0,0,0,0
973,1765915401317,-5,10,2,0,0,0,0,0
974,1765915401515,-8,9,2,0,0,0,0,0
975,1765915401616,-5,10,0,0,0,0,0,0
976,1765915401834,-7,10,1,0,0,0,0,0
977,1765915401934,-5,10,2,0,0,0,0,0
978,1765915402149,-5,9,2,0,0,0,0,0
979,1765915402233,-6,8,2,0,0,0,0,0
980,1765915402450,-5,10,1,0,0,0,0,0
981,1765915402550,-6,9,1,0,0,0,0,0
982,1765915402783,-6,9,1,0,0,0,0,0
983,1765915402850,-5,9,1,0,0,0,0,0
984,1765915403065,-5,9,2,0,0,0,0,0
985,1765915403165,-4,9,2,0,0,0,0,0
986,1765915403382,-3,10,1,0,0,0,0,0
987,1765915403482,-5,10,0,0,0,0,0,0
988,1765915403681,-6,10,1,0,0,0,0,0
989,1765915403782,-5,9,1,0,0,0,0,0
990,1765915403998,-6,9,2,0,0,0,0,0
991,1765915404115,-5,9,2,0,0,0,0,0
992,1765915404298,-6,9,2,0,0,0,0,0
993,1765915404448,-5,10,1,0,0,0,0,0
994,1765915404614,-7,9,1,0,0,0,0,0
995,1765915404731,-6,9,-1,0,0,0,0,0
996,1765915404914,-7,8,1,0,0,0,0,0
997,1765915405064,-7,9,2,0,0,0,0,0
998,1765915405231,-7,9,2,0,0,0,0,0
999,1765915405364,-8,9,1,0,0,0,0,0
1000,1765915405530,-4,8,2,0,0,0,0,0
1001,1765915405646,-6,9,2,0,0,0,0,0
1002,1765915405880,-5,10,2,0,0,0,0,0
1003,1765915406063,-5,10,-1,0,0,0,0,0
1004,1765915406164,-6,9,1,0,0,0,0,0
1005,1765915406346,-5,8,1,0,0,0,0,0
1006,1765915406462,-5,9,1,0,0,0,0,0
1007,1765915406530,-5,9,1,0,0,0,0,0
1008,1765915406762,-5,9,2,0,0,0,0,0
1009,1765915406829,-6,8,1,0,0,0,0,0
1010,1765915407045,-5,9,0,0,0,0,0,0
1011,1765915407113,-6,10,1,0,0,0,0,0
1012,1765915407396,-6,9,2,0,0,0,0,0
1013,1765915407495,-5,10,1,0,0,0,0,0
1014,1765915407695,-5,10,2,0,0,0,0,0
1015,1765915407778,-6,9,2,0,0,0,0,0
1016,1765915408044,-7,9,1,0,0,0,0,0
1017,1765915408162,-4,9,0,0,0,0,0,0
1018,1765915408345,-7,8,0,0,0,0,0,0
1019,1765915408445,16378,9,1,0,0,0,0,0
1020,1765915408694,-4,9,1,0,0,0,0,0
1021,1765915408778,-6,10,1,0,0,0,0,0
1022,1765915408980,-6,7,2,0,0,0,0,0
1023,1765915409078,-7,9,3,0,0,0,0,0
1024,1765915409328,-6,8,1,0,0,0,0,0
1025,1765915409427,-6,9,2,0,0,0,0,0
1026,1765915409628,-4,10,2,0,0,0,0,0
1027,1765915409727,-7,9,2,0,0,0,0,0
1028,1765915409961,-5,10,1,0,0,0,0,0
1029,1765915410197,-8,9,2,0,0,0,0,0
1030,1765915410259,-5,9,2,0,0,0,0,0
1031,1765915410376,-7,8,1,0,0,0,0,0
1032,1765915410628,-6,9,1,0,0,0,0,0
1033,1765915410745,-5,10,0,0,0,0,0,0
1034,1765915410910,-5,9,2,0,0,0,0,0
1035,1765915411044,-5,8,1,0,0,0,0,0
1036,1765915411275,-5,10,1,0,0,0,0,0
1037,1765915411407,-6,9,2,0,0,0,0,0
1038,1765915411724,-5,9,0,0,0,0,0,0
1039,1765915411841,-5,10,2,0,0,0,0,0
1040,1765915412026,-5,9,2,0,0,0,0,0
1041,1765915412173,-6,10,1,0,0,0,0,0
1042,1765915412306,-5,9,2,0,0,0,0,0
1043,1765915412457,-7,10,1,0,0,0,0,0
1044,1765915412641,-6,9,2,0,0,0,0,0
1045,1765915412806,-5,9,1,0,0,0,0,0
1046,1765915412941,-7,10,1,0,0,0,0,0
1047,1765915413108,-5,9,1,0,0,0,0,0
1048,1765915413224,-4,9,1,0,0,0,0,0
1049,1765915413275,-7,9,1,0,0,0,0,0
1050,1765915413458,-5,9,2,0,0,0,0,0
1051,1765915413558,-4,9,2,0,0,0,0,0
1052,1765915413741,-6,9,0,0,0,0,0,0
1053,1765915413824,-4,9,1,0,0,0,0,0
1054,1765915414091,-6,8,0,0,0,0,0,0
1055,1765915414207,-6,9,1,0,0,0,0,0
1056,1765915414540,-6,8,2,0,0,0,0,0
1057,1765915414706,-5,9,2,0,0,0,0,0
1058,1765915414840,-4,9,1,0,0,0,0,0
1059,1765915414990,-5,10,0,0,0,0,0,0
1060,1765915415172,-6,9,1,0,0,0,0,0
1061,1765915415323,-6,10,0,0,0,0,0,0
1062,1765915415523,-7,8,2,0,0,0,0,0
1063,1765915415623,-6,10,1,0,0,0,0,0
1064,1765915415839,-7,10,1,0,0,0,0,0
1065,1765915415939,-4,8,2,0,0,0,0,0
1066,1765915416172,-10,8,3,0,0,0,0,0
1067,1765915416472,-5,8,1,0,0,0,0,0
1068,1765915416638,-1,9,1,0,0,0,0,0
1069,1765915416806,-8,7,1,0,0,0,0,0
1070,1765915417007,-2,12,255,0,0,0,0,0
1071,1765915417088,-6,10,1,0,0,0,0,0
1072,1765915417321,-3,5,3,0,0,0,0,0
1073,1765915417422,-3,6,4,0,0,0,0,0
1074,1765915417655,-9,10,0,0,0,0,0,0
1075,1765915417772,-3,8,0,0,0,0,0,0
1076,1765915417938,-6,10,2,0,0,0,0,0
1077,1765915418171,-5,9,1,0,0,0,0,0
1078,1765915418270,-6,8,1,0,0,0,0,0
1079,1765915418503,-6,10,1,0,0,0,0,0
1080,1765915418587,-8,4,2,0,0,0,0,0
1081,1765915418838,-5,6,2,0,0,0,0,0
1082,1765915418970,-2,16,0,0,0,0,0,0
1083,1765915419120,-11,-3,4,0,0,0,0,0
1084,1765915419354,-27,21,1,0,0,0,0,0
1085,1765915419437,-7,-14,3,0,0,0,0,0
1086,1765915419688,-1,-10,2,0,0,0,0,0
1087,1765915419836,-12,-3,-1,0,0,0,0,0
1088,1765915420003,-13,-9,19,0,0,0,0,0
1089,1765915420253,-3,-23,10,0,0,0,0,0
1090,1765915420336,-13,-18,10,0,0,0,0,0
1091,1765915420552,-8,-17,8,0,0,0,0,0
1092,1765915420686,-8,-30,4,0,0,0,0,0
1093,1765915420869,-3,-22,16,0,0,0,0,0
1094,1765915421204,-31,5,-7,0,0,0,0,0
1095,1765915421204,8,10,5,0,0,0,0,0
1096,1765915421436,-13,-43,6,0,0,0,0,0
1097,1765915421535,-7,-11,-3,0,0,0,0,0
1098,1765915421752,-10,-20,-1,0,0,0,0,0
1099,1765915421902,-12,5,3,0,0,0,0,0
1100,1765915422037,3,-15,6,0,0,0,0,0
1101,1765915422235,-19,-8,0,0,0,0,0,0
1102,1765915422369,-2,-3,-2,0,0,0,0,0
1103,1765915422600,-1,0,2,0,0,0,0,0
1104,1765915422683,-7,5,3,0,0,0,0,0
1105,1765915422901,-3,-2,-2,0,0,0,0,0
1106,1765915423002,-2,3,2,0,0,0,0,0
1107,1765915423217,-8,6,3,0,0,0,0,0
1108,1765915423383,-4,-1,-1,0,0,0,0,0
1109,1765915423516,-2,19,2,0,0,0,0,0
1110,1765915423750,-7,12,1,0,0,0,0,0
1111,1765915423850,-26,25,-4,0,0,0,0,0
1112,1765915424082,-23,-17,1,0,0,0,0,0
1113,1765915424182,25,8,-2,0,0,0,0,0
1114,1765915424383,-16,3,6,0,0,0,0,0
1115,1765915424582,-14,-15,6,0,0,0,0,0
1116,1765915424716,-1,9,-6,0,0,0,0,0
1117,1765915424932,-2,-7,5,0,0,0,0,0
1118,1765915424998,-1,-21,4,0,0,0,0,0
1119,1765915425265,-9,0,-6,0,0,0,0,0
1120,1765915425348,-4,15,2,0,0,0,0,0
1121,1765915425565,2,-17,8,0,0,0,0,0
1122,1765915425714,-7,0,-4,0,0,0,0,0
1123,1765915425881,-5,4,0,0,0,0,0,0
1124,1765915426065,-7,6,3,0,0,0,0,0
1125,1765915426181,-3,9,1,0,0,0,0,0
1126,1765915426398,-4,6,1,0,0,0,0,0
1127,1765915426481,-12,11,0,0,0,0,0,0
1128,1765915426747,-7,8,2,0,0,0,0,0
1129,1765915426813,-4,8,3,0,0,0,0,0
1130,1765915427030,-8,8,2,0,0,0,0,0
1131,1765915427180,-3,9,2,0,0,0,0,0
1132,1765915427363,-7,8,1,0,0,0,0,0
1133,1765915427546,-4,9,1,0,0,0,0,0
1134,1765915427663,-6,7,0,0,0,0,0,0
1135,1765915427897,-6,11,0,0,0,0,0,0
1136,1765915427979,-3,9,2,0,0,0,0,0
1137,1765915428213,-6,9,2,0,0,0,0,0
1138,1765915428330,-4,9,1,0,0,0,0,0
1139,1765915428512,-4,8,2,0,0,0,0,0
1140,1765915428712,1,11,1,0,0,0,0,0
1141,1765915428846,-9,7,2,0,0,0,0,0
1142,1765915429046,-2,11,2,0,0,0,0,0
1143,1765915429129,-11,9,2,0,0,0,0,0
1144,1765915429395,-5,10,1,0,0,0,0,0
1145,1765915429478,-7,8,1,0,0,0,0,0
1146,1765915429694,-1,10,1,0,0,0,0,0
1147,1765915429827,-11,9,2,0,0,0,0,0
1148,1765915429995,-4,9,3,0,0,0,0,0
1149,1765915430211,-5,9,1,0,0,0,0,0
1150,1765915430311,-6,8,1,0,0,0,0,0
1151,1765915430544,-5,10,2,0,0,0,0,0
1152,1765915430627,-7,9,2,0,0,0,0,0
1153,1765915430877,-6,9,2,0,0,0,0,0
1154,1765915430977,-4,9,1,0,0,0,0,0
1155,1765915431161,-6,10,0,0,0,0,0,0
1156,1765915431310,-7,9,1,0,0,0,0,0
1157,1765915431493,-7,8,1,0,0,0,0,0
1158,1765915431677,-5,9,0,0,0,0,0,0
1159,1765915431793,-5,9,1,0,0,0,0,0
1160,1765915432127,-5,9,2,0,0,0,0,0
1161,1765915432127,-6,9,2,0,0,0,0,0
1162,1765915432343,-4,9,1,0,0,0,0,0
1163,1765915432458,-7,9,2,0,0,0,0,0
1164,1765915432642,-5,9,1,0,0,0,0,0
1165,1765915432810,-6,9,1,0,0,0,0,0
1166,1765915432976,-6,9,2,0,0,0,0,0
1167,1765915433159,-6,10,1,0,0,0,0,0
1168,1765915433258,-7,9,2,0,0,0,0,0
1169,1765915433491,-6,8,2,0,0,0,0,0
1170,1765915433577,-4,10,1,0,0,0,0,0
1171,1765915433824,-6,8,1,0,0,0,0,0
1172,1765915433943,-6,9,0,0,0,0,0,0
1173,1765915434125,-6,9,1,0,0,0,0,0
1174,1765915434257,-5,8,1,0,0,0,0,0
1175,1765915434440,-6,9,2,0,0,0,0,0
1176,1765915434623,-7,9,1,0,0,0,0,0
1177,1765915434740,-6,9,2,0,0,0,0,0
1178,1765915434956,-6,9,2,0,0,0,0,0
1179,1765915435057,-6,10,2,0,0,0,0,0
1180,1765915435307,-6,8,1,0,0,0,0,0
1181,1765915435390,-6,9,2,0,0,0,0,0
1182,1765915435590,-7,9,0,0,0,0,0,0
1183,1765915435906,-3,9,1,0,0,0,0,0
1184,1765915436072,-6,9,2,0,0,0,0,0
1185,1765915436206,-5,10,1,0,0,0,0,0
1186,1765915436438,-5,9,1,0,0,0,0,0
1187,1765915436539,-6,9,1,0,0,0,0,0
1188,1765915436772,-7,10,1,0,0,0,0,0
1189,1765915436839,-4,9,2,0,0,0,0,0
1190,1765915437087,-6,10,2,0,0,0,0,0
1191,1765915437222,-5,8,2,0,0,0,0,0
1192,1765915437388,-5,9,1,0,0,0,0,0
1193,1765915437538,-4,9,0,0,0,0,0,0
1194,1765915437687,-6,9,1,0,0,0,0,0
1195,1765915437920,-6,8,2,0,0,0,0,0
1196,1765915438005,-5,8,2,0,0,0,0,0
1197,1765915438255,-6,8,2,0,0,0,0,0
1198,1765915438337,-6,9,1,0,0,0,0,0
1199,1765915438570,-4,8,2,0,0,0,0,0
1200,1765915438704,-7,9,3,0,0,0,0,0
1201,1765915438870,-5,9,2,0,0,0,0,0
1202,1765915439053,-6,9,2,0,0,0,0,0
1203,1765915439387,-5,9,1,0,0,0,0,0
1204,1765915439486,-4,8,1,0,0,0,0,0
1205,1765915439720,-4,9,2,0,0,0,0,0
1206,1765915439819,-5,10,1,0,0,0,0,0
1207,1765915440052,-5,9,2,0,0,0,0,0
1208,1765915440119,-6,9,0,0,0,0,0,0
1209,1765915440335,-6,11,2,0,0,0,0,0
1210,1765915440453,-6,8,1,0,0,0,0,0
1211,1765915440618,-7,9,2,0,0,0,0,0
1212,1765915440702,-5,10,2,0,0,0,0,0
1213,1765915440919,-5,10,1,0,0,0,0,0
1214,1765915441002,-6,9,1,0,0,0,0,0
1215,1765915441301,-6,9,1,0,0,0,0,0
1216,1765915441434,-5,9,1,0,0,0,0,0
1217,1765915441601,16378,9,1,0,0,0,0,0
1218,1765915441734,-6,8,1,0,0,0,0,0
1219,1765915441885,-6,9,1,0,0,0,0,0
1220,1765915441951,-5,8,2,0,0,0,0,0
1221,1765915442168,-4,9,3,0,0,0,0,0
1222,1765915442233,-4,10,2,0,0,0,0,0
1223,1765915442451,-6,8,3,0,0,0,0,0
1224,1765915442533,-8,8,2,0,0,0,0,0
1225,1765915442667,-5,10,1,0,0,0,0,0
1226,1765915442850,-5,9,2,0,0,0,0,0
1227,1765915443095,-5,8,2,0,0,0,0,0
1228,1765915443133,-7,9,2,0,0,0,0,0
1229,1765915443267,-6,8,2,0,0,0,0,0
1230,1765915443366,-5,10,0,0,0,0,0,0
1231,1765915443499,-5,10,1,0,0,0,0,0
1232,1765915443666,-5,8,1,0,0,0,0,0
1233,1765915443783,-5,9,2,0,0,0,0,0
1234,1765915444067,-5,9,2,0,0,0,0,0
1235,1765915444132,-6,9,2,0,0,0,0,0
1236,1765915444365,-6,9,1,0,0,0,0,0
1237,1765915444432,-4,10,1,0,0,0,0,0
1238,1765915444732,-6,10,0,0,0,0,0,0
1239,1765915444832,-8,9,1,0,0,0,0,0
1240,1765915445033,-5,9,1,0,0,0,0,0
1241,1765915445115,-4,9,1,0,0,0,0,0
1242,1765915445380,-5,9,1,0,0,0,0,0
1243,1765915445513,-4,8,1,0,0,0,0,0
1244,1765915445664,-3,10,2,0,0,0,0,0
1245,1765915445814,-9,9,2,0,0,0,0,0
1246,1765915446031,-7,10,1,0,0,0,0,0
1247,1765915446215,-4,9,1,0,0,0,0,0
1248,1765915446330,-6,10,2,0,0,0,0,0
1249,1765915446513,-5,9,2,0,0,0,0,0
1250,1765915446613,-5,7,1,0,0,0,0,0
1251,1765915446680,-6,10,2,0,0,0,0,0
1252,1765915446880,-7,9,2,0,0,0,0,0
1253,1765915446963,-8,11,2,0,0,0,0,0
1254,1765915447196,-5,10,1,0,0,0,0,0
1255,1765915447248,-7,8,1,0,0,0,0,0
1256,1765915447546,-6,8,1,0,0,0,0,0
1257,1765915447613,-7,10,2,0,0,0,0,0
1258,1765915447846,-5,11,3,0,0,0,0,0
1259,1765915447896,-9,8,-1,0,0,0,0,0
1260,1765915448013,-5,9,1,0,0,0,0,0
1261,1765915448213,-5,9,1,0,0,0,0,0
1262,1765915448330,-6,8,1,0,0,0,0,0
1263,1765915448495,-5,9,1,0,0,0,0,0
1264,1765915448613,-7,10,2,0,0,0,0,0
1265,1765915448812,-5,9,1,0,0,0,0,0
1266,1765915448878,-7,9,2,0,0,0,0,0
1267,1765915449095,-8,9,1,0,0,0,0,0
1268,1765915449262,-4,11,1,0,0,0,0,0
1269,1765915449428,-2,19,-1,0,0,0,0,0
1270,1765915449661,-27,4,4,0,0,0,0,0
1271,1765915449761,-23,-15,8,0,0,0,0,0
1272,1765915449961,11,28,-3,0,0,0,0,0
1273,1765915450177,-9,-23,11,0,0,0,0,0
1274,1765915450295,-10,-12,5,0,0,0,0,0
1275,1765915450527,-3,-11,3,0,0,0,0,0
1276,1765915450593,-9,-24,11,0,0,0,0,0
1277,1765915450860,-13,-46,-6,0,0,0,0,0
1278,1765915451060,-20,-58,11,0,0,0,0,0
1279,1765915451160,-8,-38,8,0,0,0,0,0
1280,1765915451391,-7,-57,-6,0,0,0,0,0
1281,1765915451475,6,-47,14,0,0,0,0,0
1282,1765915451542,37,-219,1,0,0,0,0,0
1283,1765915451725,-40,-282,9,0,0,0,0,0
1284,1765915451926,29,-324,-35,0,0,0,0,0
1285,1765915452025,25,-380,18,0,0,0,0,0
1286,1765915452308,39,-438,31,0,0,0,0,0
1287,1765915452459,-10,-443,27,0,0,0,0,0
1288,1765915452593,17,-428,26,0,0,0,0,0
1289,1765915452843,-1,-413,23,0,0,0,0,0
1290,1765915452909,3,-437,20,0,0,0,0,0
1291,1765915452991,8,-290,-21,0,0,0,0,0
1292,1765915453175,22,-324,20,0,0,0,0,0
1293,1765915453358,2,-314,42,0,0,0,0,0
1294,1765915453475,-4,-344,-5,0,0,0,0,0
1295,1765915453741,38,-245,-3,0,0,0,0,0
1296,1765915454067,34,-216,59,0,0,0,0,0
1297,1765915454073,-64,-180,-5,0,0,0,0,0
1298,1765915454275,-15,-180,2,0,0,0,0,0
1299,1765915454342,19,-189,25,0,0,0,0,0
1300,1765915454408,-4,-221,8,0,0,0,0,0
1301,1765915454608,-6,-193,38,0,0,0,0,0
1302,1765915454757,54,-204,9,0,0,0,0,0
1303,1765915454907,-44,-210,12,0,0,0,0,0
1304,1765915455173,-25,-177,-10,0,0,0,0,0
1305,1765915455275,22,-136,-66,0,0,0,0,0
1306,1765915455473,-14,-101,81,0,0,0,0,0
1307,1765915455640,-17,-96,-39,0,0,0,0,0
1308,1765915455806,-4,-68,-22,0,0,0,0,0
1309,1765915456040,-19,-48,35,0,0,0,0,0
1310,1765915456188,-75,-68,-30,0,0,0,0,0
1311,1765915456339,54,-54,-39,0,0,0,0,0
1312,1765915456621,-3,-9,-51,0,0,0,0,0
1313,1765915456688,-32,-9,-26,0,0,0,0,0
1314,1765915456905,12,16,16,0,0,0,0,0
1315,1765915457055,-1,20,-21,0,0,0,0,0
1316,1765915457254,-3,-1,-16,0,0,0,0,0
1317,1765915457488,59,13,1,0,0,0,0,0
1318,1765915457572,-17,41,27,0,0,0,0,0
1319,1765915457787,1,19,-50,0,0,0,0,0
1320,1765915458020,45,24,43,0,0,0,0,0
1321,1765915458121,-19,48,-73,0,0,0,0,0
1322,1765915458352,-2,56,-52,0,0,0,0,0
1323,1765915458470,61,36,26,0,0,0,0,0
1324,1765915458686,17,73,53,0,0,0,0,0
1325,1765915458919,40,41,-50,0,0,0,0,0
1326,1765915458986,-14,59,-12,0,0,0,0,0
1327,1765915459219,-36,31,-9,0,0,0,0,0
1328,1765915459420,68,13,-43,0,0,0,0,0
1329,1765915459552,-41,59,-24,0,0,0,0,0
1330,1765915459802,-28,80,-32,0,0,0,0,0
1331,1765915459870,74,89,-11,0,0,0,0,0
1332,1765915460119,-29,-14,-14,0,0,0,0,0
1333,1765915460304,29,-4,-3,0,0,0,0,0
1334,1765915460418,38,-5,-3,0,0,0,0,0
1335,1765915460668,-45,-3,-25,0,0,0,0,0
1336,1765915460735,31,-3,34,0,0,0,0,0
1337,1765915460985,77,-51,-20,0,0,0,0,0
1338,1765915461101,-28,-33,20,0,0,0,0,0
1339,1765915461285,11,-45,5,0,0,0,0,0
1340,1765915461434,-45,-36,-38,0,0,0,0,0
1341,1765915461434,31,-53,-25,0,0,0,0,0
1342,1765915461601,-8,-44,-18,0,0,0,0,0
1343,1765915461767,-16,-28,41,0,0,0,0,0
1344,1765915461901,-22,-39,0,0,0,0,0,0
1345,1765915462134,17,-21,-9,0,0,0,0,0
1346,1765915462218,-36,-13,13,0,0,0,0,0
1347,1765915462450,29,-9,28,0,0,0,0,0
1348,1765915462533,-3,-15,-17,0,0,0,0,0
1349,1765915462750,-15,-22,27,0,0,0,0,0
1350,1765915462865,36,9,5,0,0,0,0,0
1351,1765915463083,-27,6,-8,0,0,0,0,0
1352,1765915463199,50,6,29,0,0,0,0,0
1353,1765915463365,-82,-2,1,0,0,0,0,0
1354,1765915463566,17,27,52,0,0,0,0,0
1355,1765915463682,18,18,-3,0,0,0,0,0
1356,1765915463915,-24,33,-18,0,0,0,0,0
1357,1765915463982,23,25,-26,0,0,0,0,0
1358,1765915464249,88,45,-26,0,0,0,0,0
1359,1765915464332,-27,60,51,0,0,0,0,0
1360,1765915464547,-67,37,-15,0,0,0,0,0
1361,1765915464665,72,37,-56,0,0,0,0,0
1362,1765915465003,-58,32,-2,0,0,0,0,0
1363,1765915465030,-42,-2,-37,0,0,0,0,0
1364,1765915465163,-45,2,8,0,0,0,0,0
1365,1765915465364,-15,28,37,0,0,0,0,0
1366,1765915465464,-16,3,-4,0,0,0,0,0
1367,1765915465715,-9,4,-21,0,0,0,0,0
1368,1765915465780,-15,15,-9,0,0,0,0,0
1369,1765915466014,14,-5,13,0,0,0,0,0
1370,1765915466113,-49,-8,21,0,0,0,0,0
1371,1765915466330,12,-11,20,0,0,0,0,0
1372,1765915466480,-25,-21,7,0,0,0,0,0
1373,1765915466629,20,-8,16,0,0,0,0,0
1374,1765915466830,-4,-7,6,0,0,0,0,0
1375,1765915466929,-13,-6,-18,0,0,0,0,0
1376,1765915467178,18,-21,-34,0,0,0,0,0
1377,1765915467245,-16,-7,2,0,0,0,0,0
1378,1765915467479,1,-1,-1,0,0,0,0,0
1379,1765915467578,10,-6,-18,0,0,0,0,0
1380,1765915467795,1,-5,-16,0,0,0,0,0
1381,1765915467945,-3,-22,4,0,0,0,0,0
1382,1765915468094,-32,14,-11,0,0,0,0,0
1383,1765915468295,-3,-6,5,0,0,0,0,0
1384,1765915468378,1,-19,13,0,0,0,0,0
1385,1765915468645,-5,-20,4,0,0,0,0,0
1386,1765915468711,-13,-20,6,0,0,0,0,0
1387,1765915468944,2,-17,2,0,0,0,0,0
1388,1765915469061,4,-17,-4,0,0,0,0,0
1389,1765915469277,-11,-3,4,0,0,0,0,0
1390,1765915469410,-5,-4,0,0,0,0,0,0
1391,1765915469561,-1,-1,5,0,0,0,0,0
1392,1765915469760,-8,2,-4,0,0,0,0,0
1393,1765915469893,-3,2,6,0,0,0,0,0
1394,1765915470109,0,4,2,0,0,0,0,0
1395,1765915470193,-5,2,-2,0,0,0,0,0
1396,1765915470426,-1,2,6,0,0,0,0,0
1397,1765915470510,-3,7,3,0,0,0,0,0
1398,1765915470742,-5,7,0,0,0,0,0,0
1399,1765915470893,-7,7,2,0,0,0,0,0
1400,1765915471043,-3,7,3,0,0,0,0,0
1401,1765915471276,-8,11,3,0,0,0,0,0
1402,1765915471375,-5,7,0,0,0,0,0,0
1403,1765915471593,-3,8,0,0,0,0,0,0
1404,1765915471692,-3,9,4,0,0,0,0,0
1405,1765915471892,-9,6,3,0,0,0,0,0
1406,1765915472041,-6,10,2,0,0,0,0,0
1407,1765915472225,-8,8,1,0,0,0,0,0
1408,1765915472391,-6,8,2,0,0,0,0,0
1409,1765915472524,-5,9,2,0,0,0,0,0
1410,1765915472758,-5,11,2,0,0,0,0,0
1411,1765915472841,-6,8,1,0,0,0,0,0
1412,1765915473074,-5,10,1,0,0,0,0,0
1413,1765915473174,-9,8,0,0,0,0,0,0
1414,1765915473407,-10,9,1,0,0,0,0,0
1415,1765915473540,-2,9,1,0,0,0,0,0
1416,1765915473691,-10,7,0,0,0,0,0,0
1417,1765915473874,-4,7,2,0,0,0,0,0
1418,1765915473990,-6,12,1,0,0,0,0,0
1419,1765915474224,-3,8,1,0,0,0,0,0
1420,1765915474323,-8,10,2,0,0,0,0,0
1421,1765915474556,-4,8,1,0,0,0,0,0
1422,1765915474640,-7,9,1,0,0,0,0,0
1423,1765915474839,-5,11,1,0,0,0,0,0
1424,1765915474923,-5,8,2,0,0,0,0,0
1425,1765915475155,-5,9,1,0,0,0,0,0
1426,1765915475222,-7,9,2,0,0,0,0,0
1427,1765915475522,-6,9,2,0,0,0,0,0
1428,1765915475688,-5,10,1,0,0,0,0,0
1429,1765915475954,-3,6,2,0,0,0,0,0
1430,1765915475988,-3,8,1,0,0,0,0,0
1431,1765915476121,-5,8,3,0,0,0,0,0
1432,1765915476255,-5,9,2,0,0,0,0,0
1433,1765915476422,-5,9,2,0,0,0,0,0
1434,1765915476571,-6,9,1,0,0,0,0,0
1435,1765915476706,-5,10,1,0,0,0,0,0
1436,1765915476821,-7,8,1,0,0,0,0,0
1437,1765915477021,-5,8,2,0,0,0,0,0
1438,1765915477155,-5,8,3,0,0,0,0,0
1439,1765915477320,-6,6,2,0,0,0,0,0
1440,1765915477470,-4,14,0,0,0,0,0,0
1441,1765915477636,-5,10,2,0,0,0,0,0
1442,1765915477755,-4,21,0,0,0,0,0,0
1443,1765915477922,-13,-6,3,0,0,0,0,0
1444,1765915478089,-24,0,-1,0,0,0,0,0
1445,1765915478236,-10,5,3,0,0,0,0,0
1446,1765915478336,-2,-7,8,0,0,0,0,0
1447,1765915478518,-12,-4,4,0,0,0,0,0
1448,1765915478651,-3,-6,8,0,0,0,0,0
1449,1765915478819,-3,-6,3,0,0,0,0,0
1450,1765915478902,2,-69,-3,0,0,0,0,0
1451,1765915479119,8,-77,-3,0,0,0,0,0
1452,1765915479219,5,-101,9,0,0,0,0,0
1453,1765915479418,7,-107,11,0,0,0,0,0
1454,1765915479553,-11,-120,9,0,0,0,0,0
1455,1765915479735,-8,-231,-3,0,0,0,0,0
1456,1765915479818,-7,-242,20,0,0,0,0,0
1457,1765915480035,32,-234,33,0,0,0,0,0
1458,1765915480151,34,-244,13,0,0,0,0,0
1459,1765915480334,43,-272,22,0,0,0,0,0
1460,1765915480401,8,-255,20,0,0,0,0,0
1461,1765915480635,18,-257,9,0,0,0,0,0
1462,1765915480718,32,-253,27,0,0,0,0,0
1463,1765915481001,-6,-176,5,0,0,0,0,0
1464,1765915481200,4,-158,14,0,0,0,0,0
1465,1765915481300,-1,-160,-19,0,0,0,0,0
1466,1765915481518,33,-142,21,0,0,0,0,0
1467,1765915481600,-10,-137,-7,0,0,0,0,0
1468,1765915481766,6,-143,-9,0,0,0,0,0
1469,1765915481900,-4,-130,21,0,0,0,0,0
1470,1765915482067,36,-125,18,0,0,0,0,0
1471,1765915482182,-29,-125,16,0,0,0,0,0
1472,1765915482499,30,-116,20,0,0,0,0,0
1473,1765915482599,-37,-141,-6,0,0,0,0,0
1474,1765915482782,14,-150,-9,0,0,0,0,0
1475,1765915482915,66,-171,44,0,0,0,0,0
1476,1765915483099,-65,-139,-13,0,0,0,0,0
1477,1765915483199,68,-157,29,0,0,0,0,0
1478,1765915483399,80,-148,3,0,0,0,0,0
1479,1765915483516,-48,-174,39,0,0,0,0,0
1480,1765915483731,29,-236,1,0,0,0,0,0
1481,1765915483898,55,-266,36,0,0,0,0,0
1482,1765915484015,42,-281,-11,0,0,0,0,0
1483,1765915484248,35,-262,30,0,0,0,0,0
1484,1765915484315,-7,-278,47,0,0,0,0,0
1485,1765915484431,-7,-387,23,0,0,0,0,0
1486,1765915484597,53,-436,-3,0,0,0,0,0
1487,1765915484814,-7,-431,0,0,0,0,0,0
1488,1765915484897,50,-395,33,0,0,0,0,0
1489,1765915485164,66,-296,72,0,0,0,0,0
1490,1765915485347,-19,-354,8,0,0,0,0,0
1491,1765915485464,64,-384,53,0,0,0,0,0
1492,1765915485714,-28,-382,70,0,0,0,0,0
1493,1765915485830,32,-385,-23,0,0,0,0,0
1494,1765915485962,18,-378,-35,0,0,0,0,0
1495,1765915486047,14,-355,31,0,0,0,0,0
1496,1765915486279,47,-338,130,0,0,0,0,0
1497,1765915486412,156,-337,30,0,0,0,0,0
1498,1765915486629,89,-434,78,0,0,0,0,0
1499,1765915486895,-12,-381,16,0,0,0,0,0
1500,1765915486962,-20,-369,36,0,0,0,0,0
1501,1765915487162,46,-384,10,0,0,0,0,0
1502,1765915487429,73,-416,-44,0,0,0,0,0
1503,1765915487546,-30,-397,-41,0,0,0,0,0
1504,1765915487746,59,-395,-31,0,0,0,0,0
1505,1765915487928,27,-418,-56,0,0,0,0,0
1506,1765915488012,34,-422,34,0,0,0,0,0
1507,1765915488128,-228,-402,-3,0,0,0,0,0
1508,1765915488311,89,-356,-7,0,0,0,0,0
1509,1765915488527,-30,-377,48,0,0,0,0,0
1510,1765915488610,-8,-374,-9,0,0,0,0,0
1511,1765915488877,12,-284,8,0,0,0,0,0
1512,1765915489043,13,-284,17,0,0,0,0,0
1513,1765915489176,7,-301,8,0,0,0,0,0
1514,1765915489394,13,-257,26,0,0,0,0,0
1515,1765915489444,69,-46,18,0,0,0,0,0
1516,1765915489561,-44,-69,-19,0,0,0,0,0
1517,1765915489743,25,-39,76,0,0,0,0,0
1518,1765915489928,-41,-37,-75,0,0,0,0,0
1519,1765915490044,74,5,123,0,0,0,0,0
1520,1765915490310,19,149,13,0,0,0,0,0
1521,1765915490443,-21,154,4,0,0,0,0,0
1522,1765915490626,-49,171,41,0,0,0,0,0
1523,1765915490825,-63,163,-22,0,0,0,0,0
1524,1765915490892,7,163,9,0,0,0,0,0
1525,1765915490976,74,188,-37,0,0,0,0,0
1526,1765915491192,-61,236,-57,0,0,0,0,0
1527,1765915491358,-27,270,43,0,0,0,0,0
1528,1765915491492,12,210,-87,0,0,0,0,0
1529,1765915491759,-50,568,-203,0,0,0,0,0
1530,1765915491842,77,607,89,0,0,0,0,0
1531,1765915492057,-134,754,-150,0,0,0,0,0
1532,1765915492191,30,704,-233,0,0,0,0,0
1533,1765915492374,-12,289,54,0,0,0,0,0
1534,1765915492541,-85,501,24,0,0,0,0,0
1535,1765915492674,-2,579,-32,0,0,0,0,0
1536,1765915492890,-40,683,13,0,0,0,0,0
1537,1765915492990,-30,899,7,0,0,0,0,0
1538,1765915493357,63,1050,-5,0,0,0,0,0
1539,1765915493523,15,986,-80,0,0,0,0,0
1540,1765915493707,-91,-118,76,0,0,0,0,0
1541,1765915493857,-39,-70,-70,0,0,0,0,0
1542,1765915494040,-11,189,-108,0,0,0,0,0
1543,1765915494156,-69,401,-34,0,0,0,0,0
1544,1765915494406,-37,719,-7,0,0,0,0,0
1545,1765915494473,-44,688,-27,0,0,0,0,0
1546,1765915494706,-50,701,6,0,0,0,0,0
1547,1765915494823,-23,692,-45,0,0,0,0,0
1548,1765915495005,-60,663,-43,0,0,0,0,0
1549,1765915495172,44,748,-36,0,0,0,0,0
1550,1765915495322,-23,498,-31,0,0,0,0,0
1551,1765915495522,-5,524,-28,0,0,0,0,0
1552,1765915495622,-86,512,-51,0,0,0,0,0
1553,1765915495905,-37,520,-39,0,0,0,0,0
1554,1765915496054,1,496,-30,0,0,0,0,0
1555,1765915496187,-13,501,-29,0,0,0,0,0
1556,1765915496404,-20,510,-18,0,0,0,0,0
1557,1765915496470,22,-141,-40,0,0,0,0,0
1558,1765915496571,31,-256,4,0,0,0,0,0
1559,1765915496753,-17,-334,20,0,0,0,0,0
1560,1765915496920,-239,-356,13,0,0,0,0,0
1561,1765915497053,50,-329,77,0,0,0,0,0
1562,1765915497337,17,-655,20,0,0,0,0,0
1563,1765915497454,17,-649,34,0,0,0,0,0
1564,1765915497864,71,-601,40,0,0,0,0,0
1565,1765915497887,38,-510,99,0,0,0,0,0
1566,1765915497887,45,-592,37,0,0,0,0,0
1567,1765915497969,56,-538,59,0,0,0,0,0
1568,1765915498186,55,-524,23,0,0,0,0,0
1569,1765915498319,23,-485,-15,0,0,0,0,0
1570,1765915498503,-18,-468,59,0,0,0,0,0
1571,1765915498719,22,-620,32,0,0,0,0,0
1572,1765915498820,17,-616,51,0,0,0,0,0
1573,1765915499053,22,-633,50,0,0,0,0,0
1574,1765915499387,-21,-537,42,0,0,0,0,0
1575,1765915499535,24,-653,7,0,0,0,0,0
1576,1765915499686,106,-640,-14,0,0,0,0,0
1577,1765915499901,-27,-718,38,0,0,0,0,0
1578,1765915499984,61,-685,-34,0,0,0,0,0
1579,1765915500050,124,-629,169,0,0,0,0,0
1580,1765915500267,-98,-622,-99,0,0,0,0,0
1581,1765915500435,28,-550,79,0,0,0,0,0
1582,1765915500552,58,-375,65,0,0,0,0,0
1583,1765915500835,5,-449,32,0,0,0,0,0
1584,1765915500951,47,-467,-10,0,0,0,0,0
1585,1765915501116,220,-474,-1,0,0,0,0,0
1586,1765915501350,44,-447,62,0,0,0,0,0
1587,1765915501483,15,-242,68,0,0,0,0,0
1588,1765915501700,11,-212,26,0,0,0,0,0
1589,1765915501866,-71,-239,-14,0,0,0,0,0
1590,1765915501999,26,-230,28,0,0,0,0,0
1591,1765915502283,42,-228,-18,0,0,0,0,0
1592,1765915502399,-21,-205,49,0,0,0,0,0
1593,1765915502568,-19,-215,-22,0,0,0,0,0
1594,1765915502783,14,-188,28,0,0,0,0,0
1595,1765915502848,74,-41,236,0,0,0,0,0
1596,1765915502916,-6,-58,-42,0,0,0,0,0
1597,1765915503131,87,-33,28,0,0,0,0,0
1598,1765915503281,42,4,-32,0,0,0,0,0
1599,1765915503432,-94,23,-50,0,0,0,0,0
1600,1765915503682,38,326,35,0,0,0,0,0
1601,1765915503765,-11,335,-61,0,0,0,0,0
1602,1765915503998,-25,344,0,0,0,0,0,0
1603,1765915504098,-33,372,-40,0,0,0,0,0
1604,1765915504314,-43,113,-135,0,0,0,0,0
1605,1765915504464,46,-233,-90,0,0,0,0,0
1606,1765915504613,0,-390,4,0,0,0,0,0
1607,1765915504814,-44,-495,-34,0,0,0,0,0
1608,1765915504914,95,-490,-26,0,0,0,0,0
1609,1765915505180,2,-253,5,0,0,0,0,0
1610,1765915505280,-69,-245,25,0,0,0,0,0
1611,1765915505479,-65,-8427,-3076,0,0,0,0,0
1612,1765915505696,-59,-107,247,0,0,0,0,0
1613,1765915505796,-44,-78,1,0,0,0,0,0
1614,1765915506030,70,-93,-28,0,0,0,0,0
1615,1765915506113,-26,-142,-5,0,0,0,0,0
1616,1765915506346,-40,-139,-42,0,0,0,0,0
1617,1765915506529,-73,-55,-58,0,0,0,0,0
1618,1765915506663,87,-62,8,0,0,0,0,0
1619,1765915506879,-52,-67,35,0,0,0,0,0
1620,1765915506963,-26,-38,-23,0,0,0,0,0
1621,1765915507228,-66,-366,30,0,0,0,0,0
1622,1765915507512,4,-248,-81,0,0,0,0,0
1623,1765915507712,83,-245,26,0,0,0,0,0
1624,1765915507862,39,-457,5,0,0,0,0,0
1625,1765915508094,75,-499,-2,0,0,0,0,0
1626,1765915508178,110,-501,100,0,0,0,0,0
1627,1765915508378,-13,-513,-17,0,0,0,0,0
1628,1765915508561,-102,-850,117,0,0,0,0,0
1629,1765915508711,-57,-858,-113,0,0,0,0,0
1630,1765915508993,223,-727,96,0,0,0,0,0
1631,1765915509010,102,-793,-9,0,0,0,0,0
1632,1765915509360,69,-664,-23,0,0,0,0,0
1633,1765915509577,105,-683,87,0,0,0,0,0
1634,1765915509711,47,-765,17,0,0,0,0,0
1635,1765915509876,2,-815,75,0,0,0,0,0
1636,1765915509893,26,-318,-27,0,0,0,0,0
1637,1765915510026,-31,-264,81,0,0,0,0,0
1638,1765915510192,35,-324,89,0,0,0,0,0
1639,1765915510358,19,-247,57,0,0,0,0,0
1640,1765915510474,32,-192,77,0,0,0,0,0
1641,1765915510711,-2,-135,1,0,0,0,0,0
1642,1765915510808,-40,-148,30,0,0,0,0,0
1643,1765915511042,252,-136,3,0,0,0,0,0
1644,1765915511092,14,-110,96,0,0,0,0,0
1645,1765915511326,-27,-54,26,0,0,0,0,0
1646,1765915511408,-90,-48,-34,0,0,0,0,0
1647,1765915511724,-19,-31,-25,0,0,0,0,0
1648,1765915511941,-2,-74,14,0,0,0,0,0
1649,1765915511959,57,-111,-37,0,0,0,0,0
1650,1765915512025,-18,-105,3,0,0,0,0,0
1651,1765915512258,3,-111,-29,0,0,0,0,0
1652,1765915512341,67,-97,75,0,0,0,0,0
1653,1765915512557,-72,-101,-6,0,0,0,0,0
1654,1765915512874,-22,-68,21,0,0,0,0,0
1655,1765915512974,-82,-74,-37,0,0,0,0,0
1656,1765915513173,-76,-63,5,0,0,0,0,0
1657,1765915513323,-20,-51,19,0,0,0,0,0
1658,1765915513473,-44,-35,39,0,0,0,0,0
1659,1765915513556,-7,-70,-38,0,0,0,0,0
1660,1765915513772,6,-66,12,0,0,0,0,0
1661,1765915513890,-73,-33,12,0,0,0,0,0
1662,1765915514056,-1,-16,8,0,0,0,0,0
1663,1765915514140,-7,-33,-11,0,0,0,0,0
1664,1765915514372,-65,-7,59,0,0,0,0,0
1665,1765915514455,-14,-3,-8,0,0,0,0,0
1666,1765915514671,8,-21,-14,0,0,0,0,0
1667,1765915514988,36,-25,17,0,0,0,0,0
1668,1765915515072,5,4,-37,0,0,0,0,0
1669,1765915515271,6,15,3,0,0,0,0,0
1670,1765915515405,3,5,22,0,0,0,0,0
1671,1765915515571,-2,14,-5,0,0,0,0,0
1672,1765915515654,67,21,28,0,0,0,0,0
1673,1765915515872,-51,9,-1,0,0,0,0,0
1674,1765915515972,27,36,-20,0,0,0,0,0
1675,1765915516254,49,41,0,0,0,0,0,0
1676,1765915516538,53,69,-87,0,0,0,0,0
1677,1765915516770,-86,67,86,0,0,0,0,0
1678,1765915516853,30,80,-62,0,0,0,0,0
1679,1765915516987,-74,54,48,0,0,0,0,0
1680,1765915517153,-3,69,-27,0,0,0,0,0
1681,1765915517303,-30,82,-50,0,0,0,0,0
1682,1765915517436,-29,89,14,0,0,0,0,0
1683,1765915517520,-7,84,-30,0,0,0,0,0
1684,1765915517737,12,36,-2,0,0,0,0,0
1685,1765915517836,12,29,6,0,0,0,0,0
1686,1765915518036,-14,26,-10,0,0,0,0,0
1687,1765915518169,-90,60,15,0,0,0,0,0
1688,1765915518202,17,28,-27,0,0,0,0,0
1689,1765915518369,2,7,46,0,0,0,0,0
1690,1765915518602,78,4,0,0,0,0,0,0
1691,1765915518670,44,16,11,0,0,0,0,0
1692,1765915518952,12,-52,21,0,0,0,0,0
1693,1765915519134,18,-29,-17,0,0,0,0,0
1694,1765915519235,2,-27,29,0,0,0,0,0
1695,1765915519485,-22,-62,17,0,0,0,0,0
1696,1765915519585,19,-25,24,0,0,0,0,0
1697,1765915519718,17,-22,-45,0,0,0,0,0
1698,1765915519818,-44,-10,4,0,0,0,0,0
1699,1765915520134,-2,-10,35,0,0,0,0,0
1700,1765915520167,-20,-2,-32,0,0,0,0,0
1701,1765915520400,20,9,-25,0,0,0,0,0
1702,1765915520633,28,3,-3,0,0,0,0,0
1703,1765915520767,-40,-4,-42,0,0,0,0,0
1704,1765915520934,-17,15,10,0,0,0,0,0
1705,1765915521201,58,-322,0,0,0,0,0,0
1706,1765915521366,-29,-435,-15,0,0,0,0,0
1707,1765915521517,6,-457,-2,0,0,0,0,0
1708,1765915521717,60,-486,-37,0,0,0,0,0
1709,1765915521783,15,-342,-20,0,0,0,0,0
1710,1765915521884,37,-296,88,0,0,0,0,0
1711,1765915522083,18,-292,-57,0,0,0,0,0
1712,1765915522249,44,-256,82,0,0,0,0,0
1713,1765915522382,32,-301,24,0,0,0,0,0
1714,1765915522666,-10,-318,48,0,0,0,0,0
1715,1765915522798,-48,-421,109,0,0,0,0,0
1716,1765915522948,80,-460,-136,0,0,0,0,0
1717,1765915523150,143,-477,158,0,0,0,0,0
1718,1765915523198,-4,-263,-29,0,0,0,0,0
1719,1765915523282,11,-227,-17,0,0,0,0,0
1720,1765915523515,45,-235,27,0,0,0,0,0
1721,1765915523614,45,-251,-13,0,0,0,0,0
1722,1765915523815,15,-259,-31,0,0,0,0,0
1723,1765915524098,33,-538,17,0,0,0,0,0
1724,1765915524181,37,-555,0,0,0,0,0,0
1725,1765915524381,-14,-526,90,0,0,0,0,0
1726,1765915524513,-3,-495,-4,0,0,0,0,0
1727,1765915524614,-28,-334,-34,0,0,0,0,0
1728,1765915524730,5,-398,-43,0,0,0,0,0
1729,1765915524947,37,-469,7,0,0,0,0,0
1730,1765915525046,63,-489,-59,0,0,0,0,0
1731,1765915525246,27,-555,23,0,0,0,0,0
1732,1765915525480,3,-784,-82,0,0,0,0,0
1733,1765915525580,215,-684,66,0,0,0,0,0
1734,1765915525813,90,-701,97,0,0,0,0,0
1735,1765915525897,-20,-747,137,0,0,0,0,0
1736,1765915526162,13,-523,73,0,0,0,0,0
1737,1765915526346,58,-580,-85,0,0,0,0,0
1738,1765915526445,58,-578,121,0,0,0,0,0
1739,1765915526696,-34,-664,-104,0,0,0,0,0
1740,1765915526728,-23,-268,36,0,0,0,0,0
1741,1765915526812,79,-211,-2,0,0,0,0,0
1742,1765915527029,35,-162,115,0,0,0,0,0
1743,1765915527194,52,-106,88,0,0,0,0,0
1744,1765915527312,-13,-68,36,0,0,0,0,0
1745,1765915527595,-55,-141,52,0,0,0,0,0
1746,1765915527662,-3,-143,-25,0,0,0,0,0
1747,1765915527861,-1,-154,3,0,0,0,0,0
1748,1765915527978,-8,-158,21,0,0,0,0,0
1749,1765915528193,19,-212,23,0,0,0,0,0
1750,1765915528394,-22,-236,-25,0,0,0,0,0
1751,1765915528478,31,-246,31,0,0,0,0,0
1752,1765915528727,-5,-226,-2,0,0,0,0,0
1753,1765915528827,-59,-222,18,0,0,0,0,0
1754,1765915528861,13,-173,66,0,0,0,0,0
1755,1765915529060,-12,-131,-34,0,0,0,0,0
1756,1765915529243,-26,-121,48,0,0,0,0,0
1757,1765915529343,42,-93,66,0,0,0,0,0
1758,1765915529626,27,12,-19,0,0,0,0,0
1759,1765915529725,-20,69,22,0,0,0,0,0
1760,1765915529909,-6,50,-9,0,0,0,0,0
1761,1765915530092,-20,71,2,0,0,0,0,0
1762,1765915530209,-20,100,59,0,0,0,0,0
1763,1765915530492,-10,229,16,0,0,0,0,0
1764,1765915530592,11,263,6,0,0,0,0,0
1765,1765915530776,68,270,-14,0,0,0,0,0
1766,1765915531075,-71,281,-33,0,0,0,0,0
1767,1765915531308,-32,383,2,0,0,0,0,0
1768,1765915531408,-3,354,-12,0,0,0,0,0
1769,1765915531625,-13,373,-22,0,0,0,0,0
1770,1765915531658,-76,358,-1,0,0,0,0,0
1771,1765915531743,-30,345,-68,0,0,0,0,0
1772,1765915531958,63,363,-24,0,0,0,0,0
1773,1765915532258,-61,392,-1,0,0,0,0,0
1774,1765915532458,-112,658,-42,0,0,0,0,0
1775,1765915532575,32,547,13,0,0,0,0,0
1776,1765915532826,-32,565,-112,0,0,0,0,0
1777,1765915532891,-29,501,-12,0,0,0,0,0
1778,1765915533289,-62,653,36,0,0,0,0,0
1779,1765915533439,-128,689,-130,0,0,0,0,0
1780,1765915533624,-84,685,-15,0,0,0,0,0
1781,1765915533740,-27,721,-135,0,0,0,0,0
1782,1765915533989,-40,714,-56,0,0,0,0,0
1783,1765915534056,-22,691,-35,0,0,0,0,0
1784,1765915534289,18,661,-30,0,0,0,0,0
1785,1765915534389,-32,689,-55,0,0,0,0,0
1786,1765915534622,-21,659,-66,0,0,0,0,0
1787,1765915534772,-72,673,-34,0,0,0,0,0
1788,1765915534906,-43,664,-33,0,0,0,0,0
1789,1765915535122,39,620,-65,0,0,0,0,0
1790,1765915535238,-47,611,-13,0,0,0,0,0
1791,1765915535472,18,601,-21,0,0,0,0,0
1792,1765915535538,1,593,-96,0,0,0,0,0
1793,1765915535771,-56,668,9,0,0,0,0,0
1794,1765915535971,-24,38,-57,0,0,0,0,0
1795,1765915536105,-10,-147,-33,0,0,0,0,0
1796,1765915536337,23,-155,33,0,0,0,0,0
1797,1765915536404,23,-226,5,0,0,0,0,0
1798,1765915536670,-2,-602,-17,0,0,0,0,0
1799,1765915536887,55,-613,17,0,0,0,0,0
1800,1765915536972,28,-657,20,0,0,0,0,0
1801,1765915537203,35,-683,59,0,0,0,0,0
1802,1765915537353,-2,-496,52,0,0,0,0,0
1803,1765915537537,21,-442,36,0,0,0,0,0
1804,1765915537703,46,-411,66,0,0,0,0,0
1805,1765915537820,58,-474,3,0,0,0,0,0
1806,1765915538152,54,-1041,55,0,0,0,0,0
1807,1765915538402,44,-937,66,0,0,0,0,0
1808,1765915538486,-19,-574,219,0,0,0,0,0
1809,1765915538685,-2,104,16,0,0,0,0,0
1810,1765915539234,-21,-520,-8,0,0,0,0,0
1811,1765915539318,62,-512,6,0,0,0,0,0
1812,1765915539584,47,-687,-97,0,0,0,0,0
1813,1765915539769,122,-643,9,0,0,0,0,0
1814,1765915539868,-20,-587,92,0,0,0,0,0
1815,1765915540118,-68,-490,-29,0,0,0,0,0
1816,1765915540150,-5,-429,-21,0,0,0,0,0
1817,1765915540217,-18,-436,-9,0,0,0,0,0
1818,1765915540433,82,-456,-9,0,0,0,0,0
1819,1765915540551,37,-461,-12,0,0,0,0,0
1820,1765915540734,11,-382,57,0,0,0,0,0
1821,1765915540983,19,-301,31,0,0,0,0,0
1822,1765915541067,23,-298,0,0,0,0,0,0
1823,1765915541300,41,-299,18,0,0,0,0,0
1824,1765915541383,-32,-370,38,0,0,0,0,0
1825,1765915541617,14,-172,78,0,0,0,0,0
1826,1765915541799,31,-94,41,0,0,0,0,0
1827,1765915541932,46,-40,24,0,0,0,0,0
1828,1765915542149,-24,9,-24,0,0,0,0,0
1829,1765915542483,-6,69,41,0,0,0,0,0
1830,1765915542616,42,52,-53,0,0,0,0,0
1831,1765915542783,-37,-16362,223,0,0,0,0,0
1832,1765915543048,16,-52,-26,0,0,0,0,0
1833,1765915543115,-56,-90,-24,0,0,0,0,0
1834,1765915543348,28,-141,3,0,0,0,0,0
1835,1765915543465,28,-139,-44,0,0,0,0,0
1836,1765915543848,-12,-188,-45,0,0,0,0,0
1837,1765915543965,-16,-162,95,0,0,0,0,0
1838,1765915544214,47,-187,-80,0,0,0,0,0
1839,1765915544298,82,-147,113,0,0,0,0,0
1840,1765915544531,46,-81,-87,0,0,0,0,0
1841,1765915544630,-52,-92,83,0,0,0,0,0
1842,1765915544815,56,-61,-59,0,0,0,0,0
1843,1765915544962,123,-54,21,0,0,0,0,0
1844,1765915545147,-23,-48,25,0,0,0,0,0
1845,1765915545264,-68,-82,15,0,0,0,0,0
1846,1765915545447,64,-86,10,0,0,0,0,0
1847,1765915545613,9,-89,19,0,0,0,0,0
1848,1765915545762,-6,-209,106,0,0,0,0,0
1849,1765915546063,73,-180,89,0,0,0,0,0
1850,1765915546246,-32721,24462,-2106,0,0,0,0,0
1851,1765915546346,-43,-77,70,0,0,0,0,0
1852,1765915546512,21,-391,8,0,0,0,0,0
1853,1765915546663,-75,-474,119,0,0,0,0,0
1854,1765915546828,47,-523,-40,0,0,0,0,0
1855,1765915546945,16,-531,160,0,0,0,0,0
1856,1765915547262,-54,-772,169,0,0,0,0,0
1857,1765915547427,-60,-732,-14,0,0,0,0,0
1858,1765915547561,115,-541,-3,0,0,0,0,0
1859,1765915547744,47,-596,259,0,0,0,0,0
1860,1765915547877,181,-486,87,0,0,0,0,0
1861,1765915548011,13,-608,102,0,0,0,0,0
1862,1765915549360,17,-415,79,0,0,0,0,0
1863,1765915549460,63,-334,92,0,0,0,0,0
1864,1765915549660,-91,149,87,0,0,0,0,0
1865,1765915549777,-100,190,-50,0,0,0,0,0
1866,1765915549960,11,39,15,0,0,0,0,0
1867,1765915550025,-58,22,-7,0,0,0,0,0
1868,1765915550260,-1,26,-18,0,0,0,0,0
1869,1765915550343,-81,11,6,0,0,0,0,0
1870,1765915550559,-122,20,-15,0,0,0,0,0
1871,1765915550642,-67,-15,41,0,0,0,0,0
1872,1765915550827,-47,12,24,0,0,0,0,0
1873,1765915550925,7,15,43,0,0,0,0,0
1874,1765915551141,5,21,-9,0,0,0,0,0
1875,1765915551208,-21,-5,2,0,0,0,0,0
1876,1765915551375,-3,3,-24,0,0,0,0,0
1877,1765915551524,3,22,24,0,0,0,0,0
1878,1765915551675,11,19,-16,0,0,0,0,0
1879,1765915551809,-21,10,-70,0,0,0,0,0
1880,1765915552125,-12,-37,4,0,0,0,0,0
1881,1765915552224,-19,-31,-20,0,0,0,0,0
1882,1765915552424,22,13,36,0,0,0,0,0
1883,1765915552541,28,-3,-10,0,0,0,0,0
1884,1765915552742,-12,-28,2,0,0,0,0,0
1885,1765915552842,-5,-33,26,0,0,0,0,0
1886,1765915553024,15,2,19,0,0,0,0,0
1887,1765915553207,-36,-13,13,0,0,0,0,0
1888,1765915553326,-63,-15,16,0,0,0,0,0
1889,1765915553373,17,1,48,0,0,0,0,0
1890,1765915553606,32,-25,26,0,0,0,0,0
1891,1765915553757,16,-20,-43,0,0,0,0,0
1892,1765915553907,-67,-2,0,0,0,0,0,0
1893,1765915554171,-7,-9,6,0,0,0,0,0
1894,1765915554289,-10,-10,-44,0,0,0,0,0
1895,1765915554489,18,-10,-5,0,0,0,0,0
1896,1765915554838,-32,95,-30,0,0,0,0,0
1897,1765915554871,-4,119,1,0,0,0,0,0
1898,1765915555055,1,108,-47,0,0,0,0,0
1899,1765915555255,-31,74,6,0,0,0,0,0
1900,1765915555354,56,97,-5,0,0,0,0,0
1901,1765915555638,108,3,-6,0,0,0,0,0
1902,1765915555789,-15,-2,-32,0,0,0,0,0
1903,1765915555922,-10,29,27,0,0,0,0,0
1904,1765915556153,21,-7,-14,0,0,0,0,0
1905,1765915556206,27,-63,4,0,0,0,0,0
1906,1765915556304,-22,-59,31,0,0,0,0,0
1907,1765915556505,15,-65,49,0,0,0,0,0
1908,1765915556670,9,-112,-25,0,0,0,0,0
1909,1765915556787,9,-113,-18,0,0,0,0,0
1910,1765915557069,2,-13,44,0,0,0,0,0
1911,1765915557169,-1,14,-22,0,0,0,0,0
1912,1765915557353,-12,-12,3,0,0,0,0,0
1913,1765915557553,-44,-2,12,0,0,0,0,0
1914,1765915557636,11,14,1,0,0,0,0,0
1915,1765915557703,16,10,27,0,0,0,0,0
1916,1765915557935,-72,8,-18,0,0,0,0,0
1917,1765915558085,11,31,20,0,0,0,0,0
1918,1765915558236,36,30,-4,0,0,0,0,0
1919,1765915558501,4,31,-21,0,0,0,0,0
1920,1765915558586,-34,16,-19,0,0,0,0,0
1921,1765915558803,19,46,-6,0,0,0,0,0
1922,1765915558951,10,33,14,0,0,0,0,0
1923,1765915559035,-11,55,-20,0,0,0,0,0
1924,1765915559135,11,47,17,0,0,0,0,0
1925,1765915559368,-9,49,-3,0,0,0,0,0
1926,1765915559484,67,63,1,0,0,0,0,0
1927,1765915559668,-31,37,47,0,0,0,0,0
1928,1765915559901,29,33,0,0,0,0,0,0
1929,1765915560001,-24,35,12,0,0,0,0,0
1930,1765915560234,26,45,-39,0,0,0,0,0
1931,1765915560334,-43,39,16,0,0,0,0,0
1932,1765915560450,21,37,-13,0,0,0,0,0
1933,1765915560567,-41,42,20,0,0,0,0,0
1934,1765915560816,-39,43,1,0,0,0,0,0
1935,1765915560900,107,54,-31,0,0,0,0,0
1936,1765915561099,-25,37,-8,0,0,0,0,0
1937,1765915561316,-10,-70,37,0,0,0,0,0
1938,1765915561449,17,-95,16,0,0,0,0,0
1939,1765915561667,-51,-147,-18,0,0,0,0,0
1940,1765915561766,-12,-190,-23,0,0,0,0,0
1941,1765915562016,37,-123,4,0,0,0,0,0
1942,1765915562215,-22,-128,-25,0,0,0,0,0
1943,1765915562315,17,-133,9,0,0,0,0,0
1944,1765915562548,20,-98,35,0,0,0,0,0
1945,1765915562582,-7,-42,17,0,0,0,0,0
1946,1765915562731,6,-46,-6,0,0,0,0,0
1947,1765915562882,-8,-40,-15,0,0,0,0,0
1948,1765915563099,-14,-22,12,0,0,0,0,0
1949,1765915563165,-7,-15,2,0,0,0,0,0
1950,1765915563448,-8,5,-2,0,0,0,0,0
1951,1765915563631,-4,9,2,0,0,0,0,0
1952,1765915563747,-9,6,5,0,0,0,0,0
1953,1765915563980,-8,8,-1,0,0,0,0,0
1954,1765915564015,-9,7,2,0,0,0,0,0
1955,1765915564114,-2,10,1,0,0,0,0,0
1956,1765915564314,-5,9,0,0,0,0,0,0
1957,1765915564497,-7,9,3,0,0,0,0,0
1958,1765915564614,-1,9,2,0,0,0,0,0
1959,1765915564880,-4,9,1,0,0,0,0,0
1960,1765915564965,-3,9,1,0,0,0,0,0
1961,1765915565180,-3,6,2,0,0,0,0,0
1962,1765915565329,-6,8,2,0,0,0,0,0
1963,1765915565767,-2,7,1,0,0,0,0,0
1964,1765915565779,-5,10,4,0,0,0,0,0
1965,1765915565796,-6,10,2,0,0,0,0,0
1966,1765915566046,-6,10,1,0,0,0,0,0
1967,1765915566245,-11,9,3,0,0,0,0,0
1968,1765915566378,-7,11,-8,0,0,0,0,0
1969,1765915566595,-9,3,7,0,0,0,0,0
1970,1765915566663,2,17,3,0,0,0,0,0
1971,1765915566945,-9,8,2,0,0,0,0,0
1972,1765915567111,-2,7,1,0,0,0,0,0
1973,1765915567228,-9,11,0,0,0,0,0,0
1974,1765915567461,-3,9,1,0,0,0,0,0
1975,1765915567612,-6,7,3,0,0,0,0,0
1976,1765915567810,-7,8,3,0,0,0,0,0
1977,1765915567961,-3,10,3,0,0,0,0,0
1978,1765915568109,-8,11,0,0,0,0,0,0
1979,1765915568377,-5,10,2,0,0,0,0,0
1980,1765915568444,-4,10,2,0,0,0,0,0
1981,1765915568677,-7,8,2,0,0,0,0,0
1982,1765915568794,-4,11,1,0,0,0,0,0
1983,1765915568993,-3,8,1,0,0,0,0,0
1984,1765915569177,-4,8,1,0,0,0,0,0
1985,1765915569293,-6,9,2,0,0,0,0,0
1986,1765915569526,-2,10,0,0,0,0,0,0
1987,1765915569608,-6,8,1,0,0,0,0,0
1988,1765915569676,-4,10,0,0,0,0,0,0
1989,1765915569859,-7,7,3,0,0,0,0,0
1990,1765915570025,-6,9,1,0,0,0,0,0
1991,1765915570159,-8,7,0,0,0,0,0,0
1992,1765915570409,-5,9,2,0,0,0,0,0
1993,1765915570492,-6,8,1,0,0,0,0,0
1994,1765915570725,-5,9,0,0,0,0,0,0
1995,1765915570858,-6,8,3,0,0,0,0,0
1996,1765915571026,-6,9,2,0,0,0,0,0
1997,1765915571241,-6,9,1,0,0,0,0,0
1998,1765915571342,-6,9,2,0,0,0,0,0
1999,1765915571574,-4,10,2,0,0,0,0,0
2000,1765915571658,-7,8,2,0,0,0,0,0
2001,1765915571908,-6,9,1,0,0,0,0,0
2002,1765915572040,-6,10,2,0,0,0,0,0
2003,1765915572207,-6,8,0,0,0,0,0,0
2004,1765915572407,-6,7,1,0,0,0,0,0
2005,1765915572457,-6,9,1,0,0,0,0,0
2006,1765915572540,-7,8,1,0,0,0,0,0
2007,1765915572773,-3,8,1,0,0,0,0,0
2008,1765915572873,-4,9,2,0,0,0,0,0
2009,1765915573057,-4,10,1,0,0,0,0,0
2010,1765915573256,-5,8,1,0,0,0,0,0
2011,1765915573390,-5,10,3,0,0,0,0,0
2012,1765915573606,-6,9,2,0,0,0,0,0
2013,1765915573689,-4,8,1,0,0,0,0,0
2014,1765915573955,-5,9,1,0,0,0,0,0
2015,1765915574022,-1,10,1,0,0,0,0,0
2016,1765915574238,-9,8,0,0,0,0,0,0
2017,1765915574372,-5,8,2,0,0,0,0,0
2018,1765915574538,-4,9,1,0,0,0,0,0
2019,1765915574755,-6,8,2,0,0,0,0,0
2020,1765915574872,-8,9,1,0,0,0,0,0
2021,1765915575105,-5,8,2,0,0,0,0,0
2022,1765915575171,-4,10,1,0,0,0,0,0
2023,1765915575438,-4,6,1,0,0,0,0,0
2024,1765915575571,-6,8,1,0,0,0,0,0
2025,1765915575738,-5,8,1,0,0,0,0,0
2026,1765915575920,-4,10,2,0,0,0,0,0
2027,1765915576054,-6,9,0,0,0,0,0,0
2028,1765915576287,-6,8,2,0,0,0,0,0
2029,1765915576370,-7,8,0,0,0,0,0,0
2030,1765915576737,-5,9,2,0,0,0,0,0
2031,1765915576753,-5,9,1,0,0,0,0,0
2032,1765915576903,-6,8,1,0,0,0,0,0
2033,1765915577086,-3,8,2,0,0,0,0,0
2034,1765915577203,-5,9,1,0,0,0,0,0
2035,1765915577486,-6,8,1,0,0,0,0,0
2036,1765915577536,-5,9,1,0,0,0,0,0
2037,1765915577770,-5,9,3,0,0,0,0,0
2038,1765915577902,-5,9,1,0,0,0,0,0
2039,1765915578070,-6,9,1,0,0,0,0,0
2040,1765915578102,-4,9,3,0,0,0,0,0
2041,1765915578269,-6,8,3,0,0,0,0,0
2042,1765915578403,-5,6,3,0,0,0,0,0
2043,1765915578619,-4,10,2,0,0,0,0,0
2044,1765915578686,-7,9,1,0,0,0,0,0
2045,1765915578950,-4,7,2,0,0,0,0,0
2046,1765915579049,-6,10,1,0,0,0,0,0
2047,1765915579250,-5,8,2,0,0,0,0,0
2048,1765915579400,-6,9,1,0,0,0,0,0
2049,1765915579568,-6,7,3,0,0,0,0,0
2050,1765915579701,-5,10,3,0,0,0,0,0
2051,1765915579867,-6,9,2,0,0,0,0,0
2052,1765915580018,-4,9,0,0,0,0,0,0
2053,1765915580151,-5,8,2,0,0,0,0,0
2054,1765915580184,-6,8,2,0,0,0,0,0
2055,1765915580317,-9,8,2,0,0,0,0,0
2056,1765915580466,-3,9,1,0,0,0,0,0
2057,1765915580651,-7,8,0,0,0,0,0,0
2058,1765915580767,-6,9,1,0,0,0,0,0
2059,1765915581067,-7,10,0,0,0,0,0,0
2060,1765915581182,-5,8,2,0,0,0,0,0
2061,1765915581350,-4,9,2,0,0,0,0,0
2062,1765915581515,-6,8,2,0,0,0,0,0
2063,1765915581666,-5,10,1,0,0,0,0,0
2064,1765915581766,-6,9,1,0,0,0,0,0
2065,1765915581966,-4,9,2,0,0,0,0,0
2066,1765915582082,-6,9,3,0,0,0,0,0
2067,1765915582266,-6,8,1,0,0,0,0,0
2068,1765915582332,-5,9,0,0,0,0,0,0
2069,1765915582565,-7,7,1,0,0,0,0,0
2070,1765915582665,-3,9,2,0,0,0,0,0
2071,1765915582865,-7,9,3,0,0,0,0,0
2072,1765915583164,-4,8,1,0,0,0,0,0
2073,1765915583264,-5,9,2,0,0,0,0,0
2074,1765915583464,-5,9,1,0,0,0,0,0
2075,1765915583581,-5,9,1,0,0,0,0,0
2076,1765915583765,-4,9,2,0,0,0,0,0
2077,1765915583831,-6,9,2,0,0,0,0,0
2078,1765915584064,-4,8,3,0,0,0,0,0
2079,1765915584147,-6,7,1,0,0,0,0,0
2080,1765915584330,-5,10,2,0,0,0,0,0
2081,1765915584429,-6,9,1,0,0,0,0,0
2082,1765915584629,-6,9,2,0,0,0,0,0
2083,1765915584730,-4,8,2,0,0,0,0,0
2084,1765915584946,-5,8,2,0,0,0,0,0
2085,1765915585046,-6,9,4,0,0,0,0,0
2086,1765915585179,-4,9,2,0,0,0,0,0
2087,1765915585330,-4,9,1,0,0,0,0,0
2088,1765915585496,-7,9,2,0,0,0,0,0
2089,1765915585630,-3,8,3,0,0,0,0,0
2090,1765915585712,-4,8,1,0,0,0,0,0
2091,1765915585929,-8,9,2,0,0,0,0,0
2092,1765915586046,-3,7,2,0,0,0,0,0
2093,1765915586228,-8,9,2,0,0,0,0,0
2094,1765915586329,-4,8,2,0,0,0,0,0
2095,1765915586512,-3,10,2,0,0,0,0,0
2096,1765915586595,-9,8,2,0,0,0,0,0
2097,1765915586795,-3,9,1,0,0,0,0,0
2098,1765915586878,-5,9,1,0,0,0,0,0
2099,1765915587177,-5,8,1,0,0,0,0,0
2100,1765915587295,-6,9,2,0,0,0,0,0
2101,1765915587677,-6,7,3,0,0,0,0,0
2102,1765915587677,-6,9,1,0,0,0,0,0
2103,1765915587794,-6,9,1,0,0,0,0,0
2104,1765915587927,-5,8,3,0,0,0,0,0
2105,1765915588094,-5,9,2,0,0,0,0,0
2106,1765915588259,-4,8,2,0,0,0,0,0
2107,1765915588377,-8,9,2,0,0,0,0,0
2108,1765915588660,-14,10,7,0,0,0,0,0
2109,1765915588761,3,10,0,0,0,0,0,0
2110,1765915588943,0,8,-2,0,0,0,0,0
2111,1765915589126,-5,8,1,0,0,0,0,0
2112,1765915589276,-5,8,2,0,0,0,0,0
2113,1765915589511,-6,9,1,0,0,0,0,0
2114,1765915589591,-4,9,2,0,0,0,0,0
2115,1765915589808,-5,8,1,0,0,0,0,0
2116,1765915590008,-4,9,2,0,0,0,0,0
2117,1765915590141,-4,9,1,0,0,0,0,0
2118,1765915590375,-3,9,1,0,0,0,0,0
2119,1765915590458,-5,9,2,0,0,0,0,0
2120,1765915590724,-5,9,0,0,0,0,0,0
2121,1765915590924,-6,9,2,0,0,0,0,0
2122,1765915591025,-5,8,2,0,0,0,0,0
2123,1765915591258,-7,9,1,0,0,0,0,0
2124,1765915591290,-4,8,1,0,0,0,0,0
2125,1765915591425,-5,9,1,0,0,0,0,0
2126,1765915591590,-4,9,1,0,0,0,0,0
2127,1765915591774,-4,10,1,0,0,0,0,0
2128,1765915591874,-6,9,1,0,0,0,0,0
2129,1765915592157,-6,8,2,0,0,0,0,0
2130,1765915592274,-6,10,1,0,0,0,0,0
2131,1765915592440,-4,8,1,0,0,0,0,0
2132,1765915592640,-5,8,1,0,0,0,0,0
2133,1765915592706,-5,9,0,0,0,0,0,0
2134,1765915592773,-5,8,1,0,0,0,0,0
2135,1765915593023,-5,8,1,0,0,0,0,0
2136,1765915593139,-5,10,1,0,0,0,0,0
2137,1765915593306,-5,8,0,0,0,0,0,0
2138,1765915593588,-7,9,2,0,0,0,0,0
2139,1765915593655,-6,8,1,0,0,0,0,0
2140,1765915593873,-4,7,2,0,0,0,0,0
2141,1765915594005,-4,8,1,0,0,0,0,0
2142,1765915594222,-5,9,1,0,0,0,0,0
2143,1765915594455,-5,7,2,0,0,0,0,0
2144,1765915594538,-4,9,1,0,0,0,0,0
2145,1765915594755,-5,8,1,0,0,0,0,0
2146,1765915594955,-14,8,2,0,0,0,0,0
2147,1765915595088,-4,10,1,0,0,0,0,0
2148,1765915595304,-7,8,1,0,0,0,0,0
2149,1765915595388,0,8,2,0,0,0,0,0
2150,1765915595654,-3,8,1,0,0,0,0,0
2151,1765915595820,-5,8,1,0,0,0,0,0
2152,1765915595937,-4,9,1,0,0,0,0,0
2153,1765915596187,-3,9,0,0,0,0,0,0
2154,1765915596237,-7,8,0,0,0,0,0,0
2155,1765915596320,-6,9,1,0,0,0,0,0
2156,1765915596520,-4,9,1,0,0,0,0,0
2157,1765915596703,-4,10,1,0,0,0,0,0
2158,1765915596821,-6,9,1,0,0,0,0,0
2159,1765915597085,-5,8,3,0,0,0,0,0
2160,1765915597202,-4,8,2,0,0,0,0,0
2161,1765915597386,-5,10,1,0,0,0,0,0
2162,1765915597568,-5,8,1,0,0,0,0,0
2163,1765915597719,-5,8,1,0,0,0,0,0
2164,1765915597952,-5,9,0,0,0,0,0,0
2165,1765915598102,-5,8,-1,0,0,0,0,0
2166,1765915598251,-5,10,3,0,0,0,0,0
2167,1765915598601,-5,9,1,0,0,0,0,0
2168,1765915598601,-4,9,3,0,0,0,0,0
2169,1765915598818,-5,8,2,0,0,0,0,0
2170,1765915598951,-5,8,1,0,0,0,0,0
2171,1765915599151,-6,9,1,0,0,0,0,0
2172,1765915599351,-4,8,2,0,0,0,0,0
2173,1765915599436,-6,10,2,0,0,0,0,0
2174,1765915599683,-4,10,1,0,0,0,0,0
2175,1765915599750,-5,6,2,0,0,0,0,0
2176,1765915600001,-7,9,1,0,0,0,0,0
2177,1765915600100,-4,8,2,0,0,0,0,0
2178,1765915600302,-6,10,2,0,0,0,0,0
2179,1765915600434,-4,9,1,0,0,0,0,0
2180,1765915600616,-6,7,1,0,0,0,0,0
2181,1765915600782,-5,10,2,0,0,0,0,0
2182,1765915600899,-5,9,1,0,0,0,0,0
2183,1765915601132,-6,9,2,0,0,0,0,0
2184,1765915601233,-5,9,1,0,0,0,0,0
2185,1765915601466,-6,8,1,0,0,0,0,0
2186,1765915601566,-9,8,1,0,0,0,0,0
2187,1765915601765,-4,9,1,0,0,0,0,0
2188,1765915601899,-6,11,2,0,0,0,0,0
2189,1765915602082,-5,9,2,0,0,0,0,0
2190,1765915602232,-6,8,1,0,0,0,0,0
2191,1765915602382,-4,8,0,0,0,0,0,0
2192,1765915602581,-3,9,3,0,0,0,0,0
2193,1765915602581,-6,9,1,0,0,0,0,0
2194,1765915602714,-5,9,0,0,0,0,0,0
2195,1765915602931,-5,9,1,0,0,0,0,0
2196,1765915603014,-6,8,2,0,0,0,0,0
2197,1765915603231,-5,8,2,0,0,0,0,0
2198,1765915603265,-6,9,1,0,0,0,0,0
2199,1765915603347,-5,10,1,0,0,0,0,0
2200,1765915603563,-5,9,2,0,0,0,0,0
2201,1765915603697,-8,9,3,0,0,0,0,0
2202,1765915603847,-6,9,1,0,0,0,0,0
2203,1765915604030,1,12,-1,0,0,0,0,0
2204,1765915604180,-2,5,1,0,0,0,0,0
2205,1765915604379,-7,13,3,0,0,0,0,0
2206,1765915604463,-6,11,2,0,0,0,0,0
2207,1765915604712,-6,7,1,0,0,0,0,0
2208,1765915604796,-2,10,2,0,0,0,0,0
2209,1765915605030,-5,10,3,0,0,0,0,0
2210,1765915605129,-5,10,1,0,0,0,0,0
2211,1765915605313,-5,6,0,0,0,0,0,0
2212,1765915605446,-4,11,1,0,0,0,0,0
2213,1765915605646,-5,9,2,0,0,0,0,0
2214,1765915605779,-5,8,1,0,0,0,0,0
2215,1765915605946,-7,9,0,0,0,0,0,0
2216,1765915606113,-4,7,2,0,0,0,0,0
2217,1765915606261,-6,9,2,0,0,0,0,0
2218,1765915606445,-6,9,2,0,0,0,0,0
2219,1765915606545,-6,8,1,0,0,0,0,0
2220,1765915606796,-6,7,2,0,0,0,0,0
2221,1765915606878,-5,8,3,0,0,0,0,0
2222,1765915607111,-4,8,1,0,0,0,0,0
2223,1765915607211,-5,10,2,0,0,0,0,0
2224,1765915607411,-5,9,1,0,0,0,0,0
2225,1765915607561,-7,9,2,0,0,0,0,0
2226,1765915607727,-5,8,3,0,0,0,0,0
2227,1765915607894,-7,9,2,0,0,0,0,0
2228,1765915608027,-4,10,1,0,0,0,0,0
2229,1765915608210,-7,9,1,0,0,0,0,0
2230,1765915608326,-5,8,0,0,0,0,0,0
2231,1765915608544,-5,9,1,0,0,0,0,0
2232,1765915608626,-2,7,1,0,0,0,0,0
2233,1765915608892,-9,10,1,0,0,0,0,0
2234,1765915608943,-4,8,2,0,0,0,0,0
2235,1765915609192,-8,9,3,0,0,0,0,0
2236,1765915609543,-4,9,2,0,0,0,0,0
2237,1765915609558,-5,9,1,0,0,0,0,0
2238,1765915609625,-6,7,2,0,0,0,0,0
2239,1765915609792,-5,9,1,0,0,0,0,0
2240,1765915609958,-5,8,2,0,0,0,0,0
2241,1765915610092,-6,10,1,0,0,0,0,0
2242,1765915610294,-7,10,2,0,0,0,0,0
2243,1765915610425,-5,9,1,0,0,0,0,0
2244,1765915610642,-3,9,0,0,0,0,0,0
2245,1765915610708,-5,8,2,0,0,0,0,0
2246,1765915610941,-6,8,2,0,0,0,0,0
2247,1765915610974,-5,8,2,0,0,0,0,0
2248,1765915611025,-7,9,0,0,0,0,0,0
2249,1765915611277,-5,8,1,0,0,0,0,0
2250,1765915611375,-5,8,2,0,0,0,0,0
2251,1765915611574,-5,10,2,0,0,0,0,0
2252,1765915611706,-7,7,1,0,0,0,0,0
2253,1765915611890,-4,8,1,0,0,0,0,0
2254,1765915612041,-5,9,1,0,0,0,0,0
2255,1765915612173,-4,9,1,0,0,0,0,0
2256,1765915612406,-6,10,2,0,0,0,0,0
2257,1765915612489,-5,8,0,0,0,0,0,0
2258,1765915612739,-4,9,2,0,0,0,0,0
2259,1765915612805,-4,8,2,0,0,0,0,0
2260,1765915613023,-5,8,2,0,0,0,0,0
2261,1765915613139,-3,9,1,0,0,0,0,0
2262,1765915613340,-3,8,2,0,0,0,0,0
2263,1765915613473,-7,9,2,0,0,0,0,0
2264,1765915613638,-4,8,1,0,0,0,0,0
2265,1765915613789,-5,7,2,0,0,0,0,0
2266,1765915613955,-5,10,1,0,0,0,0,0
2267,1765915614105,-5,8,2,0,0,0,0,0
2268,1765915614255,-3,8,2,0,0,0,0,0
2269,1765915614421,-4,9,2,0,0,0,0,0
2270,1765915614555,-5,8,2,0,0,0,0,0
2271,1765915614672,-6,9,1,0,0,0,0,0
2272,1765915614855,-5,9,0,0,0,0,0,0
2273,1765915614971,-4,9,1,0,0,0,0,0
2274,1765915615221,-6,8,3,0,0,0,0,0
2275,1765915615404,-6,8,1,0,0,0,0,0
2276,1765915615504,-5,8,2,0,0,0,0,0
2277,1765915615721,-5,9,2,0,0,0,0,0
2278,1765915615804,-5,8,2,0,0,0,0,0
2279,1765915615820,-4,9,2,0,0,0,0,0
2280,1765915615921,-4,9,1,0,0,0,0,0
2281,1765915616103,-4,10,2,0,0,0,0,0
2282,1765915616237,-5,8,1,0,0,0,0,0
2283,1765915616387,-5,8,1,0,0,0,0,0
2284,1765915616653,-4,9,0,0,0,0,0,0
2285,1765915616753,-5,8,1,0,0,0,0,0
2286,1765915616952,-6,8,2,0,0,0,0,0
2287,1765915617036,-3,9,2,0,0,0,0,0
2288,1765915617302,-6,9,2,0,0,0,0,0
2289,1765915617386,-6,11,2,0,0,0,0,0
2290,1765915617603,-5,9,1,0,0,0,0,0
2291,1765915617669,-5,9,2,0,0,0,0,0
2292,1765915617968,-3,10,1,0,0,0,0,0
2293,1765915618052,-5,8,2,0,0,0,0,0
2294,1765915618269,-5,9,2,0,0,0,0,0
2295,1765915618334,-4,8,1,0,0,0,0,0
2296,1765915618618,-6,10,2,0,0,0,0,0
2297,1765915618718,-5,9,1,0,0,0,0,0
2298,1765915618917,-5,8,1,0,0,0,0,0
2299,1765915619001,-5,9,2,0,0,0,0,0
2300,1765915619268,-8,9,2,0,0,0,0,0
2301,1765915619385,-7,9,0,0,0,0,0,0
2302,1765915619550,-6,8,2,0,0,0,0,0
2303,1765915619684,-4,9,1,0,0,0,0,0
2304,1765915619834,-6,9,2,0,0,0,0,0
2305,1765915619917,-5,9,1,0,0,0,0,0
2306,1765915620050,-5,9,3,0,0,0,0,0
2307,1765915620514,-5,8,1,0,0,0,0,0
2308,1765915620533,-6,8,2,0,0,0,0,0
2309,1765915620534,-5,10,1,0,0,0,0,0
2310,1765915620699,-5,8,1,0,0,0,0,0
2311,1765915620850,-4,8,2,0,0,0,0,0
2312,1765915621016,-6,10,1,0,0,0,0,0
2313,1765915621132,-4,8,2,0,0,0,0,0
2314,1765915621348,-5,9,1,0,0,0,0,0
2315,1765915621500,-5,8,2,0,0,0,0,0
2316,1765915621632,-5,9,1,0,0,0,0,0
2317,1765915621782,-5,8,1,0,0,0,0,0
2318,1765915621998,-5,10,2,0,0,0,0,0
2319,1765915622132,-5,9,1,0,0,0,0,0
2320,1765915622281,-7,8,2,0,0,0,0,0
2321,1765915622415,-6,9,2,0,0,0,0,0
2322,1765915622730,-4,8,2,0,0,0,0,0
2323,1765915622813,-4,7,1,0,0,0,0,0
2324,1765915623015,-4,7,2,0,0,0,0,0
2325,1765915623147,-4,9,1,0,0,0,0,0
2326,1765915623348,-6,9,1,0,0,0,0,0
2327,1765915623447,-5,9,2,0,0,0,0,0
2328,1765915623630,-5,9,2,0,0,0,0,0
2329,1765915623780,-6,9,1,0,0,0,0,0
2330,1765915623930,-6,9,1,0,0,0,0,0
2331,1765915624096,-4,8,2,0,0,0,0,0
2332,1765915624248,-5,9,1,0,0,0,0,0
2333,1765915624413,-4,9,1,0,0,0,0,0
2334,1765915624546,-7,9,1,0,0,0,0,0
2335,1765915624696,-4,9,1,0,0,0,0,0
2336,1765915624862,-6,8,2,0,0,0,0,0
2337,1765915625046,-6,10,1,0,0,0,0,0
2338,1765915625146,-5,8,1,0,0,0,0,0
2339,1765915625462,-6,9,2,0,0,0,0,0
2340,1765915625662,-5,9,1,0,0,0,0,0
2341,1765915625762,-7,8,1,0,0,0,0,0
2342,1765915625995,-5,9,1,0,0,0,0,0
2343,1765915626078,-6,9,2,0,0,0,0,0
2344,1765915626328,-3,8,2,0,0,0,0,0
2345,1765915626395,-5,9,1,0,0,0,0,0
2346,1765915626611,-5,8,1,0,0,0,0,0
2347,1765915626928,-6,8,2,0,0,0,0,0
2348,1765915627060,-4,9,2,0,0,0,0,0
2349,1765915627228,-5,8,1,0,0,0,0,0
2350,1765915627394,-5,9,1,0,0,0,0,0
2351,1765915627544,-6,9,0,0,0,0,0,0
2352,1765915627694,-5,9,1,0,0,0,0,0
2353,1765915627844,-6,9,2,0,0,0,0,0
2354,1765915628027,-5,9,2,0,0,0,0,0
2355,1765915628160,-5,9,2,0,0,0,0,0
2356,1765915628309,-6,8,2,0,0,0,0,0
2357,1765915628442,-4,10,2,0,0,0,0,0
2358,1765915628642,-6,9,1,0,0,0,0,0
2359,1765915628742,-5,9,1,0,0,0,0,0
2360,1765915628942,-6,7,2,0,0,0,0,0
2361,1765915629059,-6,9,1,0,0,0,0,0
2362,1765915629276,-5,9,1,0,0,0,0,0
2363,1765915629342,-5,8,1,0,0,0,0,0
2364,1765915629575,-7,10,1,0,0,0,0,0
2365,1765915629659,-6,8,2,0,0,0,0,0
2366,1765915629892,-3,9,1,0,0,0,0,0
2367,1765915629975,-6,8,1,0,0,0,0,0
2368,1765915630191,-5,10,1,0,0,0,0,0
2369,1765915630208,-4,10,1,0,0,0,0,0
2370,1765915630275,-4,8,1,0,0,0,0,0
2371,1765915630508,-4,8,2,0,0,0,0,0
2372,1765915630608,-5,8,0,0,0,0,0,0
2373,1765915630807,-6,9,1,0,0,0,0,0
2374,1765915631418,-6,8,1,0,0,0,0,0
2375,1765915631424,-8,8,2,0,0,0,0,0
2376,1765915631440,-8,9,2,0,0,0,0,0
2377,1765915631557,-6,9,1,0,0,0,0,0
2378,1765915631740,-6,9,2,0,0,0,0,0
2379,1765915631856,-5,8,2,0,0,0,0,0
2380,1765915632023,-5,8,2,0,0,0,0,0
2381,1765915632189,-6,9,1,0,0,0,0,0
2382,1765915632357,-7,8,2,0,0,0,0,0
2383,1765915632506,-6,8,2,0,0,0,0,0
2384,1765915632639,-5,9,2,0,0,0,0,0
2385,1765915632858,-6,9,1,0,0,0,0,0
2386,1765915632939,-3,8,1,0,0,0,0,0
2387,1765915633124,-5,10,2,0,0,0,0,0
2388,1765915633256,-6,7,2,0,0,0,0,0
2389,1765915633488,-6,8,2,0,0,0,0,0
2390,1765915633555,-6,9,2,0,0,0,0,0
2391,1765915633788,-6,7,1,0,0,0,0,0
2392,1765915633872,-5,9,2,0,0,0,0,0
2393,1765915634105,-6,8,3,0,0,0,0,0
2394,1765915634171,-4,10,2,0,0,0,0,0
2395,1765915634404,-5,8,1,0,0,0,0,0
2396,1765915634470,-5,9,2,0,0,0,0,0
2397,1765915634720,-5,9,1,0,0,0,0,0
2398,1765915634804,-4,8,1,0,0,0,0,0
2399,1765915635020,-5,8,0,0,0,0,0,0
2400,1765915635154,-6,8,0,0,0,0,0,0
2401,1765915635339,-3,9,2,0,0,0,0,0
2402,1765915635487,-4,9,2,0,0,0,0,0
2403,1765915635620,-5,9,2,0,0,0,0,0
2404,1765915635836,-6,10,1,0,0,0,0,0
2405,1765915635953,-6,8,1,0,0,0,0,0
2406,1765915636153,-6,10,2,0,0,0,0,0
2407,1765915636253,-6,9,2,0,0,0,0,0
2408,1765915636470,-4,6,5,0,0,0,0,0
2409,1765915636569,-6,9,-1,0,0,0,0,0
2410,1765915636786,-7,9,0,0,0,0,0,0
2411,1765915636885,-4,8,2,0,0,0,0,0
2412,1765915637085,-5,8,3,0,0,0,0,0
2413,1765915637204,-5,8,1,0,0,0,0,0
2414,1765915637418,-5,9,1,0,0,0,0,0
2415,1765915637535,-7,9,2,0,0,0,0,0
2416,1765915637718,-5,8,2,0,0,0,0,0
2417,1765915638035,-7,9,1,0,0,0,0,0
2418,1765915638185,-6,8,1,0,0,0,0,0
2419,1765915638318,-7,10,2,0,0,0,0,0
2420,1765915638518,-4,9,2,0,0,0,0,0
2421,1765915638634,-4,8,2,0,0,0,0,0
2422,1765915638850,-4,8,0,0,0,0,0,0
2423,1765915638934,-6,10,2,0,0,0,0,0
2424,1765915639168,-5,8,2,0,0,0,0,0
2425,1765915639233,-4,8,1,0,0,0,0,0
2426,1765915639484,-6,10,1,0,0,0,0,0
2427,1765915639550,-5,7,1,0,0,0,0,0
2428,1765915639783,-6,8,1,0,0,0,0,0
2429,1765915639884,-5,9,2,0,0,0,0,0
2430,1765915640100,-5,8,2,0,0,0,0,0
2431,1765915640183,-5,8,2,0,0,0,0,0
2432,1765915640382,-5,9,2,0,0,0,0,0
2433,1765915640516,-5,8,0,0,0,0,0,0
2434,1765915640700,-8,9,2,0,0,0,0,0
2435,1765915640832,-6,9,2,0,0,0,0,0
2436,1765915641015,-4,10,2,0,0,0,0,0
2437,1765915641182,-5,11,2,0,0,0,0,0
2438,1765915641315,-5,8,2,0,0,0,0,0
2439,1765915641515,-5,8,2,0,0,0,0,0
2440,1765915641598,-7,9,1,0,0,0,0,0
2441,1765915641683,-6,10,2,0,0,0,0,0
2442,1765915641814,-5,9,3,0,0,0,0,0
2443,1765915641981,-6,9,2,0,0,0,0,0
2444,1765915642379,-5,8,1,0,0,0,0,0
2445,1765915642397,-5,8,2,0,0,0,0,0
2446,1765915642448,-6,8,1,0,0,0,0,0
2447,1765915642597,-6,9,1,0,0,0,0,0
2448,1765915642731,-6,9,1,0,0,0,0,0
2449,1765915642899,-3,7,1,0,0,0,0,0
2450,1765915643081,-5,8,2,0,0,0,0,0
2451,1765915643247,-5,9,1,0,0,0,0,0
2452,1765915643381,-6,9,2,0,0,0,0,0
2453,1765915643530,-5,9,1,0,0,0,0,0
2454,1765915643664,-5,9,1,0,0,0,0,0
2455,1765915643731,-4,9,2,0,0,0,0,0
2456,1765915643896,-6,10,1,0,0,0,0,0
2457,1765915644013,-5,9,1,0,0,0,0,0
2458,1765915644163,-5,9,1,0,0,0,0,0
2459,1765915644296,-7,11,2,0,0,0,0,0
2460,1765915644362,-6,10,2,0,0,0,0,0
2461,1765915644462,-5,9,2,0,0,0,0,0
2462,1765915644646,-7,9,1,0,0,0,0,0
2463,1765915644746,-6,9,2,0,0,0,0,0
2464,1765915644929,-6,7,2,0,0,0,0,0
2465,1765915645030,-5,9,1,0,0,0,0,0
2466,1765915645062,-6,10,1,0,0,0,0,0
2467,1765915645263,-4,10,1,0,0,0,0,0
2468,1765915645345,-6,9,2,0,0,0,0,0
2469,1765915645529,-6,10,1,0,0,0,0,0
2470,1765915645629,-5,8,2,0,0,0,0,0
2471,1765915645862,-6,9,2,0,0,0,0,0
2472,1765915645978,-5,9,2,0,0,0,0,0
2473,1765915646145,-5,9,3,0,0,0,0,0
2474,1765915646261,-5,10,1,0,0,0,0,0
2475,1765915646445,-5,9,1,0,0,0,0,0
2476,1765915646612,-5,9,1,0,0,0,0,0
2477,1765915646744,-6,9,2,0,0,0,0,0
2478,1765915646895,-5,9,1,0,0,0,0,0
2479,1765915647027,-5,10,1,0,0,0,0,0
2480,1765915647061,-5,8,1,0,0,0,0,0
2481,1765915647244,-5,8,2,0,0,0,0,0
2482,1765915647327,-5,8,0,0,0,0,0,0
2483,1765915647543,-5,9,2,0,0,0,0,0
2484,1765915647610,-6,7,1,0,0,0,0,0
2485,1765915647826,-6,9,2,0,0,0,0,0
2486,1765915647926,-6,9,1,0,0,0,0,0
2487,1765915648110,-6,9,0,0,0,0,0,0
2488,1765915648226,-6,8,1,0,0,0,0,0
2489,1765915648427,-5,9,1,0,0,0,0,0
2490,1765915648559,-5,8,2,0,0,0,0,0
2491,1765915648692,-5,10,1,0,0,0,0,0
2492,1765915648859,-6,10,2,0,0,0,0,0
2493,1765915648959,-4,9,2,0,0,0,0,0
2494,1765915649192,-6,9,1,0,0,0,0,0
2495,1765915649259,-6,8,1,0,0,0,0,0
2496,1765915649492,-6,7,1,0,0,0,0,0
2497,1765915649558,-5,7,1,0,0,0,0,0
2498,1765915649858,-5,10,2,0,0,0,0,0
2499,1765915649991,-6,9,1,0,0,0,0,0
2500,1765915650158,-5,8,1,0,0,0,0,0
2501,1765915650323,-5,8,2,0,0,0,0,0
2502,1765915650474,-4,8,2,0,0,0,0,0
2503,1765915650590,-6,7,2,0,0,0,0,0
2504,1765915650757,-4,9,1,0,0,0,0,0
2505,1765915650907,-5,9,2,0,0,0,0,0
2506,1765915651041,-6,10,0,0,0,0,0,0
2507,1765915651190,-4,9,2,0,0,0,0,0
2508,1765915651357,-6,9,2,0,0,0,0,0
2509,1765915651507,-5,8,2,0,0,0,0,0
2510,1765915651656,-6,9,2,0,0,0,0,0
2511,1765915651823,-5,8,3,0,0,0,0,0
2512,1765915651972,-6,9,1,0,0,0,0,0
2513,1765915652140,-4,9,1,0,0,0,0,0
2514,1765915652272,-6,8,1,0,0,0,0,0
2515,1765915652588,-5,10,2,0,0,0,0,0
2516,1765915652756,-4,7,2,0,0,0,0,0
2517,1765915652889,-4,9,2,0,0,0,0,0
2518,1765915653307,-5,10,2,0,0,0,0,0
2519,1765915653323,-6,10,2,0,0,0,0,0
2520,1765915653422,-5,7,2,0,0,0,0,0
2521,1765915653488,-5,9,2,0,0,0,0,0
2522,1765915653721,-5,8,0,0,0,0,0,0
2523,1765915653806,-6,9,1,0,0,0,0,0
2524,1765915654023,-6,9,1,0,0,0,0,0
2525,1765915654105,-5,8,1,0,0,0,0,0
2526,1765915654338,-5,9,2,0,0,0,0,0
2527,1765915654438,-5,9,3,0,0,0,0,0
2528,1765915654655,-7,8,2,0,0,0,0,0
2529,1765915654720,-5,10,2,0,0,0,0,0
2530,1765915654937,-6,11,1,0,0,0,0,0
2531,1765915655054,-6,9,1,0,0,0,0,0
2532,1765915655268,-5,8,1,0,0,0,0,0
2533,1765915655352,-6,9,2,0,0,0,0,0
2534,1765915655552,-5,9,2,0,0,0,0,0
2535,1765915655686,-6,9,1,0,0,0,0,0
2536,1765915655853,-5,9,2,0,0,0,0,0
2537,1765915655987,-5,8,1,0,0,0,0,0
2538,1765915656169,-4,8,1,0,0,0,0,0
2539,1765915656335,-5,9,1,0,0,0,0,0
2540,1765915656469,-5,10,1,0,0,0,0,0
2541,1765915656786,-7,9,2,0,0,0,0,0
2542,1765915656952,-5,8,1,0,0,0,0,0
2543,1765915657069,-5,9,2,0,0,0,0,0
2544,1765915657269,-6,9,1,0,0,0,0,0
2545,1765915657402,-5,9,2,0,0,0,0,0
2546,1765915657568,-7,8,3,0,0,0,0,0
2547,1765915657685,-5,8,1,0,0,0,0,0
2548,1765915657901,-5,8,1,0,0,0,0,0
2549,1765915657985,-6,9,1,0,0,0,0,0
2550,1765915658185,-6,8,1,0,0,0,0,0
2551,1765915658284,-5,8,1,0,0,0,0,0
2552,1765915658534,-6,8,3,0,0,0,0,0
2553,1765915658584,-5,9,1,0,0,0,0,0
2554,1765915658834,-6,8,1,0,0,0,0,0
2555,1765915658917,-4,10,2,0,0,0,0,0
2556,1765915659134,-6,8,3,0,0,0,0,0
2557,1765915659217,-6,9,1,0,0,0,0,0
2558,1765915659468,-6,8,1,0,0,0,0,0
2559,1765915659533,-6,8,1,0,0,0,0,0
2560,1765915659749,-5,8,1,0,0,0,0,0
2561,1765915659866,-7,10,2,0,0,0,0,0
2562,1765915660049,-5,9,1,0,0,0,0,0
2563,1765915660166,-6,8,2,0,0,0,0,0
2564,1765915660366,-7,9,1,0,0,0,0,0
2565,1765915660499,-5,8,1,0,0,0,0,0
2566,1765915660665,-5,9,1,0,0,0,0,0
2567,1765915660815,-5,9,1,0,0,0,0,0
2568,1765915660982,-5,9,2,0,0,0,0,0
2569,1765915661149,-5,9,2,0,0,0,0,0
2570,1765915661265,-5,9,2,0,0,0,0,0
2571,1765915661481,-6,8,1,0,0,0,0,0
2572,1765915661582,-6,9,2,0,0,0,0,0
2573,1765915661781,-6,9,2,0,0,0,0,0
2574,1765915661882,-7,8,2,0,0,0,0,0
2575,1765915662098,-3,8,2,0,0,0,0,0
2576,1765915662214,-5,8,2,0,0,0,0,0
2577,1765915662415,-5,10,2,0,0,0,0,0
2578,1765915662498,-3,9,2,0,0,0,0,0
2579,1765915662731,-4,10,1,0,0,0,0,0
2580,1765915662813,-7,9,2,0,0,0,0,0
2581,1765915663064,-5,9,1,0,0,0,0,0
2582,1765915663130,-5,9,2,0,0,0,0,0
2583,1765915663363,-6,8,2,0,0,0,0,0
2584,1765915663447,-5,7,2,0,0,0,0,0
2585,1765915663680,-5,9,2,0,0,0,0,0
2586,1765915663797,-5,9,1,0,0,0,0,0
2587,1765915664238,-5,10,2,0,0,0,0,0
2588,1765915664246,-5,9,2,0,0,0,0,0
2589,1765915664262,-5,8,2,0,0,0,0,0
2590,1765915664279,-5,9,3,0,0,0,0,0
2591,1765915664446,-5,8,1,0,0,0,0,0
2592,1765915664579,-5,9,2,0,0,0,0,0
2593,1765915664761,-5,7,1,0,0,0,0,0
2594,1765915664879,-5,8,0,0,0,0,0,0
2595,1765915665061,-5,9,1,0,0,0,0,0
2596,1765915665195,-6,8,2,0,0,0,0,0
2597,1765915665396,-7,8,1,0,0,0,0,0
2598,1765915665479,-7,9,1,0,0,0,0,0
2599,1765915665711,-6,9,2,0,0,0,0,0
2600,1765915665812,-6,10,2,0,0,0,0,0
2601,1765915666029,-6,9,2,0,0,0,0,0
2602,1765915666111,-5,7,1,0,0,0,0,0
2603,1765915666326,-5,8,2,0,0,0,0,0
2604,1765915666360,-4,9,1,0,0,0,0,0
2605,1765915666410,-5,9,2,0,0,0,0,0
2606,1765915666643,-5,7,2,0,0,0,0,0
2607,1765915666727,-6,10,2,0,0,0,0,0
2608,1765915666943,-6,9,2,0,0,0,0,0
2609,1765915667260,-6,9,1,0,0,0,0,0
2610,1765915667361,-6,8,0,0,0,0,0,0
2611,1765915667560,-6,8,2,0,0,0,0,0
2612,1765915667692,-5,8,2,0,0,0,0,0
2613,1765915667876,-7,7,2,0,0,0,0,0
2614,1765915667993,-6,8,1,0,0,0,0,0
2615,1765915668159,-6,9,2,0,0,0,0,0
2616,1765915668326,-6,9,1,0,0,0,0,0
2617,1765915668476,-5,10,2,0,0,0,0,0
2618,1765915668608,-5,8,2,0,0,0,0,0
2619,1765915668775,-5,9,3,0,0,0,0,0
2620,1765915668925,-5,8,1,0,0,0,0,0
2621,1765915669075,-6,10,0,0,0,0,0,0
2622,1765915669208,-6,11,1,0,0,0,0,0
2623,1765915669391,-4,8,3,0,0,0,0,0
2624,1765915669542,-9,10,1,0,0,0,0,0
2625,1765915669692,-2,9,2,0,0,0,0,0
2626,1765915669874,-9,8,2,0,0,0,0,0
2627,1765915669974,-2,8,2,0,0,0,0,0
2628,1765915670207,-6,8,3,0,0,0,0,0
2629,1765915670275,-5,8,1,0,0,0,0,0
2630,1765915670391,-4,9,2,0,0,0,0,0
2631,1765915670457,-4,9,1,0,0,0,0,0
2632,1765915670508,-4,9,2,0,0,0,0,0
2633,1765915670575,-4,9,2,0,0,0,0,0
2634,1765915670640,-6,8,2,0,0,0,0,0
2635,1765915670707,-6,9,2,0,0,0,0,0
2636,1765915670757,-8,11,2,0,0,0,0,0
2637,1765915670824,-6,8,3,0,0,0,0,0
2638,1765915670874,-6,10,2,0,0,0,0,0
2639,1765915670941,-5,11,1,0,0,0,0,0
2640,1765915670990,-5,9,2,0,0,0,0,0
2641,1765915671057,-7,7,1,0,0,0,0,0
2642,1765915671107,-4,9,3,0,0,0,0,0
2643,1765915671174,-6,9,2,0,0,0,0,0
2644,1765915671240,-4,9,2,0,0,0,0,0
2645,1765915671306,-5,9,1,0,0,0,0,0
2646,1765915671373,-8,10,2,0,0,0,0,0
2647,1765915671473,-6,10,1,0,0,0,0,0
2648,1765915671523,-5,8,2,0,0,0,0,0
2649,1765915671590,-6,8,3,0,0,0,0,0
2650,1765915671657,-5,10,1,0,0,0,0,0
2651,1765915671723,-7,8,1,0,0,0,0,0
2652,1765915671773,-5,9,0,0,0,0,0,0
2653,1765915671839,-6,9,3,0,0,0,0,0
2654,1765915671889,-5,8,1,0,0,0,0,0
2655,1765915671956,-5,10,1,0,0,0,0,0
2656,1765915672006,-6,9,1,0,0,0,0,0
2657,1765915672073,-6,8,3,0,0,0,0,0
2658,1765915672138,-4,9,2,0,0,0,0,0
2659,1765915672206,-5,9,1,0,0,0,0,0
2660,1765915672256,-5,10,2,0,0,0,0,0
2661,1765915672323,-6,8,3,0,0,0,0,0
2662,1765915672372,-6,8,2,0,0,0,0,0
2663,1765915672438,-6,9,1,0,0,0,0,0
2664,1765915672489,-5,8,1,0,0,0,0,0
2665,1765915672556,-7,9,2,0,0,0,0,0
2666,1765915672606,-4,8,1,0,0,0,0,0
2667,1765915672672,-5,10,1,0,0,0,0,0
2668,1765915672739,-5,9,2,0,0,0,0,0
2669,1765915672789,-4,9,2,0,0,0,0,0
2670,1765915672856,-6,10,0,0,0,0,0,0
2671,1765915672922,-5,8,1,0,0,0,0,0
2672,1765915672989,-5,10,1,0,0,0,0,0
2673,1765915673038,-6,9,1,0,0,0,0,0
2674,1765915673105,-7,8,2,0,0,0,0,0
2675,1765915673155,-5,8,1,0,0,0,0,0
2676,1765915673222,-6,9,1,0,0,0,0,0
2677,1765915673272,-7,9,2,0,0,0,0,0
2678,1765915673337,-5,9,1,0,0,0,0,0
2679,1765915673405,-5,8,2,0,0,0,0,0
2680,1765915673472,-4,10,1,0,0,0,0,0
2681,1765915673521,-5,9,2,0,0,0,0,0
2682,1765915673588,-7,8,2,0,0,0,0,0
2683,1765915673638,-6,9,2,0,0,0,0,0
2684,1765915673705,-6,8,0,0,0,0,0,0
2685,1765915673754,-6,9,2,0,0,0,0,0
2686,1765915673820,-6,10,1,0,0,0,0,0
2687,1765915673871,-5,8,1,0,0,0,0,0
2688,1765915673938,-5,9,2,0,0,0,0,0
2689,1765915674004,-4,9,2,0,0,0,0,0
2690,1765915674071,-5,8,2,0,0,0,0,0
2691,1765915674121,-6,9,2,0,0,0,0,0
2692,1765915674187,-5,10,2,0,0,0,0,0
2693,1765915674238,-6,7,2,0,0,0,0,0
2694,1765915674304,-5,7,2,0,0,0,0,0
2695,1765915674354,-5,11,2,0,0,0,0,0
2696,1765915674421,-5,8,1,0,0,0,0,0
2697,1765915674486,-6,10,0,0,0,0,0,0
2698,1765915674538,-6,9,3,0,0,0,0,0
2699,1765915674604,-7,9,2,0,0,0,0,0
2700,1765915674671,-3,10,1,0,0,0,0,0
2701,1765915674720,-6,7,2,0,0,0,0,0
2702,1765915674787,-5,10,2,0,0,0,0,0
2703,1765915675166,-3,9,2,0,0,0,0,0
2704,1765915675188,-7,8,1,0,0,0,0,0
2705,1765915675188,-5,10,1,0,0,0,0,0
2706,1765915675188,-3,8,2,0,0,0,0,0
2707,1765915675188,-7,9,2,0,0,0,0,0
2708,1765915675188,-5,10,1,0,0,0,0,0
2709,1765915675203,-5,7,1,0,0,0,0,0
2710,1765915675273,-8,9,1,0,0,0,0,0
2711,1765915675320,-5,10,1,0,0,0,0,0
2712,1765915675387,-6,10,0,0,0,0,0,0
2713,1765915675437,-6,8,2,0,0,0,0,0
2714,1765915675503,-5,9,1,0,0,0,0,0
2715,1765915675553,-6,8,2,0,0,0,0,0
2716,1765915675620,-7,9,2,0,0,0,0,0
2717,1765915675686,-6,9,2,0,0,0,0,0
2718,1765915675737,-7,9,2,0,0,0,0,0
2719,1765915675802,-6,10,2,0,0,0,0,0
2720,1765915675870,-6,7,1,0,0,0,0,0
2721,1765915675919,-6,10,2,0,0,0,0,0
2722,1765915675987,-5,9,2,0,0,0,0,0
2723,1765915676037,-4,9,2,0,0,0,0,0
2724,1765915676102,-5,9,2,0,0,0,0,0
2725,1765915676153,-6,7,2,0,0,0,0,0
2726,1765915676219,-6,9,1,0,0,0,0,0
2727,1765915676285,-6,10,2,0,0,0,0,0
2728,1765915676503,-6,10,1,0,0,0,0,0
2729,1765915676604,-5,8,2,0,0,0,0,0
2730,1765915676785,-7,8,3,0,0,0,0,0
2731,1765915676886,-5,9,1,0,0,0,0,0
2732,1765915677101,-7,8,2,0,0,0,0,0
2733,1765915677217,-5,9,3,0,0,0,0,0
2734,1765915677268,-7,10,2,0,0,0,0,0
2735,1765915677334,-5,10,0,0,0,0,0,0
2736,1765915677401,-5,9,1,0,0,0,0,0
2737,1765915677468,-5,9,2,0,0,0,0,0
2738,1765915677518,-6,10,1,0,0,0,0,0
2739,1765915677585,-6,6,2,0,0,0,0,0
2740,1765915677637,-5,10,2,0,0,0,0,0
2741,1765915677701,-4,10,2,0,0,0,0,0
2742,1765915677751,-6,7,2,0,0,0,0,0
2743,1765915677818,-5,9,1,0,0,0,0,0
2744,1765915677867,-5,11,2,0,0,0,0,0
2745,1765915677934,-7,9,1,0,0,0,0,0
2746,1765915678001,-5,8,0,0,0,0,0,0
2747,1765915678067,-6,9,2,0,0,0,0,0
2748,1765915678118,-7,9,3,0,0,0,0,0
2749,1765915678184,-5,8,1,0,0,0,0,0
2750,1765915678233,-5,10,0,0,0,0,0,0
2751,1765915678301,-6,9,2,0,0,0,0,0
2752,1765915678351,-5,8,2,0,0,0,0,0
2753,1765915678417,-6,9,2,0,0,0,0,0
2754,1765915678468,-5,9,1,0,0,0,0,0
2755,1765915678533,-5,11,0,0,0,0,0,0
2756,1765915678600,-6,9,3,0,0,0,0,0
2757,1765915678666,-5,9,2,0,0,0,0,0
2758,1765915678718,-6,9,3,0,0,0,0,0
2759,1765915678783,-6,7,1,0,0,0,0,0
2760,1765915678833,-6,8,2,0,0,0,0,0
2761,1765915678901,-5,10,3,0,0,0,0,0
2762,1765915678950,-6,9,3,0,0,0,0,0
2763,1765915679017,-4,10,0,0,0,0,0,0
2764,1765915679067,-4,9,1,0,0,0,0,0
2765,1765915679133,-6,10,2,0,0,0,0,0
2766,1765915679200,-3,8,2,0,0,0,0,0
2767,1765915679267,-8,8,0,0,0,0,0,0
2768,1765915679332,-5,10,3,0,0,0,0,0
2769,1765915679384,-5,8,1,0,0,0,0,0
2770,1765915679450,-5,8,1,0,0,0,0,0
2771,1765915679500,-6,8,2,0,0,0,0,0
2772,1765915679567,-6,9,1,0,0,0,0,0
2773,1765915679616,-4,8,2,0,0,0,0,0
2774,1765915679683,-5,9,2,0,0,0,0,0
2775,1765915679734,-5,9,1,0,0,0,0,0
2776,1765915679799,-4,9,1,0,0,0,0,0
2777,1765915679866,-7,7,2,0,0,0,0,0
2778,1765915679933,-6,9,2,0,0,0,0,0
2779,1765915679983,-5,8,2,0,0,0,0,0
2780,1765915680049,-6,9,1,0,0,0,0,0
2781,1765915680099,-6,9,2,0,0,0,0,0
2782,1765915680166,-8,9,1,0,0,0,0,0
2783,1765915680216,-6,10,1,0,0,0,0,0
2784,1765915680283,-5,10,1,0,0,0,0,0
2785,1765915680332,-6,8,1,0,0,0,0,0
2786,1765915680400,-6,9,2,0,0,0,0,0
2787,1765915680465,-5,8,3,0,0,0,0,0
2788,1765915680532,-5,10,1,0,0,0,0,0
2789,1765915680582,-5,9,1,0,0,0,0,0
2790,1765915680649,-6,9,2,0,0,0,0,0
2791,1765915680699,-6,9,1,0,0,0,0,0
2792,1765915680765,-5,9,2,0,0,0,0,0
2793,1765915680815,-4,9,3,0,0,0,0,0
2794,1765915680881,-5,10,2,0,0,0,0,0
2795,1765915680949,-6,9,2,0,0,0,0,0
2796,1765915680999,-5,9,3,0,0,0,0,0
2797,1765915681065,-6,10,2,0,0,0,0,0
2798,1765915681132,-6,9,2,0,0,0,0,0
2799,1765915681182,-5,9,2,0,0,0,0,0
2800,1765915681249,-5,9,1,0,0,0,0,0
2801,1765915681298,-7,9,1,0,0,0,0,0
2802,1765915681365,-4,8,1,0,0,0,0,0
2803,1765915681415,-6,10,2,0,0,0,0,0
2804,1765915681481,-6,8,1,0,0,0,0,0
2805,1765915681547,-6,9,1,0,0,0,0,0
2806,1765915681614,-6,10,1,0,0,0,0,0
2807,1765915681665,-5,10,2,0,0,0,0,0
2808,1765915681731,-6,9,0,0,0,0,0,0
2809,1765915681782,-5,8,2,0,0,0,0,0
2810,1765915681848,-6,8,1,0,0,0,0,0
2811,1765915681897,-7,9,3,0,0,0,0,0
2812,1765915681964,-4,9,2,0,0,0,0,0
2813,1765915682015,-6,9,1,0,0,0,0,0
2814,1765915682081,-5,7,2,0,0,0,0,0
2815,1765915682147,-5,9,2,0,0,0,0,0
2816,1765915682198,-5,8,1,0,0,0,0,0
2817,1765915682265,-5,7,2,0,0,0,0,0
2818,1765915682313,-6,8,2,0,0,0,0,0
2819,1765915682380,-4,7,1,0,0,0,0,0
2820,1765915682431,-7,10,1,0,0,0,0,0
2821,1765915682497,-5,11,2,0,0,0,0,0
2822,1765915682564,-6,9,0,0,0,0,0,0
2823,1765915682631,-7,10,1,0,0,0,0,0
2824,1765915682682,-6,10,2,0,0,0,0,0
2825,1765915682747,-6,9,1,0,0,0,0,0
2826,1765915682797,-5,9,2,0,0,0,0,0
2827,1765915682864,-5,10,1,0,0,0,0,0
2828,1765915682914,-6,9,1,0,0,0,0,0
2829,1765915682980,-6,9,2,0,0,0,0,0
2830,1765915683030,-5,8,1,0,0,0,0,0
2831,1765915683097,-6,9,1,0,0,0,0,0
2832,1765915683163,-5,9,1,0,0,0,0,0
2833,1765915683230,-5,9,1,0,0,0,0,0
2834,1765915683280,-5,9,1,0,0,0,0,0
2835,1765915683346,-5,8,1,0,0,0,0,0
2836,1765915683396,-4,10,2,0,0,0,0,0
2837,1765915683463,-5,9,1,0,0,0,0,0
2838,1765915683513,-6,9,1,0,0,0,0,0
2839,1765915683580,-6,9,2,0,0,0,0,0
2840,1765915683646,-7,8,2,0,0,0,0,0
2841,1765915683698,-5,9,1,0,0,0,0,0
2842,1765915683763,-4,9,2,0,0,0,0,0
2843,1765915683829,-6,9,1,0,0,0,0,0
2844,1765915683880,-5,10,2,0,0,0,0,0
2845,1765915683947,-5,10,2,0,0,0,0,0
2846,1765915683995,-6,9,3,0,0,0,0,0
2847,1765915684062,-4,9,2,0,0,0,0,0
2848,1765915684113,-6,8,1,0,0,0,0,0
2849,1765915684179,-6,10,1,0,0,0,0,0
2850,1765915684246,-5,9,2,0,0,0,0,0
2851,1765915684296,-5,9,2,0,0,0,0,0
2852,1765915684363,-6,8,2,0,0,0,0,0
2853,1765915684428,-6,10,1,0,0,0,0,0
2854,1765915684479,-4,9,1,0,0,0,0,0
2855,1765915684546,-4,9,1,0,0,0,0,0
2856,1765915684595,-7,8,2,0,0,0,0,0
2857,1765915684662,-4,10,2,0,0,0,0,0
2858,1765915684714,-5,9,1,0,0,0,0,0
2859,1765915684779,-6,9,2,0,0,0,0,0
2860,1765915684845,-5,9,2,0,0,0,0,0
2861,1765915684911,-6,9,2,0,0,0,0,0
2862,1765915684962,-5,8,2,0,0,0,0,0
2863,1765915685028,-7,10,1,0,0,0,0,0
2864,1765915685078,-6,10,2,0,0,0,0,0
2865,1765915685145,-5,9,1,0,0,0,0,0
2866,1765915685195,-5,9,2,0,0,0,0,0
2867,1765915685263,-5,8,0,0,0,0,0,0
2868,1765915685328,-6,9,1,0,0,0,0,0
2869,1765915685395,-6,9,1,0,0,0,0,0
2870,1765915685445,-5,8,2,0,0,0,0,0
2871,1765915685511,-6,10,2,0,0,0,0,0
2872,1765915685577,-5,9,2,0,0,0,0,0
2873,1765915685628,-5,8,1,0,0,0,0,0
2874,1765915685694,-7,10,2,0,0,0,0,0
2875,1765915686095,-5,9,1,0,0,0,0,0
2876,1765915686110,-6,10,1,0,0,0,0,0
2877,1765915686110,-4,9,2,0,0,0,0,0
2878,1765915686110,-6,8,1,0,0,0,0,0
2879,1765915686110,-5,8,1,0,0,0,0,0
2880,1765915686128,-5,8,2,0,0,0,0,0
2881,1765915686128,-4,9,1,0,0,0,0,0
2882,1765915686177,-7,9,3,0,0,0,0,0
2883,1765915686227,-5,10,2,0,0,0,0,0
2884,1765915686293,-6,8,2,0,0,0,0,0
2885,1765915686343,-4,8,1,0,0,0,0,0
2886,1765915686411,-5,10,1,0,0,0,0,0
2887,1765915686460,-5,10,3,0,0,0,0,0
2888,1765915686527,-4,7,2,0,0,0,0,0
2889,1765915686593,-6,11,2,0,0,0,0,0
2890,1765915686660,-7,10,1,0,0,0,0,0
2891,1765915686711,-7,9,2,0,0,0,0,0
2892,1765915686779,-5,9,1,0,0,0,0,0
2893,1765915686828,-7,8,2,0,0,0,0,0
2894,1765915686894,-6,8,3,0,0,0,0,0
2895,1765915686944,-5,9,2,0,0,0,0,0
2896,1765915687010,-5,8,1,0,0,0,0,0
2897,1765915687060,-7,8,2,0,0,0,0,0
2898,1765915687127,-7,8,0,0,0,0,0,0
2899,1765915687192,-5,9,2,0,0,0,0,0
2900,1765915687259,-5,8,1,0,0,0,0,0
2901,1765915687309,-5,9,1,0,0,0,0,0
2902,1765915687375,-5,9,1,0,0,0,0,0
2903,1765915687425,-7,10,2,0,0,0,0,0
2904,1765915687492,-5,8,2,0,0,0,0,0
2905,1765915687543,-5,9,2,0,0,0,0,0
2906,1765915687608,-6,10,2,0,0,0,0,0
2907,1765915687675,-6,8,1,0,0,0,0,0
2908,1765915687726,-5,9,1,0,0,0,0,0
2909,1765915687792,-7,7,1,0,0,0,0,0
2910,1765915687858,-4,9,3,0,0,0,0,0
2911,1765915687908,-6,10,1,0,0,0,0,0
2912,1765915687958,-5,9,1,0,0,0,0,0
2913,1765915688024,-6,9,2,0,0,0,0,0
2914,1765915688075,-6,7,1,0,0,0,0,0
2915,1765915688142,-6,9,2,0,0,0,0,0
2916,1765915688209,-5,10,0,0,0,0,0,0
2917,1765915688275,-5,8,2,0,0,0,0,0
2918,1765915688324,-5,8,0,0,0,0,0,0
2919,1765915688392,-5,8,2,0,0,0,0,0
2920,1765915688441,-4,9,0,0,0,0,0,0
2921,1765915688507,-5,9,2,0,0,0,0,0
2922,1765915688557,-4,8,2,0,0,0,0,0
2923,1765915688624,-5,8,1,0,0,0,0,0
2924,1765915688690,-6,11,2,0,0,0,0,0
2925,1765915688742,-4,7,1,0,0,0,0,0
2926,1765915688808,-5,8,0,0,0,0,0,0
2927,1765915688873,-6,9,2,0,0,0,0,0
2928,1765915688924,-5,8,1,0,0,0,0,0
2929,1765915688990,-5,9,1,0,0,0,0,0
2930,1765915689041,-6,10,1,0,0,0,0,0
2931,1765915689107,-5,9,1,0,0,0,0,0
2932,1765915689157,-5,8,2,0,0,0,0,0
2933,1765915689224,-6,10,3,0,0,0,0,0
2934,1765915689290,-5,9,1,0,0,0,0,0
2935,1765915689341,-7,9,1,0,0,0,0,0
2936,1765915689409,-5,10,2,0,0,0,0,0
2937,1765915689475,-6,9,1,0,0,0,0,0
2938,1765915689524,-7,9,3,0,0,0,0,0
2939,1765915689590,-6,7,2,0,0,0,0,0
2940,1765915689640,-5,9,2,0,0,0,0,0
2941,1765915689707,-6,10,1,0,0,0,0,0
2942,1765915689756,-6,8,1,0,0,0,0,0
2943,1765915689823,-6,10,2,0,0,0,0,0
2944,1765915689890,-7,9,2,0,0,0,0,0
2945,1765915689941,-5,9,2,0,0,0,0,0
2946,1765915690006,-5,8,2,0,0,0,0,0
2947,1765915690073,-5,8,2,0,0,0,0,0
2948,1765915690123,-6,9,2,0,0,0,0,0
2949,1765915690190,-6,8,2,0,0,0,0,0
2950,1765915690239,-7,9,2,0,0,0,0,0
2951,1765915690306,-6,8,3,0,0,0,0,0
2952,1765915690358,-5,9,1,0,0,0,0,0
2953,1765915690425,-5,8,1,0,0,0,0,0
2954,1765915690490,-5,8,2,0,0,0,0,0
2955,1765915690557,-6,9,2,0,0,0,0,0
2956,1765915690607,-6,9,3,0,0,0,0,0
2957,1765915690673,-4,9,1,0,0,0,0,0
2958,1765915690739,-5,9,1,0,0,0,0,0
2959,1765915690790,-6,10,2,0,0,0,0,0
2960,1765915690855,-6,8,2,0,0,0,0,0
2961,1765915690905,-5,8,1,0,0,0,0,0
2962,1765915690972,-5,10,2,0,0,0,0,0
2963,1765915691023,-6,8,2,0,0,0,0,0
2964,1765915691090,-6,9,1,0,0,0,0,0
2965,1765915691155,-7,10,1,0,0,0,0,0
2966,1765915691222,-4,7,1,0,0,0,0,0
2967,1765915691271,-7,8,3,0,0,0,0,0
2968,1765915691338,-5,10,1,0,0,0,0,0
2969,1765915691389,-5,9,2,0,0,0,0,0
2970,1765915691455,-6,9,3,0,0,0,0,0
2971,1765915691505,-5,10,2,0,0,0,0,0
2972,1765915691571,-6,9,2,0,0,0,0,0
2973,1765915691622,-7,10,2,0,0,0,0,0
2974,1765915691688,-4,8,2,0,0,0,0,0
2975,1765915691754,-8,9,2,0,0,0,0,0
2976,1765915691822,-6,10,3,0,0,0,0,0
2977,1765915691871,-7,8,1,0,0,0,0,0
2978,1765915691938,-6,10,2,0,0,0,0,0
2979,1765915691988,-5,11,1,0,0,0,0,0
2980,1765915692054,-6,9,2,0,0,0,0,0
2981,1765915692104,-5,9,1,0,0,0,0,0
2982,1765915692171,-6,10,2,0,0,0,0,0
2983,1765915692237,-7,9,2,0,0,0,0,0
2984,1765915692287,-6,8,1,0,0,0,0,0
2985,1765915692354,-5,9,2,0,0,0,0,0
2986,1765915692420,-8,9,1,0,0,0,0,0
2987,1765915692470,-6,9,1,0,0,0,0,0
2988,1765915692537,-7,8,2,0,0,0,0,0
2989,1765915692587,-5,8,2,0,0,0,0,0
2990,1765915692653,-6,8,2,0,0,0,0,0
2991,1765915692704,-7,9,2,0,0,0,0,0
2992,1765915692770,-4,9,1,0,0,0,0,0
2993,1765915692837,-4,8,2,0,0,0,0,0
2994,1765915692888,-5,9,2,0,0,0,0,0
2995,1765915692955,-7,9,0,0,0,0,0,0
2996,1765915693020,-6,10,1,0,0,0,0,0
2997,1765915693070,-5,9,1,0,0,0,0,0
2998,1765915693137,-6,9,2,0,0,0,0,0
2999,1765915693187,-6,9,1,0,0,0,0,0
3000,1765915693253,-6,9,2,0,0,0,0,0
3001,1765915693304,-6,10,1,0,0,0,0,0
3002,1765915693370,-5,9,0,0,0,0,0,0
3003,1765915693437,-4,9,2,0,0,0,0,0
3004,1765915693503,-6,9,1,0,0,0,0,0
3005,1765915693570,-6,9,1,0,0,0,0,0
3006,1765915693669,-5,9,2,0,0,0,0,0
3007,1765915693720,-5,8,2,0,0,0,0,0
3008,1765915693787,-5,10,3,0,0,0,0,0
3009,1765915693853,-5,9,2,0,0,0,0,0
3010,1765915693920,-5,8,2,0,0,0,0,0
3011,1765915693970,-4,9,1,0,0,0,0,0
3012,1765915694036,-7,9,1,0,0,0,0,0
3013,1765915694086,-6,8,2,0,0,0,0,0
3014,1765915694153,-4,8,2,0,0,0,0,0
3015,1765915694203,-6,8,1,0,0,0,0,0
3016,1765915694269,-7,9,1,0,0,0,0,0
3017,1765915694320,-4,8,1,0,0,0,0,0
3018,1765915694387,-3,10,1,0,0,0,0,0
3019,1765915694452,-6,8,1,0,0,0,0,0
3020,1765915694519,-4,9,1,0,0,0,0,0
3021,1765915694568,-5,9,2,0,0,0,0,0
3022,1765915694635,-7,10,2,0,0,0,0,0
3023,1765915694702,-6,9,2,0,0,0,0,0
3024,1765915694754,-5,9,1,0,0,0,0,0
3025,1765915694819,-4,9,1,0,0,0,0,0
3026,1765915694869,-7,8,1,0,0,0,0,0
3027,1765915694936,-5,8,1,0,0,0,0,0
3028,1765915694986,-6,10,1,0,0,0,0,0
3029,1765915695053,-4,8,1,0,0,0,0,0
3030,1765915695118,-6,8,2,0,0,0,0,0
3031,1765915695185,-6,8,1,0,0,0,0,0
3032,1765915695235,-4,9,0,0,0,0,0,0
3033,1765915695302,-7,8,0,0,0,0,0,0
3034,1765915695351,-5,9,2,0,0,0,0,0
3035,1765915695418,-7,9,3,0,0,0,0,0
3036,1765915695469,-6,8,2,0,0,0,0,0
3037,1765915695535,-6,8,1,0,0,0,0,0
3038,1765915695602,-5,9,2,0,0,0,0,0
3039,1765915695652,-6,9,2,0,0,0,0,0
3040,1765915695719,-5,7,1,0,0,0,0,0
3041,1765915695785,-5,9,2,0,0,0,0,0
3042,1765915695836,-5,9,1,0,0,0,0,0
3043,1765915695902,-6,9,1,0,0,0,0,0
3044,1765915695951,-5,10,1,0,0,0,0,0
3045,1765915696017,-6,7,1,0,0,0,0,0
3046,1765915696068,-4,9,2,0,0,0,0,0
3047,1765915696134,-7,10,3,0,0,0,0,0
3048,1765915696201,-3,9,2,0,0,0,0,0
3049,1765915696268,-6,10,2,0,0,0,0,0
3050,1765915696318,-5,9,3,0,0,0,0,0
3051,1765915696384,-5,9,2,0,0,0,0,0
3052,1765915696435,-6,9,2,0,0,0,0,0
3053,1765915696501,-5,10,2,0,0,0,0,0
3054,1765915696550,-5,9,1,0,0,0,0,0
3055,1765915696617,-6,8,0,0,0,0,0,0
3056,1765915697002,-3,8,3,0,0,0,0,0
3057,1765915697017,-7,9,1,0,0,0,0,0
3058,1765915697017,-6,8,1,0,0,0,0,0
3059,1765915697017,-6,9,2,0,0,0,0,0
3060,1765915697017,-5,9,1,0,0,0,0,0
3061,1765915697017,-5,8,1,0,0,0,0,0
3062,1765915697033,-5,8,2,0,0,0,0,0
3063,1765915697100,-6,9,2,0,0,0,0,0
3064,1765915697150,-5,9,1,0,0,0,0,0
3065,1765915697217,-5,8,1,0,0,0,0,0
3066,1765915697267,-6,8,3,0,0,0,0,0
3067,1765915697334,-5,7,2,0,0,0,0,0
3068,1765915697401,-5,9,1,0,0,0,0,0
3069,1765915697467,-6,8,1,0,0,0,0,0
3070,1765915697517,-6,8,2,0,0,0,0,0
3071,1765915697583,-6,7,3,0,0,0,0,0
3072,1765915697650,-6,8,2,0,0,0,0,0
3073,1765915697700,-4,9,2,0,0,0,0,0
3074,1765915697750,-5,10,1,0,0,0,0,0
3075,1765915697817,-5,9,1,0,0,0,0,0
3076,1765915697882,-5,9,-1,0,0,0,0,0
3077,1765915697949,-6,10,2,0,0,0,0,0
3078,1765915697999,-5,9,1,0,0,0,0,0
3079,1765915698066,-5,8,2,0,0,0,0,0
3080,1765915698132,-5,9,3,0,0,0,0,0
3081,1765915698182,-7,10,1,0,0,0,0,0
3082,1765915698250,-5,8,2,0,0,0,0,0
3083,1765915698300,-8,10,1,0,0,0,0,0
3084,1765915698367,-7,8,1,0,0,0,0,0
3085,1765915698416,-6,8,2,0,0,0,0,0
3086,1765915698482,-6,8,2,0,0,0,0,0
3087,1765915698533,-5,8,1,0,0,0,0,0
3088,1765915698599,-5,9,1,0,0,0,0,0
3089,1765915698667,-6,7,1,0,0,0,0,0
3090,1765915698732,-5,10,2,0,0,0,0,0
3091,1765915698782,-5,9,1,0,0,0,0,0
3092,1765915698848,-5,9,1,0,0,0,0,0
3093,1765915698898,-6,9,1,0,0,0,0,0
3094,1765915698965,-5,9,0,0,0,0,0,0
3095,1765915699016,-5,8,3,0,0,0,0,0
3096,1765915699083,-5,9,1,0,0,0,0,0
3097,1765915699150,-5,11,1,0,0,0,0,0
3098,1765915699199,-6,7,2,0,0,0,0,0
3099,1765915699265,-6,8,2,0,0,0,0,0
3100,1765915699332,-5,9,3,0,0,0,0,0
3101,1765915699448,-6,8,2,0,0,0,0,0
3102,1765915699515,-6,9,2,0,0,0,0,0
3103,1765915699565,-5,8,0,0,0,0,0,0
3104,1765915699631,-6,9,2,0,0,0,0,0
3105,1765915699682,-6,9,1,0,0,0,0,0
3106,1765915699748,-5,8,1,0,0,0,0,0
3107,1765915699798,-6,10,3,0,0,0,0,0
3108,1765915699865,-6,9,2,0,0,0,0,0
3109,1765915699915,-7,9,2,0,0,0,0,0
3110,1765915700780,-6,9,1,0,0,0,0,0
3111,1765915700981,-4,9,2,0,0,0,0,0
3112,1765915701047,-5,8,2,0,0,0,0,0
3113,1765915701263,-5,9,1,0,0,0,0,0
3114,1765915701346,-4,10,2,0,0,0,0,0
3115,1765915701614,-4,10,1,0,0,0,0,0
3116,1765915701680,-5,9,2,0,0,0,0,0
3117,1765915701896,-5,8,2,0,0,0,0,0
3118,1765915701964,-4,8,1,0,0,0,0,0
3119,1765915702196,-6,8,1,0,0,0,0,0
3120,1765915702329,-6,8,2,0,0,0,0,0
3121,1765915702479,-6,9,2,0,0,0,0,0
3122,1765915702613,-5,10,1,0,0,0,0,0
3123,1765915702796,-6,10,2,0,0,0,0,0
3124,1765915702961,-5,10,1,0,0,0,0,0
3125,1765915703078,-5,10,2,0,0,0,0,0
3126,1765915703245,-5,10,1,0,0,0,0,0
3127,1765915703363,-6,9,1,0,0,0,0,0
3128,1765915703578,-3,10,2,0,0,0,0,0
3129,1765915703645,-6,10,1,0,0,0,0,0
3130,1765915703878,-6,9,1,0,0,0,0,0
3131,1765915703929,-6,8,1,0,0,0,0,0
3132,1765915704178,-6,9,2,0,0,0,0,0
3133,1765915704279,-6,8,1,0,0,0,0,0
3134,1765915704478,-5,8,1,0,0,0,0,0
3135,1765915704578,-5,8,3,0,0,0,0,0
3136,1765915704762,-7,8,2,0,0,0,0,0
3137,1765915704911,-7,8,0,0,0,0,0,0
3138,1765915705028,-5,10,0,0,0,0,0,0
3139,1765915705194,-4,9,2,0,0,0,0,0
3140,1765915705311,-6,9,2,0,0,0,0,0
3141,1765915705545,-5,10,2,0,0,0,0,0
3142,1765915705644,-5,8,2,0,0,0,0,0
3143,1765915705829,-6,9,2,0,0,0,0,0
3144,1765915705911,-6,9,2,0,0,0,0,0
3145,1765915706077,-7,8,2,0,0,0,0,0
3146,1765915706194,-6,9,1,0,0,0,0,0
3147,1765915706394,-4,10,2,0,0,0,0,0
3148,1765915706493,-4,9,1,0,0,0,0,0
3149,1765915706710,-5,8,1,0,0,0,0,0
3150,1765915706810,-5,10,2,0,0,0,0,0
3151,1765915706993,-6,9,1,0,0,0,0,0
3152,1765915707109,-6,9,2,0,0,0,0,0
3153,1765915707342,-7,8,1,0,0,0,0,0
3154,1765915707393,-7,9,1,0,0,0,0,0
3155,1765915707625,-7,9,1,0,0,0,0,0
3156,1765915707726,-5,8,2,0,0,0,0,0
3157,1765915707942,-4,10,2,0,0,0,0,0
3158,1765915708042,-6,10,1,0,0,0,0,0
3159,1765915708242,-5,8,1,0,0,0,0,0
3160,1765915708682,-6,8,1,0,0,0,0,0
3161,1765915708708,-7,8,2,0,0,0,0,0
3162,1765915708708,-5,10,1,0,0,0,0,0
3163,1765915708842,-6,10,1,0,0,0,0,0
3164,1765915708924,-5,10,1,0,0,0,0,0
3165,1765915709157,-6,9,2,0,0,0,0,0
3166,1765915709242,-7,8,2,0,0,0,0,0
3167,1765915709459,-5,8,1,0,0,0,0,0
3168,1765915709540,-5,8,2,0,0,0,0,0
3169,1765915709741,-7,9,1,0,0,0,0,0
3170,1765915709824,-6,8,2,0,0,0,0,0
3171,1765915710058,-4,9,2,0,0,0,0,0
3172,1765915710141,-6,8,1,0,0,0,0,0
3173,1765915710358,-5,8,1,0,0,0,0,0
3174,1765915710441,-4,9,2,0,0,0,0,0
3175,1765915710672,-7,11,0,0,0,0,0,0
3176,1765915710755,-6,8,1,0,0,0,0,0
3177,1765915710989,-6,9,1,0,0,0,0,0
3178,1765915711056,-6,10,2,0,0,0,0,0
3179,1765915711289,-5,9,2,0,0,0,0,0
3180,1765915711389,-4,7,1,0,0,0,0,0
3181,1765915711605,-4,9,3,0,0,0,0,0
3182,1765915711689,-6,9,1,0,0,0,0,0
3183,1765915711889,-4,9,1,0,0,0,0,0
3184,1765915712006,-5,9,1,0,0,0,0,0
3185,1765915712189,-4,10,2,0,0,0,0,0
3186,1765915712505,-3,11,0,0,0,0,0,0
3187,1765915712589,-7,9,2,0,0,0,0,0
3188,1765915712805,-4,8,3,0,0,0,0,0
3189,1765915712922,-7,10,1,0,0,0,0,0
3190,1765915713121,-5,10,1,0,0,0,0,0
3191,1765915713222,-7,9,2,0,0,0,0,0
3192,1765915713421,-5,9,2,0,0,0,0,0
3193,1765915713588,-4,8,1,0,0,0,0,0
3194,1765915713737,-5,9,2,0,0,0,0,0
3195,1765915713854,-5,9,1,0,0,0,0,0
3196,1765915714020,-6,10,2,0,0,0,0,0
3197,1765915714171,-7,8,1,0,0,0,0,0
3198,1765915714303,-5,8,2,0,0,0,0,0
3199,1765915714487,-5,9,1,0,0,0,0,0
3200,1765915714619,-5,9,2,0,0,0,0,0
3201,1765915714804,-7,9,1,0,0,0,0,0
3202,1765915714920,-6,9,1,0,0,0,0,0
3203,1765915715087,-4,9,1,0,0,0,0,0
3204,1765915715236,-6,9,1,0,0,0,0,0
3205,1765915715419,-5,9,3,0,0,0,0,0
3206,1765915715536,-5,9,1,0,0,0,0,0
3207,1765915715852,-5,9,1,0,0,0,0,0
3208,1765915716052,-4,7,1,0,0,0,0,0
3209,1765915716152,-6,10,1,0,0,0,0,0
3210,1765915716386,-6,9,1,0,0,0,0,0
3211,1765915716468,-5,8,2,0,0,0,0,0
3212,1765915716702,-5,8,2,0,0,0,0,0
3213,1765915716767,-4,9,1,0,0,0,0,0
3214,1765915717001,-6,9,2,0,0,0,0,0
3215,1765915717101,-5,9,2,0,0,0,0,0
3216,1765915717318,-5,11,2,0,0,0,0,0
3217,1765915717401,-4,8,2,0,0,0,0,0
3218,1765915717618,-6,9,1,0,0,0,0,0
3219,1765915717734,-5,10,1,0,0,0,0,0
3220,1765915717935,-6,10,0,0,0,0,0,0
3221,1765915718034,-6,9,3,0,0,0,0,0
3222,1765915718234,-6,7,0,0,0,0,0,0
3223,1765915718384,-5,9,2,0,0,0,0,0
3224,1765915718550,-4,10,1,0,0,0,0,0
3225,1765915718700,-5,10,2,0,0,0,0,0
3226,1765915718833,-4,6,2,0,0,0,0,0
3227,1765915719017,-6,10,1,0,0,0,0,0
3228,1765915719133,-6,10,1,0,0,0,0,0
3229,1765915719623,-5,9,2,0,0,0,0,0
3230,1765915719632,-6,9,0,0,0,0,0,0
3231,1765915719665,-5,9,1,0,0,0,0,0
