index,date,ACCEL_X,ACCEL_Y,ACCEL_Z,1,2,3,4,5
0,1768830687655,-868,8326,-478,0,0,0,0,0
1,1768830687772,-899,8262,-383,0,0,0,0,0
2,1768830688006,-817,8306,-410,0,0,0,0,0
3,1768830688073,-854,8351,-386,0,0,0,0,0
4,1768830688605,-852,8342,-415,0,0,0,0,0
5,1768830689156,-826,8314,-394,0,0,0,0,0
6,1768830689273,-839,8350,-487,0,0,0,0,0
7,1768830689623,-818,8366,-378,0,0,0,0,0
8,1768830689923,-834,8384,-324,0,0,0,0,0
9,1768830690156,-844,8331,-404,0,0,0,0,0
10,1768830690406,-815,8354,-462,0,0,0,0,0
11,1768830690506,-827,8364,-427,0,0,0,0,0
12,1768830690906,-837,8364,-393,0,0,0,0,0
13,1768830691056,-829,8344,-423,0,0,0,0,0
14,1768830691239,-841,8344,-384,0,0,0,0,0
15,1768830691355,-837,8354,-394,0,0,0,0,0
16,1768830691706,-854,8352,-399,0,0,0,0,0
17,1768830692255,-841,8322,-365,0,0,0,0,0
18,1768830692555,-844,8340,-412,0,0,0,0,0
19,1768830692672,-850,8338,-400,0,0,0,0,0
20,1768830692938,-845,8347,-398,0,0,0,0,0
21,1768830693188,-844,8329,-404,0,0,0,0,0
22,1768830693389,-840,8340,-396,0,0,0,0,0
23,1768830693738,-840,8340,-404,0,0,0,0,0
24,1768830693804,-841,8346,-423,0,0,0,0,0
25,1768830694072,-844,8357,-386,0,0,0,0,0
26,1768830694138,-862,8339,-392,0,0,0,0,0
27,1768830694422,-853,8349,-406,0,0,0,0,0
28,1768830694656,-827,8352,-388,0,0,0,0,0
29,1768830694772,-861,8333,-387,0,0,0,0,0
30,1768830695172,-840,8343,-402,0,0,0,0,0
31,1768830695273,-840,8348,-415,0,0,0,0,0
32,1768830695377,-851,8361,-388,0,0,0,0,0
33,1768830695656,-826,8340,-391,0,0,0,0,0
34,1768830695739,-844,8366,-388,0,0,0,0,0
35,1768830695838,-844,8339,-408,0,0,0,0,0
36,1768830696123,-812,8337,-382,0,0,0,0,0
37,1768830696388,-862,8357,-387,0,0,0,0,0
38,1768830696522,-851,8328,-410,0,0,0,0,0
39,1768830696604,-828,8338,-415,0,0,0,0,0
40,1768830696906,-880,8334,-399,0,0,0,0,0
41,1768830697005,-824,8364,-392,0,0,0,0,0
42,1768830697189,-842,8344,-375,0,0,0,0,0
43,1768830697356,-842,8352,-407,0,0,0,0,0
44,1768830697606,-843,8346,-414,0,0,0,0,0
45,1768830697840,-836,8339,-377,0,0,0,0,0
46,1768830698206,-834,8306,-414,0,0,0,0,0
47,1768830698556,-848,8347,-431,0,0,0,0,0
48,1768830699039,-832,8281,-396,0,0,0,0,0
49,1768830699409,-832,8367,-386,0,0,0,0,0
50,1768830699873,-860,8359,-413,0,0,0,0,0
51,1768830700223,-850,8330,-408,0,0,0,0,0
52,1768830700472,-812,8344,-411,0,0,0,0,0
53,1768830700623,-855,8347,-368,0,0,0,0,0
54,1768830700706,-848,8352,-402,0,0,0,0,0
55,1768830701040,-848,8337,-419,0,0,0,0,0
56,1768830701356,-812,8362,-382,0,0,0,0,0
57,1768830701524,-849,8351,-404,0,0,0,0,0
58,1768830701838,-831,8342,-388,0,0,0,0,0
59,1768830701922,-847,8358,-405,0,0,0,0,0
60,1768830702190,-838,8345,-403,0,0,0,0,0
61,1768830702590,-843,8338,-413,0,0,0,0,0
62,1768830702957,-835,8343,-385,0,0,0,0,0
63,1768830703173,-832,8324,-410,0,0,0,0,0
64,1768830703290,-846,8343,-405,0,0,0,0,0
65,1768830703538,-814,8374,-388,0,0,0,0,0
66,1768830703739,-829,8361,-384,0,0,0,0,0
67,1768830704023,-840,8343,-386,0,0,0,0,0
68,1768830704173,-832,8341,-386,0,0,0,0,0
69,1768830704239,-847,8362,-398,0,0,0,0,0
70,1768830704605,-849,8314,-363,0,0,0,0,0
71,1768830704690,-788,8397,-347,0,0,0,0,0
72,1768830705006,-852,8330,-414,0,0,0,0,0
73,1768830705056,-845,8406,-409,0,0,0,0,0
74,1768830705338,-889,8275,-384,0,0,0,0,0
75,1768830705555,-833,8311,-397,0,0,0,0,0
76,1768830705906,-837,8329,-390,0,0,0,0,0
77,1768830706156,-851,8339,-426,0,0,0,0,0
78,1768830706306,-830,8383,-405,0,0,0,0,0
79,1768830706423,-843,8360,-376,0,0,0,0,0
80,1768830706606,-818,8338,-399,0,0,0,0,0
81,1768830707006,-801,8296,-460,0,0,0,0,0
82,1768830707173,-896,8390,-399,0,0,0,0,0
83,1768830707273,-827,8316,-384,0,0,0,0,0
84,1768830707540,-840,8361,-422,0,0,0,0,0
85,1768830707672,-839,8374,-401,0,0,0,0,0
86,1768830707940,-864,8349,-460,0,0,0,0,0
87,1768830708040,-813,8358,-436,0,0,0,0,0
88,1768830708157,-862,8366,-384,0,0,0,0,0
89,1768830708356,-835,8336,-276,0,0,0,0,0
90,1768830708540,-862,8350,-538,0,0,0,0,0
91,1768830708590,-819,8342,-445,0,0,0,0,0
92,1768830708888,-832,8366,-415,0,0,0,0,0
93,1768830709122,-820,8408,-414,0,0,0,0,0
94,1768830709305,-829,8356,-342,0,0,0,0,0
95,1768830709639,-822,8332,-436,0,0,0,0,0
96,1768830709857,-847,8320,-427,0,0,0,0,0
97,1768830710156,-837,8336,-410,0,0,0,0,0
98,1768830710406,-848,8366,-369,0,0,0,0,0
99,1768830710656,-878,8310,-405,0,0,0,0,0
100,1768830710957,-854,8328,-400,0,0,0,0,0
101,1768830711189,-843,8348,-402,0,0,0,0,0
102,1768830711506,-839,8347,-391,0,0,0,0,0
103,1768830711690,-848,8350,-406,0,0,0,0,0
104,1768830711857,-838,8330,-407,0,0,0,0,0
105,1768830712007,-840,8352,-388,0,0,0,0,0
106,1768830712490,-838,8345,-398,0,0,0,0,0
107,1768830712923,-832,8355,-402,0,0,0,0,0
108,1768830713073,-863,8327,-354,0,0,0,0,0
109,1768830713406,-800,8360,-379,0,0,0,0,0
110,1768830713541,-819,8419,-406,0,0,0,0,0
111,1768830713857,-814,8272,-395,0,0,0,0,0
112,1768830714206,-823,8351,-405,0,0,0,0,0
113,1768830714805,-848,8341,-387,0,0,0,0,0
114,1768830714989,-822,8360,-375,0,0,0,0,0
115,1768830715189,-848,8354,-404,0,0,0,0,0
116,1768830715323,-828,8351,-390,0,0,0,0,0
117,1768830715839,-837,8343,-413,0,0,0,0,0
118,1768830716089,-826,8345,-405,0,0,0,0,0
119,1768830716407,-820,8347,-399,0,0,0,0,0
120,1768830716489,-837,8345,-405,0,0,0,0,0
121,1768830716757,-852,8340,-398,0,0,0,0,0
122,1768830716823,-852,8326,-398,0,0,0,0,0
123,1768830717290,-853,8350,-408,0,0,0,0,0
124,1768830717657,-844,8338,-400,0,0,0,0,0
125,1768830717989,-828,8353,-393,0,0,0,0,0
126,1768830718173,-833,8340,-398,0,0,0,0,0
127,1768830718406,-845,8348,-398,0,0,0,0,0
128,1768830718490,-839,8346,-394,0,0,0,0,0
129,1768830718723,-852,8336,-406,0,0,0,0,0
130,1768830719006,-846,8327,-393,0,0,0,0,0
131,1768830719206,-827,8342,-401,0,0,0,0,0
132,1768830719390,-835,8342,-394,0,0,0,0,0
133,1768830719673,-849,8359,-394,0,0,0,0,0
134,1768830719840,-829,8346,-395,0,0,0,0,0
135,1768830720023,-844,8324,-401,0,0,0,0,0
136,1768830720357,-842,8348,-395,0,0,0,0,0
137,1768830720638,-824,8361,-408,0,0,0,0,0
138,1768830720805,-845,8340,-407,0,0,0,0,0
139,1768830721121,-842,8340,-387,0,0,0,0,0
140,1768830721205,-835,8362,-383,0,0,0,0,0
141,1768830721288,-848,8342,-416,0,0,0,0,0
142,1768830721555,-839,8354,-414,0,0,0,0,0
143,1768830721805,-851,8331,-384,0,0,0,0,0
144,1768830722071,-838,8354,-405,0,0,0,0,0
145,1768830722322,-850,8344,-405,0,0,0,0,0
146,1768830722405,-834,8342,-406,0,0,0,0,0
147,1768830722772,-844,8345,-406,0,0,0,0,0
148,1768830722855,-842,8346,-403,0,0,0,0,0
149,1768830723121,-836,8342,-396,0,0,0,0,0
150,1768830723188,-835,8344,-390,0,0,0,0,0
151,1768830723605,-839,8348,-400,0,0,0,0,0
152,1768830724155,-852,8336,-402,0,0,0,0,0
153,1768830724505,-834,8341,-410,0,0,0,0,0
154,1768830725005,-850,8328,-402,0,0,0,0,0
155,1768830725339,-852,8359,-405,0,0,0,0,0
156,1768830725655,-841,8352,-403,0,0,0,0,0
157,1768830725822,-840,8352,-403,0,0,0,0,0
158,1768830726010,-854,8333,-408,0,0,0,0,0
159,1768830726205,-476,8566,-383,0,0,0,0,0
160,1768830726487,-1042,8223,-439,0,0,0,0,0
161,1768830726855,-905,8331,-385,0,0,0,0,0
162,1768830727338,-873,8313,-459,0,0,0,0,0
163,1768830727688,-899,8320,-415,0,0,0,0,0
164,1768830728188,-851,8335,-388,0,0,0,0,0
165,1768830728521,-869,8372,-406,0,0,0,0,0
166,1768830728705,-860,8310,-388,0,0,0,0,0
167,1768830729023,-874,8360,-404,0,0,0,0,0
168,1768830729255,-824,8371,-384,0,0,0,0,0
169,1768830729722,-835,8315,-401,0,0,0,0,0
170,1768830730071,-857,8356,-397,0,0,0,0,0
171,1768830730438,-850,8351,-402,0,0,0,0,0
172,1768830730556,-851,8334,-411,0,0,0,0,0
173,1768830730889,-863,8325,-404,0,0,0,0,0
174,1768830731023,-847,8343,-384,0,0,0,0,0
175,1768830731256,-875,8334,-423,0,0,0,0,0
176,1768830731506,-813,8346,-399,0,0,0,0,0
177,1768830731739,-808,8287,-404,0,0,0,0,0
178,1768830732005,-862,8367,-374,0,0,0,0,0
179,1768830732106,-816,8394,-374,0,0,0,0,0
180,1768830732372,-859,8290,-416,0,0,0,0,0
181,1768830732588,-818,8328,-401,0,0,0,0,0
182,1768830732872,-836,8352,-410,0,0,0,0,0
183,1768830733038,-854,8372,-384,0,0,0,0,0
184,1768830733372,-842,8372,-438,0,0,0,0,0
185,1768830733505,-870,8308,-418,0,0,0,0,0
186,1768830733856,-883,8322,-427,0,0,0,0,0
187,1768830733955,-813,8360,-396,0,0,0,0,0
188,1768830734271,-819,8407,-381,0,0,0,0,0
189,1768830734622,-870,8362,-375,0,0,0,0,0
190,1768830734755,-816,8378,-426,0,0,0,0,0
191,1768830734922,-830,8293,-410,0,0,0,0,0
192,1768830735139,-876,8340,-415,0,0,0,0,0
193,1768830735204,-904,8359,-407,0,0,0,0,0
194,1768830735389,-823,8417,-342,0,0,0,0,0
195,1768830735607,-724,8391,-337,0,0,0,0,0
196,1768830735707,-906,8354,-405,0,0,0,0,0
197,1768830735989,-790,8348,-424,0,0,0,0,0
198,1768830736172,-844,8357,-394,0,0,0,0,0
199,1768830736339,-807,8331,-360,0,0,0,0,0
200,1768830736772,-836,8354,-416,0,0,0,0,0
201,1768830736856,-838,8347,-409,0,0,0,0,0
202,1768830737322,-844,8340,-395,0,0,0,0,0
203,1768830737655,-830,8347,-398,0,0,0,0,0
204,1768830737988,-852,8331,-385,0,0,0,0,0
205,1768830738438,-848,8338,-408,0,0,0,0,0
206,1768830738673,-835,8350,-399,0,0,0,0,0
207,1768830738805,-845,8363,-397,0,0,0,0,0
208,1768830739055,-848,8335,-395,0,0,0,0,0
209,1768830739388,-828,8354,-405,0,0,0,0,0
210,1768830739805,-841,8355,-393,0,0,0,0,0
211,1768830739872,-828,8356,-409,0,0,0,0,0
212,1768830740305,-846,8330,-386,0,0,0,0,0
213,1768830740438,-861,8330,-380,0,0,0,0,0
214,1768830740606,-844,8345,-388,0,0,0,0,0
215,1768830740705,-852,8325,-344,0,0,0,0,0
216,1768830741005,-843,8338,-402,0,0,0,0,0
217,1768830741239,-852,8352,-429,0,0,0,0,0
218,1768830741472,-851,8386,-321,0,0,0,0,0
219,1768830741673,-838,8342,-426,0,0,0,0,0
220,1768830741955,-820,8375,-381,0,0,0,0,0
221,1768830742239,-826,8368,-437,0,0,0,0,0
222,1768830742488,-803,8363,-359,0,0,0,0,0
223,1768830742822,-867,8334,-359,0,0,0,0,0
224,1768830743021,-824,8346,-365,0,0,0,0,0
225,1768830743237,-834,8342,-421,0,0,0,0,0
226,1768830743473,-850,8348,-418,0,0,0,0,0
227,1768830743755,-837,8333,-403,0,0,0,0,0
228,1768830744272,-821,8358,-394,0,0,0,0,0
229,1768830744638,-831,8332,-385,0,0,0,0,0
230,1768830744755,-855,8347,-378,0,0,0,0,0
231,1768830745038,-850,8336,-393,0,0,0,0,0
232,1768830745354,-846,8331,-392,0,0,0,0,0
233,1768830745454,-860,8338,-390,0,0,0,0,0
234,1768830745771,-786,8315,-409,0,0,0,0,0
235,1768830745904,-864,8333,-393,0,0,0,0,0
236,1768830746005,-842,8342,-352,0,0,0,0,0
237,1768830746388,-884,8345,-390,0,0,0,0,0
238,1768830746538,-763,8346,-423,0,0,0,0,0
239,1768830746705,-857,8326,-395,0,0,0,0,0
240,1768830746789,-820,8364,-374,0,0,0,0,0
241,1768830747122,-843,8345,-368,0,0,0,0,0
242,1768830747405,-872,8340,-400,0,0,0,0,0
243,1768830747788,-860,8342,-406,0,0,0,0,0
244,1768830748021,-840,8341,-386,0,0,0,0,0
245,1768830748137,-853,8340,-395,0,0,0,0,0
246,1768830748389,-840,8337,-386,0,0,0,0,0
247,1768830748622,-847,8328,-396,0,0,0,0,0
248,1768830748755,-833,8363,-396,0,0,0,0,0
249,1768830749172,-843,8352,-395,0,0,0,0,0
250,1768830749240,-831,8334,-394,0,0,0,0,0
251,1768830749605,-852,8347,-398,0,0,0,0,0
252,1768830749705,-838,8350,-398,0,0,0,0,0
253,1768830749954,-818,8336,-388,0,0,0,0,0
254,1768830750189,-827,8348,-402,0,0,0,0,0
255,1768830750422,-838,8320,-402,0,0,0,0,0
256,1768830750689,-842,8368,-396,0,0,0,0,0
257,1768830750788,-805,8381,-416,0,0,0,0,0
258,1768830751021,-866,8298,-424,0,0,0,0,0
259,1768830751188,-862,8348,-416,0,0,0,0,0
260,1768830751338,-864,8384,-376,0,0,0,0,0
261,1768830751654,-842,8328,-414,0,0,0,0,0
262,1768830751871,-846,8337,-350,0,0,0,0,0
263,1768830752171,-838,8360,-457,0,0,0,0,0
264,1768830752521,-864,8362,-388,0,0,0,0,0
265,1768830752871,-832,8326,-370,0,0,0,0,0
266,1768830753004,-816,8342,-393,0,0,0,0,0
267,1768830753338,-877,8348,-390,0,0,0,0,0
268,1768830753605,-816,8342,-399,0,0,0,0,0
269,1768830753855,-843,8370,-412,0,0,0,0,0
270,1768830754138,-872,8342,-354,0,0,0,0,0
271,1768830754239,-832,8342,-372,0,0,0,0,0
272,1768830754588,-845,8331,-386,0,0,0,0,0
273,1768830754855,-854,8331,-388,0,0,0,0,0
274,1768830754955,-841,8376,-393,0,0,0,0,0
275,1768830755371,-825,8367,-403,0,0,0,0,0
276,1768830755471,-835,8339,-409,0,0,0,0,0
277,1768830755754,-825,8341,-394,0,0,0,0,0
278,1768830756038,-838,8345,-382,0,0,0,0,0
279,1768830756255,-787,8310,-409,0,0,0,0,0
280,1768830756572,-839,8384,-395,0,0,0,0,0
281,1768830756837,-843,8344,-412,0,0,0,0,0
282,1768830757238,-744,8285,-432,0,0,0,0,0
283,1768830757471,-930,8302,-382,0,0,0,0,0
284,1768830757821,-726,8348,-426,0,0,0,0,0
285,1768830758055,-810,8371,-396,0,0,0,0,0
286,1768830758188,-877,8331,-383,0,0,0,0,0
287,1768830758654,-790,8377,-395,0,0,0,0,0
288,1768830759038,-888,8273,-400,0,0,0,0,0
289,1768830759521,-852,8368,-403,0,0,0,0,0
290,1768830759989,-841,8344,-394,0,0,0,0,0
291,1768830760439,-836,8336,-381,0,0,0,0,0
292,1768830760673,-841,8354,-396,0,0,0,0,0
293,1768830761021,-843,8340,-378,0,0,0,0,0
294,1768830761206,-842,8338,-395,0,0,0,0,0
295,1768830761372,-840,8343,-396,0,0,0,0,0
296,1768830761857,-840,8352,-391,0,0,0,0,0
297,1768830762222,-849,8365,-405,0,0,0,0,0
298,1768830762708,-844,8334,-429,0,0,0,0,0
299,1768830763005,-846,8302,-414,0,0,0,0,0
300,1768830763221,-850,8344,-400,0,0,0,0,0
301,1768830763641,-851,8354,-381,0,0,0,0,0
302,1768830764124,-902,8360,-450,0,0,0,0,0
303,1768830764421,-835,8302,-376,0,0,0,0,0
304,1768830765057,-867,8306,-422,0,0,0,0,0
305,1768830765116,-830,8360,-433,0,0,0,0,0
306,1768830765390,-846,8352,-397,0,0,0,0,0
307,1768830765573,-824,8330,-390,0,0,0,0,0
308,1768830765941,-914,8371,-404,0,0,0,0,0
309,1768830766438,-934,8431,-356,0,0,0,0,0
310,1768830766807,-832,8318,-418,0,0,0,0,0
311,1768830766939,-850,8350,-417,0,0,0,0,0
312,1768830767307,-841,8350,-404,0,0,0,0,0
313,1768830767674,-852,8361,-413,0,0,0,0,0
314,1768830768139,-838,8332,-378,0,0,0,0,0
315,1768830768439,-846,8352,-380,0,0,0,0,0
316,1768830768509,-842,8340,-388,0,0,0,0,0
317,1768830768857,-845,8350,-394,0,0,0,0,0
318,1768830769190,-831,8340,-390,0,0,0,0,0
319,1768830769331,-850,8352,-399,0,0,0,0,0
320,1768830769673,-836,8333,-396,0,0,0,0,0
321,1768830770006,-833,8345,-388,0,0,0,0,0
322,1768830770057,-844,8347,-388,0,0,0,0,0
323,1768830770328,-834,8354,-379,0,0,0,0,0
324,1768830770590,-828,8353,-385,0,0,0,0,0
325,1768830770822,-845,8347,-400,0,0,0,0,0
326,1768830770922,-822,8350,-398,0,0,0,0,0
327,1768830771140,-815,8316,-441,0,0,0,0,0
328,1768830771290,-956,8304,-453,0,0,0,0,0
329,1768830771640,-853,8342,-638,0,0,0,0,0
330,1768830771938,-750,8342,-518,0,0,0,0,0
331,1768830772107,-738,8398,-588,0,0,0,0,0
332,1768830772204,-820,8308,-617,0,0,0,0,0
333,1768830772571,-809,8274,-560,0,0,0,0,0
334,1768830772688,-858,8526,-540,0,0,0,0,0
335,1768830772922,-903,8318,-394,0,0,0,0,0
336,1768830773004,-792,8592,-406,0,0,0,0,0
337,1768830773322,-249,8352,-12,0,0,0,0,0
338,1768830773637,-636,8354,-318,0,0,0,0,0
339,1768830773788,-689,8431,-317,0,0,0,0,0
340,1768830774104,-806,8252,-360,0,0,0,0,0
341,1768830774187,-761,8363,-350,0,0,0,0,0
342,1768830774504,-756,8498,-330,0,0,0,0,0
343,1768830774571,-683,8218,-377,0,0,0,0,0
344,1768830774906,-786,8378,-244,0,0,0,0,0
345,1768830775288,-769,8524,-412,0,0,0,0,0
346,1768830775422,-732,8305,-416,0,0,0,0,0
347,1768830775854,-721,8386,-333,0,0,0,0,0
348,1768830775937,-921,8404,-436,0,0,0,0,0
349,1768830776054,-893,8310,-321,0,0,0,0,0
350,1768830776354,-821,8410,-369,0,0,0,0,0
351,1768830776471,-769,8334,-472,0,0,0,0,0
352,1768830776722,-800,8414,-480,0,0,0,0,0
353,1768830777055,-802,8319,-248,0,0,0,0,0
354,1768830777271,-806,8403,-233,0,0,0,0,0
355,1768830777406,-846,8290,-223,0,0,0,0,0
356,1768830777621,-828,8308,-185,0,0,0,0,0
357,1768830777739,-831,8301,-235,0,0,0,0,0
358,1768830777888,-746,8362,-238,0,0,0,0,0
359,1768830778037,-817,8364,-202,0,0,0,0,0
360,1768830778339,-766,8256,-357,0,0,0,0,0
361,1768830778555,-726,8452,-347,0,0,0,0,0
362,1768830778671,-738,8248,-385,0,0,0,0,0
363,1768830779005,-776,8356,-448,0,0,0,0,0
364,1768830779221,-812,8344,-537,0,0,0,0,0
365,1768830779388,-708,8343,-364,0,0,0,0,0
366,1768830779622,-790,8384,-673,0,0,0,0,0
367,1768830779804,-762,8205,-562,0,0,0,0,0
368,1768830780138,-744,8364,-544,0,0,0,0,0
369,1768830780370,-732,8284,-495,0,0,0,0,0
370,1768830780673,-823,8272,-390,0,0,0,0,0
371,1768830780771,-805,8408,-248,0,0,0,0,0
372,1768830781122,-779,8360,-530,0,0,0,0,0
373,1768830781221,-733,8340,-434,0,0,0,0,0
374,1768830781405,-775,8370,-443,0,0,0,0,0
375,1768830781538,-778,8323,-453,0,0,0,0,0
376,1768830781990,-794,8327,-433,0,0,0,0,0
377,1768830782374,-754,8351,-460,0,0,0,0,0
378,1768830833820,-704,8376,-350,0,0,0,0,0
379,1768830833904,-706,8371,-358,0,0,0,0,0
380,1768830834121,-711,8356,-365,0,0,0,0,0
381,1768830834253,-719,8386,-361,0,0,0,0,0
382,1768830834403,-687,8386,-378,0,0,0,0,0
383,1768830834589,-721,8350,-378,0,0,0,0,0
384,1768830834721,-689,8390,-349,0,0,0,0,0
385,1768830834954,-708,8358,-360,0,0,0,0,0
386,1768830835021,-688,8352,-370,0,0,0,0,0
387,1768830835087,-697,8362,-355,0,0,0,0,0
388,1768830835420,-705,8365,-354,0,0,0,0,0
389,1768830835603,-704,8374,-352,0,0,0,0,0
390,1768830835938,-706,8363,-346,0,0,0,0,0
391,1768830836171,-706,8362,-349,0,0,0,0,0
392,1768830836337,-704,8376,-350,0,0,0,0,0
393,1768830836737,-706,8374,-346,0,0,0,0,0
394,1768830837204,-673,8354,-371,0,0,0,0,0
395,1768830837472,-708,8360,-332,0,0,0,0,0
396,1768830837787,-696,8358,-338,0,0,0,0,0
397,1768830837937,-709,8366,-338,0,0,0,0,0
398,1768830838088,-715,8378,-348,0,0,0,0,0
399,1768830838288,-703,8366,-347,0,0,0,0,0
400,1768830838404,-703,8370,-344,0,0,0,0,0
401,1768830838740,-709,8368,-334,0,0,0,0,0
402,1768830838772,-704,8362,-343,0,0,0,0,0
403,1768830839022,-712,8373,-346,0,0,0,0,0
404,1768830839289,-699,8365,-350,0,0,0,0,0
405,1768830839605,-708,8370,-344,0,0,0,0,0
406,1768830839689,-700,8358,-342,0,0,0,0,0
407,1768830839789,-712,8370,-350,0,0,0,0,0
408,1768830840154,-704,8372,-347,0,0,0,0,0
409,1768830840471,-707,8371,-346,0,0,0,0,0
410,1768830840654,-705,8356,-351,0,0,0,0,0
411,1768830840856,-705,8381,-343,0,0,0,0,0
412,1768830841171,-712,8362,-342,0,0,0,0,0
413,1768830841305,-706,8377,-361,0,0,0,0,0
414,1768830841520,-713,8387,-342,0,0,0,0,0
415,1768830841672,-708,8353,-346,0,0,0,0,0
416,1768830842104,-701,8366,-342,0,0,0,0,0
417,1768830842338,-700,8368,-355,0,0,0,0,0
418,1768830842472,-698,8385,-338,0,0,0,0,0
419,1768830842822,-720,8351,-356,0,0,0,0,0
420,1768830843005,-691,8352,-343,0,0,0,0,0
421,1768830843305,-708,8387,-356,0,0,0,0,0
422,1768830843455,-700,8368,-339,0,0,0,0,0
423,1768830843655,-706,8371,-362,0,0,0,0,0
424,1768830844005,-704,8328,-356,0,0,0,0,0
425,1768830844322,-707,8365,-347,0,0,0,0,0
426,1768830844522,-702,8377,-344,0,0,0,0,0
427,1768830844722,-704,8376,-332,0,0,0,0,0
428,1768830844988,-699,8367,-354,0,0,0,0,0
429,1768830845205,-700,8356,-336,0,0,0,0,0
430,1768830845339,-715,8374,-336,0,0,0,0,0
431,1768830845555,-700,8368,-348,0,0,0,0,0
432,1768830845721,-719,8367,-343,0,0,0,0,0
433,1768830846038,-699,8370,-346,0,0,0,0,0
434,1768830846206,-710,8365,-344,0,0,0,0,0
435,1768830846556,-714,8412,-358,0,0,0,0,0
436,1768830846688,-726,8433,-358,0,0,0,0,0
437,1768830847039,-709,8407,-362,0,0,0,0,0
438,1768830847105,-701,8383,-333,0,0,0,0,0
439,1768830847421,-672,8361,-338,0,0,0,0,0
440,1768830847721,-724,8390,-332,0,0,0,0,0
441,1768830847936,-713,8372,-349,0,0,0,0,0
442,1768830848288,-702,8365,-357,0,0,0,0,0
443,1768830848555,-716,8366,-334,0,0,0,0,0
444,1768830848787,-710,8369,-346,0,0,0,0,0
445,1768830848986,-694,8376,-332,0,0,0,0,0
446,1768830849138,-702,8348,-363,0,0,0,0,0
447,1768830849403,-701,8386,-348,0,0,0,0,0
448,1768830849653,-715,8369,-358,0,0,0,0,0
449,1768830849970,-694,8379,-336,0,0,0,0,0
450,1768830850220,-710,8375,-360,0,0,0,0,0
451,1768830850520,-704,8359,-354,0,0,0,0,0
452,1768830850820,-706,8377,-345,0,0,0,0,0
453,1768830850870,-720,8368,-350,0,0,0,0,0
454,1768830851123,-706,8361,-354,0,0,0,0,0
455,1768830851356,-708,8366,-350,0,0,0,0,0
456,1768830851705,-689,8363,-344,0,0,0,0,0
457,1768830851970,-716,8371,-348,0,0,0,0,0
458,1768830852236,-709,8364,-344,0,0,0,0,0
459,1768830852553,-698,8366,-344,0,0,0,0,0
460,1768830852706,-708,8363,-359,0,0,0,0,0
461,1768830852789,-701,8373,-341,0,0,0,0,0
462,1768830853123,-705,8378,-348,0,0,0,0,0
463,1768830853438,-715,8360,-350,0,0,0,0,0
464,1768830853588,-712,8363,-346,0,0,0,0,0
465,1768830853836,-713,8355,-344,0,0,0,0,0
466,1768830854105,-712,8368,-336,0,0,0,0,0
467,1768830854355,-714,8376,-355,0,0,0,0,0
468,1768830854653,-703,8362,-355,0,0,0,0,0
469,1768830854921,-703,8365,-344,0,0,0,0,0
470,1768830855053,-706,8363,-346,0,0,0,0,0
471,1768830855270,-711,8367,-336,0,0,0,0,0
472,1768830855604,-709,8360,-354,0,0,0,0,0
473,1768830855854,-705,8374,-343,0,0,0,0,0
474,1768830856088,-708,8366,-353,0,0,0,0,0
475,1768830856370,-711,8368,-343,0,0,0,0,0
476,1768830856503,-701,8364,-345,0,0,0,0,0
477,1768830856721,-708,8369,-339,0,0,0,0,0
478,1768830857021,-708,8367,-345,0,0,0,0,0
479,1768830857219,-709,8374,-346,0,0,0,0,0
480,1768830857553,-708,8363,-351,0,0,0,0,0
481,1768830857703,-706,8367,-346,0,0,0,0,0
482,1768830858086,-717,8364,-319,0,0,0,0,0
483,1768830858570,-709,8372,-343,0,0,0,0,0
484,1768830858687,-703,8369,-342,0,0,0,0,0
485,1768830859053,-712,8362,-361,0,0,0,0,0
486,1768830859538,-708,8361,-352,0,0,0,0,0
487,1768830859620,-702,8358,-350,0,0,0,0,0
488,1768830859903,-703,8370,-357,0,0,0,0,0
489,1768830860120,-694,8333,-341,0,0,0,0,0
490,1768830860386,-746,8366,-387,0,0,0,0,0
491,1768830860588,-716,8349,-324,0,0,0,0,0
492,1768830860853,-688,8371,-338,0,0,0,0,0
493,1768830861138,-711,8364,-340,0,0,0,0,0
494,1768830861204,-693,8362,-354,0,0,0,0,0
495,1768830861603,-709,8354,-315,0,0,0,0,0
496,1768830861736,-717,8392,-329,0,0,0,0,0
497,1768830862070,-698,8385,-344,0,0,0,0,0
498,1768830862470,-709,8370,-350,0,0,0,0,0
499,1768830862920,-706,8360,-342,0,0,0,0,0
500,1768830863373,-698,8368,-346,0,0,0,0,0
501,1768830863720,-715,8364,-350,0,0,0,0,0
502,1768830864305,-672,8326,-338,0,0,0,0,0
503,1768830864455,-698,8346,-326,0,0,0,0,0
504,1768830864638,-679,8354,-352,0,0,0,0,0
505,1768830865138,-692,8357,-344,0,0,0,0,0
506,1768830865337,-693,8341,-340,0,0,0,0,0
507,1768830865505,-701,8370,-345,0,0,0,0,0
508,1768830865822,-709,8370,-331,0,0,0,0,0
509,1768830866039,-712,8371,-344,0,0,0,0,0
510,1768830866189,-710,8364,-343,0,0,0,0,0
511,1768830866488,-708,8362,-344,0,0,0,0,0
512,1768830867005,-708,8362,-353,0,0,0,0,0
513,1768830867105,-713,8363,-350,0,0,0,0,0
514,1768830867487,-695,8348,-348,0,0,0,0,0
515,1768830867554,-709,8372,-340,0,0,0,0,0
516,1768830867972,-696,8361,-354,0,0,0,0,0
517,1768830868105,-708,8370,-355,0,0,0,0,0
518,1768830868421,-702,8357,-334,0,0,0,0,0
519,1768830868688,-710,8354,-349,0,0,0,0,0
520,1768830868905,-693,8358,-338,0,0,0,0,0
521,1768830869139,-700,8361,-352,0,0,0,0,0
522,1768830869238,-717,8366,-344,0,0,0,0,0
523,1768830869455,-706,8366,-348,0,0,0,0,0
524,1768830869690,-701,8356,-351,0,0,0,0,0
525,1768830869971,-716,8368,-336,0,0,0,0,0
526,1768830870239,-718,8388,-336,0,0,0,0,0
527,1768830870438,-702,8356,-342,0,0,0,0,0
528,1768830870806,-703,8358,-344,0,0,0,0,0
529,1768830870905,-698,8366,-344,0,0,0,0,0
530,1768830871289,-710,8360,-352,0,0,0,0,0
531,1768830871387,-706,8366,-352,0,0,0,0,0
532,1768830871919,-705,8374,-351,0,0,0,0,0
533,1768830872037,-708,8372,-346,0,0,0,0,0
534,1768830872121,-710,8379,-343,0,0,0,0,0
535,1768830872454,-700,8355,-345,0,0,0,0,0
536,1768830872555,-706,8358,-349,0,0,0,0,0
537,1768830872772,-711,8362,-344,0,0,0,0,0
538,1768830873021,-701,8363,-349,0,0,0,0,0
539,1768830873139,-710,8364,-343,0,0,0,0,0
540,1768830873405,-708,8357,-346,0,0,0,0,0
541,1768830873738,-705,8362,-338,0,0,0,0,0
542,1768830874005,-706,8364,-336,0,0,0,0,0
543,1768830874258,-707,8368,-337,0,0,0,0,0
544,1768830874522,-712,8369,-345,0,0,0,0,0
545,1768830874739,-711,8371,-354,0,0,0,0,0
546,1768830874987,-708,8352,-340,0,0,0,0,0
547,1768830875071,-708,8373,-339,0,0,0,0,0
548,1768830875272,-711,8371,-343,0,0,0,0,0
549,1768830875537,-705,8360,-346,0,0,0,0,0
550,1768830875706,-705,8363,-351,0,0,0,0,0
551,1768830875922,-711,8367,-341,0,0,0,0,0
552,1768830876188,-708,8360,-349,0,0,0,0,0
553,1768830876372,-709,8371,-339,0,0,0,0,0
554,1768830876854,-706,8370,-339,0,0,0,0,0
555,1768830877071,-713,8366,-342,0,0,0,0,0
556,1768830877270,-706,8360,-336,0,0,0,0,0
557,1768830877470,-703,8367,-332,0,0,0,0,0
558,1768830877536,-708,8357,-344,0,0,0,0,0
559,1768830877737,-712,8366,-345,0,0,0,0,0
560,1768830877988,-707,8375,-348,0,0,0,0,0
561,1768830878220,-700,8360,-340,0,0,0,0,0
562,1768830878604,-706,8367,-338,0,0,0,0,0
563,1768830879037,-720,8370,-349,0,0,0,0,0
564,1768830879170,-701,8358,-353,0,0,0,0,0
565,1768830879539,-708,8356,-354,0,0,0,0,0
566,1768830879639,-709,8365,-343,0,0,0,0,0
567,1768830879989,-704,8362,-346,0,0,0,0,0
568,1768830880306,-704,8355,-344,0,0,0,0,0
569,1768830880538,-701,8368,-346,0,0,0,0,0
570,1768830880805,-710,8364,-346,0,0,0,0,0
571,1768830881020,-706,8367,-341,0,0,0,0,0
572,1768830881121,-710,8370,-346,0,0,0,0,0
573,1768830881372,-712,8361,-347,0,0,0,0,0
574,1768830881572,-706,8354,-338,0,0,0,0,0
575,1768830881837,-718,8364,-353,0,0,0,0,0
576,1768830882187,-714,8350,-344,0,0,0,0,0
577,1768830882637,-711,8360,-350,0,0,0,0,0
578,1768830882987,-714,8351,-369,0,0,0,0,0
579,1768830883203,-706,8372,-368,0,0,0,0,0
580,1768830883438,-696,8379,-331,0,0,0,0,0
581,1768830883672,-712,8359,-338,0,0,0,0,0
582,1768830883789,-692,8364,-338,0,0,0,0,0
583,1768830883921,-701,8352,-348,0,0,0,0,0
584,1768830884505,-709,8364,-357,0,0,0,0,0
585,1768830884686,-701,8369,-340,0,0,0,0,0
586,1768830884954,-708,8362,-352,0,0,0,0,0
587,1768830885270,-707,8373,-350,0,0,0,0,0
588,1768830885369,-709,8364,-339,0,0,0,0,0
589,1768830885435,-697,8359,-338,0,0,0,0,0
590,1768830885536,-710,8364,-348,0,0,0,0,0
591,1768830885821,-706,8363,-348,0,0,0,0,0
592,1768830886137,-699,8362,-355,0,0,0,0,0
593,1768830886403,-701,8363,-339,0,0,0,0,0
594,1768830886669,-709,8363,-338,0,0,0,0,0
595,1768830886788,-707,8368,-344,0,0,0,0,0
596,1768830886987,-707,8368,-337,0,0,0,0,0
597,1768830887337,-706,8372,-339,0,0,0,0,0
598,1768830887637,-698,8362,-345,0,0,0,0,0
599,1768830887904,-714,8365,-335,0,0,0,0,0
600,1768830888021,-708,8357,-339,0,0,0,0,0
601,1768830888188,-711,8344,-381,0,0,0,0,0
602,1768830888487,-728,8356,-314,0,0,0,0,0
603,1768830888836,-735,8346,-334,0,0,0,0,0
604,1768830888954,-720,8340,-325,0,0,0,0,0
605,1768830889237,-716,8356,-353,0,0,0,0,0
606,1768830889388,-717,8358,-339,0,0,0,0,0
607,1768830889486,-724,8372,-346,0,0,0,0,0
608,1768830889953,-716,8379,-371,0,0,0,0,0
609,1768830890270,-719,8390,-307,0,0,0,0,0
610,1768830890486,-702,8374,-348,0,0,0,0,0
611,1768830890836,-700,8375,-352,0,0,0,0,0
612,1768830891071,-709,8372,-380,0,0,0,0,0
613,1768830891320,-708,8372,-349,0,0,0,0,0
614,1768830891554,-706,8350,-345,0,0,0,0,0
615,1768830891705,-707,8356,-336,0,0,0,0,0
616,1768830892119,-730,8532,-247,0,0,0,0,0
617,1768830892337,-575,8310,453,0,0,0,0,0
618,1768830892438,-501,8369,204,0,0,0,0,0
619,1768830892637,-890,8320,-410,0,0,0,0,0
620,1768830893005,-652,8314,62,0,0,0,0,0
621,1768830893254,-675,8369,358,0,0,0,0,0
622,1768830893521,-798,8340,235,0,0,0,0,0
623,1768830893737,-782,8388,275,0,0,0,0,0
624,1768830893987,-832,8427,358,0,0,0,0,0
625,1768830894304,-883,8555,438,0,0,0,0,0
626,1768830894604,-964,8296,292,0,0,0,0,0
627,1768830894787,-986,8414,426,0,0,0,0,0
628,1768830895070,-1008,8539,124,0,0,0,0,0
629,1768830895237,-1084,7909,572,0,0,0,0,0
630,1768830895588,-824,8450,238,0,0,0,0,0
631,1768830895670,-1033,8752,-430,0,0,0,0,0
632,1768830896070,-582,8389,-382,0,0,0,0,0
633,1768830896270,-762,8410,82,0,0,0,0,0
634,1768830896487,-329,8349,8,0,0,0,0,0
635,1768830896786,-582,8536,-137,0,0,0,0,0
636,1768830897187,-868,8384,-46,0,0,0,0,0
637,1768830897587,-7,7532,76,0,0,0,0,0
638,1768830897720,-147,8851,56,0,0,0,0,0
639,1768830897954,-400,7934,186,0,0,0,0,0
640,1768830898303,-323,8233,-407,0,0,0,0,0
641,1768830898486,-630,9149,-342,0,0,0,0,0
642,1768830898904,-448,8768,-84,0,0,0,0,0
643,1768830898970,-8,8586,-28,0,0,0,0,0
644,1768830899387,-52,8796,-162,0,0,0,0,0
645,1768830899503,-702,8670,-187,0,0,0,0,0
646,1768830899553,-1104,9012,-432,0,0,0,0,0
647,1768830899837,-420,8684,-441,0,0,0,0,0
648,1768830900170,-704,8651,-396,0,0,0,0,0
649,1768830900553,-910,8126,-718,0,0,0,0,0
650,1768830900854,-664,7794,-591,0,0,0,0,0
651,1768830900920,-613,8427,-518,0,0,0,0,0
652,1768830901136,-939,9287,-488,0,0,0,0,0
653,1768830901419,32,8792,-251,0,0,0,0,0
654,1768830901838,411,9165,-358,0,0,0,0,0
655,1768830901970,210,6396,-186,0,0,0,0,0
656,1768830902304,1333,7501,-809,0,0,0,0,0
657,1768830902552,265,7816,-1244,0,0,0,0,0
658,1768830903103,28,8206,-929,0,0,0,0,0
659,1768830903287,427,7943,-1182,0,0,0,0,0
660,1768830903520,-386,7396,-419,0,0,0,0,0
661,1768830903604,-1539,8886,-628,0,0,0,0,0
662,1768830903869,67,5520,-418,0,0,0,0,0
663,1768830904003,-659,9684,-435,0,0,0,0,0
664,1768830904421,405,7317,-416,0,0,0,0,0
665,1768830904804,-511,8324,-595,0,0,0,0,0
666,1768830905154,-646,8495,-623,0,0,0,0,0
667,1768830905637,-1233,7198,-947,0,0,0,0,0
668,1768830906087,-1890,8574,-1279,0,0,0,0,0
669,1768830906503,-984,9726,-1564,0,0,0,0,0
670,1768830906953,-1220,7153,-899,0,0,0,0,0
671,1768830907170,-1136,8407,-1002,0,0,0,0,0
672,1768830907420,-1554,7681,-1162,0,0,0,0,0
673,1768830907837,-103,8370,-735,0,0,0,0,0
674,1768830908303,144,9606,-1536,0,0,0,0,0
675,1768830908569,-239,7803,-1084,0,0,0,0,0
676,1768830908821,294,8765,-1242,0,0,0,0,0
677,1768830909337,-216,8458,-862,0,0,0,0,0
678,1768830909520,-236,8649,-982,0,0,0,0,0
679,1768830910019,-130,9469,-787,0,0,0,0,0
680,1768830910304,-294,8502,-910,0,0,0,0,0
681,1768830910420,-714,7638,-773,0,0,0,0,0
682,1768830910703,-260,8850,-710,0,0,0,0,0
683,1768830911021,-311,8772,-650,0,0,0,0,0
684,1768830911503,-521,7626,-690,0,0,0,0,0
685,1768830911870,-722,7950,-445,0,0,0,0,0
686,1768830912203,-436,8548,-154,0,0,0,0,0
687,1768830912638,-443,8702,-310,0,0,0,0,0
688,1768830912937,-690,8097,-170,0,0,0,0,0
689,1768830913220,-400,8784,-244,0,0,0,0,0
690,1768830913537,-603,8903,-1064,0,0,0,0,0
691,1768830913837,-630,7682,-1447,0,0,0,0,0
692,1768830914021,-412,8383,-1006,0,0,0,0,0
693,1768830914487,-1106,8225,-1164,0,0,0,0,0
694,1768830914837,-829,8307,-1123,0,0,0,0,0
695,1768830915120,-872,8259,-1307,0,0,0,0,0
696,1768830915304,-796,8336,-1403,0,0,0,0,0
697,1768830915636,-870,8294,-1248,0,0,0,0,0
698,1768830915671,-721,8327,-490,0,0,0,0,0
699,1768830915970,-835,8370,-516,0,0,0,0,0
700,1768830916136,-775,8305,-447,0,0,0,0,0
701,1768830916386,-749,8421,-404,0,0,0,0,0
702,1768830916570,-726,8333,-390,0,0,0,0,0
703,1768830916719,-756,8352,-396,0,0,0,0,0
704,1768830916953,-764,8379,-383,0,0,0,0,0
705,1768830917021,-746,8334,-371,0,0,0,0,0
706,1768830917203,-761,8371,-363,0,0,0,0,0
707,1768830917687,-755,8363,-363,0,0,0,0,0
708,1768830917804,-772,8334,-380,0,0,0,0,0
709,1768830918136,-785,8338,-411,0,0,0,0,0
710,1768830918236,-756,8318,-343,0,0,0,0,0
711,1768830918437,-724,8356,-335,0,0,0,0,0
712,1768830918703,-764,8353,-356,0,0,0,0,0
713,1768830918886,-760,8362,-371,0,0,0,0,0
714,1768830919170,-756,8367,-362,0,0,0,0,0
715,1768830919220,-766,8361,-376,0,0,0,0,0
716,1768830919553,-750,8355,-362,0,0,0,0,0
717,1768830919670,-764,8373,-361,0,0,0,0,0
718,1768830920003,-730,8366,-375,0,0,0,0,0
719,1768830920102,-762,8360,-365,0,0,0,0,0
720,1768830920236,-752,8338,-377,0,0,0,0,0
721,1768830920554,-758,8370,-372,0,0,0,0,0
722,1768830920653,-744,8338,-375,0,0,0,0,0
723,1768830921086,-750,8346,-354,0,0,0,0,0
724,1768830921288,-762,8391,-382,0,0,0,0,0
725,1768830921420,-758,8400,-321,0,0,0,0,0
726,1768830921705,-671,8189,-409,0,0,0,0,0
727,1768830921921,-784,8324,-401,0,0,0,0,0
728,1768830922253,-730,8356,-317,0,0,0,0,0
729,1768830922537,-762,8294,-371,0,0,0,0,0
730,1768830922703,-745,8079,-439,0,0,0,0,0
731,1768830922754,-820,8462,-389,0,0,0,0,0
732,1768830923153,-746,8398,-131,0,0,0,0,0
733,1768830923236,-831,8449,-248,0,0,0,0,0
734,1768830923653,-754,8328,-152,0,0,0,0,0
735,1768830923820,-837,8365,-358,0,0,0,0,0
736,1768830924170,-747,8343,-420,0,0,0,0,0
737,1768830924403,-734,8390,-432,0,0,0,0,0
738,1768830924504,-779,8311,-577,0,0,0,0,0
739,1768830924803,-751,8395,-524,0,0,0,0,0
740,1768830925073,-752,8396,-327,0,0,0,0,0
741,1768830925320,-768,8333,-232,0,0,0,0,0
742,1768830925619,-758,8348,-334,0,0,0,0,0
743,1768830925787,-743,8368,-363,0,0,0,0,0
744,1768830925836,-774,8410,-383,0,0,0,0,0
745,1768830926170,-736,8311,-254,0,0,0,0,0
746,1768830926485,-766,8417,-412,0,0,0,0,0
747,1768830926803,-749,8397,-118,0,0,0,0,0
748,1768830927037,-739,8366,-84,0,0,0,0,0
749,1768830927138,-753,8347,-351,0,0,0,0,0
750,1768830927453,-778,8368,-334,0,0,0,0,0
751,1768830927621,-763,8331,-608,0,0,0,0,0
752,1768830927937,-804,8334,-457,0,0,0,0,0
753,1768830928086,-647,8378,-378,0,0,0,0,0
754,1768830928420,-786,8284,-305,0,0,0,0,0
755,1768830928920,-744,8350,-386,0,0,0,0,0
756,1768830929252,-784,8348,-374,0,0,0,0,0
757,1768830929421,-753,8354,-596,0,0,0,0,0
758,1768830929703,-778,8310,-452,0,0,0,0,0
759,1768830929955,-628,8476,-426,0,0,0,0,0
760,1768830930203,-754,8307,-142,0,0,0,0,0
761,1768830930319,-740,8310,-213,0,0,0,0,0
762,1768830930670,-741,8380,-350,0,0,0,0,0
763,1768830930888,-765,8422,-414,0,0,0,0,0
764,1768830931154,-724,8412,-388,0,0,0,0,0
765,1768830931405,-755,8304,-364,0,0,0,0,0
766,1768830931704,-794,7983,-502,0,0,0,0,0
767,1768830931855,-739,8260,-670,0,0,0,0,0
768,1768830932202,-767,8370,-480,0,0,0,0,0
769,1768830932320,-742,8337,-297,0,0,0,0,0
770,1768830932571,-726,8367,-307,0,0,0,0,0
771,1768830932769,-758,8340,-350,0,0,0,0,0
772,1768830933069,-736,8358,-379,0,0,0,0,0
773,1768830933353,-740,8330,-372,0,0,0,0,0
774,1768830933670,-749,8376,-344,0,0,0,0,0
775,1768830934119,-751,8346,-367,0,0,0,0,0
776,1768830934303,-757,8344,-384,0,0,0,0,0
777,1768830934502,-764,8348,-352,0,0,0,0,0
778,1768830934837,-764,8349,-338,0,0,0,0,0
779,1768830935070,-744,8351,-362,0,0,0,0,0
780,1768830935288,-765,8356,-378,0,0,0,0,0
781,1768830935735,-748,8442,-342,0,0,0,0,0
782,1768830936187,-743,8357,-358,0,0,0,0,0
783,1768830936504,-727,8356,-338,0,0,0,0,0
784,1768830936770,-789,8402,-379,0,0,0,0,0
785,1768830936887,-734,8449,-342,0,0,0,0,0
786,1768830937086,-740,8261,-379,0,0,0,0,0
787,1768830937338,-712,8388,-351,0,0,0,0,0
788,1768830937585,-532,8351,-438,0,0,0,0,0
789,1768830937935,-756,8357,-342,0,0,0,0,0
790,1768830938203,-763,8360,-331,0,0,0,0,0
791,1768830938455,-746,8362,-412,0,0,0,0,0
792,1768830938604,-767,8364,-358,0,0,0,0,0
793,1768830938804,-750,8348,-368,0,0,0,0,0
794,1768830939189,-734,8374,-367,0,0,0,0,0
795,1768830939253,-770,8384,-324,0,0,0,0,0
796,1768830939704,-755,8352,-368,0,0,0,0,0
797,1768830939987,-752,8349,-370,0,0,0,0,0
798,1768830940222,-750,8354,-348,0,0,0,0,0
799,1768830940419,-765,8349,-350,0,0,0,0,0
800,1768830940655,-734,8365,-350,0,0,0,0,0
801,1768830940905,-757,8356,-355,0,0,0,0,0
802,1768830941173,-755,8365,-360,0,0,0,0,0
803,1768830941372,-754,8354,-387,0,0,0,0,0
804,1768830941487,-755,8382,-340,0,0,0,0,0
805,1768830941787,-713,8357,-352,0,0,0,0,0
806,1768830942053,-780,8346,-369,0,0,0,0,0
807,1768830942254,-756,8346,-364,0,0,0,0,0
808,1768830942569,-762,8366,-342,0,0,0,0,0
809,1768830942688,-762,8345,-353,0,0,0,0,0
810,1768830943022,-751,8358,-362,0,0,0,0,0
811,1768830943488,-750,8349,-358,0,0,0,0,0
812,1768830943836,-753,8352,-356,0,0,0,0,0
813,1768830944055,-752,8348,-349,0,0,0,0,0
814,1768830944321,-754,8357,-362,0,0,0,0,0
815,1768830944420,-756,8354,-362,0,0,0,0,0
816,1768830944638,-762,8357,-364,0,0,0,0,0
817,1768830945122,-741,8358,-354,0,0,0,0,0
818,1768830945604,-742,8360,-363,0,0,0,0,0
819,1768830945704,-747,8358,-316,0,0,0,0,0
820,1768830945754,-756,8332,-254,0,0,0,0,0
821,1768830946086,-756,8332,-463,0,0,0,0,0
822,1768830946253,-739,8402,-354,0,0,0,0,0
823,1768830946537,-768,8304,-338,0,0,0,0,0
824,1768830946887,-748,8352,-358,0,0,0,0,0
825,1768830947336,-756,8376,-412,0,0,0,0,0
826,1768830947587,-780,8318,-274,0,0,0,0,0
827,1768830947820,-768,8353,-384,0,0,0,0,0
828,1768830948119,-756,8359,-390,0,0,0,0,0
829,1768830948336,-752,8376,-386,0,0,0,0,0
830,1768830948569,-752,8353,-351,0,0,0,0,0
831,1768830949054,-759,8338,-368,0,0,0,0,0
832,1768830949253,-758,8370,-379,0,0,0,0,0
833,1768830949504,-750,8365,-351,0,0,0,0,0
834,1768830949720,-770,8352,-340,0,0,0,0,0
835,1768830949771,-765,8359,-360,0,0,0,0,0
836,1768830949871,-753,8364,-346,0,0,0,0,0
837,1768830950404,-744,8343,-368,0,0,0,0,0
838,1768830950837,-753,8350,-350,0,0,0,0,0
839,1768830951304,-750,8362,-368,0,0,0,0,0
840,1768830951754,-750,8358,-352,0,0,0,0,0
841,1768830952039,-751,8353,-358,0,0,0,0,0
842,1768830952437,-746,8370,-314,0,0,0,0,0
843,1768830952504,-762,8345,-342,0,0,0,0,0
844,1768830952820,-743,8364,-376,0,0,0,0,0
845,1768830952987,-742,8356,-382,0,0,0,0,0
846,1768830953203,-758,8348,-361,0,0,0,0,0
847,1768830953487,-764,8351,-362,0,0,0,0,0
848,1768830953653,-750,8377,-354,0,0,0,0,0
849,1768830953737,-748,8339,-349,0,0,0,0,0
850,1768830953988,-754,8348,-367,0,0,0,0,0
851,1768830954120,-768,8351,-369,0,0,0,0,0
852,1768830954321,-756,8366,-352,0,0,0,0,0
853,1768830954588,-764,8359,-357,0,0,0,0,0
854,1768830954753,-756,8364,-352,0,0,0,0,0
855,1768830955086,-752,8364,-357,0,0,0,0,0
856,1768830955404,-766,8355,-348,0,0,0,0,0
857,1768830955720,-750,8342,-356,0,0,0,0,0
858,1768830955940,-753,8364,-367,0,0,0,0,0
859,1768830956253,-749,8346,-347,0,0,0,0,0
860,1768830956386,-754,8349,-360,0,0,0,0,0
861,1768830956703,-759,8352,-358,0,0,0,0,0
862,1768830956770,-752,8348,-356,0,0,0,0,0
863,1768830956837,-746,8361,-359,0,0,0,0,0
864,1768830956955,-755,8354,-365,0,0,0,0,0
865,1768830957236,-743,8348,-369,0,0,0,0,0
866,1768830957336,-765,8349,-345,0,0,0,0,0
867,1768830957570,-752,8360,-368,0,0,0,0,0
868,1768830957987,-756,8363,-365,0,0,0,0,0
869,1768830958071,-749,8363,-366,0,0,0,0,0
870,1768830958220,-753,8363,-363,0,0,0,0,0
871,1768830958519,-759,8372,-316,0,0,0,0,0
872,1768830958854,-748,8319,-488,0,0,0,0,0
873,1768830958987,-765,8369,-528,0,0,0,0,0
874,1768830959086,-747,8378,-357,0,0,0,0,0
875,1768830959386,-770,8342,-197,0,0,0,0,0
876,1768830959502,-751,8371,-293,0,0,0,0,0
877,1768830959671,-763,8336,-383,0,0,0,0,0
878,1768830960021,-750,8342,-408,0,0,0,0,0
879,1768830960253,-747,8346,-358,0,0,0,0,0
880,1768830960370,-751,8359,-340,0,0,0,0,0
881,1768830960622,-753,8359,-326,0,0,0,0,0
882,1768830960904,-772,8354,-364,0,0,0,0,0
883,1768830961237,-747,8374,-351,0,0,0,0,0
884,1768830961487,-746,8344,-340,0,0,0,0,0
885,1768830961754,-753,8340,-358,0,0,0,0,0
886,1768830961937,-758,8358,-364,0,0,0,0,0
887,1768830962203,-743,8359,-356,0,0,0,0,0
888,1768830962537,-754,8373,-342,0,0,0,0,0
889,1768830962753,-749,8346,-361,0,0,0,0,0
890,1768830963089,-744,8348,-377,0,0,0,0,0
891,1768830963321,-758,8359,-352,0,0,0,0,0
892,1768830963489,-755,8357,-363,0,0,0,0,0
893,1768830963621,-760,8338,-362,0,0,0,0,0
894,1768830964037,-764,8342,-348,0,0,0,0,0
895,1768830964122,-754,8366,-350,0,0,0,0,0
896,1768830964337,-716,8390,-350,0,0,0,0,0
897,1768830964521,-710,8356,-366,0,0,0,0,0
898,1768830964688,-784,8342,-369,0,0,0,0,0
899,1768830965020,-748,8360,-329,0,0,0,0,0
900,1768830965186,-764,8368,-356,0,0,0,0,0
901,1768830965404,-746,8341,-388,0,0,0,0,0
902,1768830965904,-786,8376,-362,0,0,0,0,0
903,1768830966172,-750,8350,-354,0,0,0,0,0
904,1768830966404,-748,8348,-358,0,0,0,0,0
905,1768830966639,-750,8373,-372,0,0,0,0,0
906,1768830966719,-748,8361,-357,0,0,0,0,0
907,1768830966986,-758,8364,-362,0,0,0,0,0
908,1768830967419,-744,8379,-369,0,0,0,0,0
909,1768830967719,-771,8332,-356,0,0,0,0,0
910,1768830967905,-755,8324,-368,0,0,0,0,0
911,1768830968221,-766,8368,-370,0,0,0,0,0
912,1768830968354,-750,8338,-364,0,0,0,0,0
913,1768830968704,-762,8360,-366,0,0,0,0,0
914,1768830969039,-754,8347,-350,0,0,0,0,0
915,1768830969172,-760,8358,-373,0,0,0,0,0
916,1768830969505,-741,8355,-342,0,0,0,0,0
917,1768830969586,-764,8360,-359,0,0,0,0,0
918,1768830969722,-740,8371,-350,0,0,0,0,0
919,1768830969986,-736,8378,-364,0,0,0,0,0
920,1768830970405,-830,8556,-399,0,0,0,0,0
921,1768830970555,-798,8291,-319,0,0,0,0,0
922,1768830970804,-748,8404,-374,0,0,0,0,0
923,1768830970888,-762,8342,-394,0,0,0,0,0
924,1768830971137,-741,8353,-339,0,0,0,0,0
925,1768830971339,-755,8322,-361,0,0,0,0,0
926,1768830971671,-746,8355,-373,0,0,0,0,0
927,1768830971754,-750,8329,-354,0,0,0,0,0
928,1768830971803,-720,8335,-387,0,0,0,0,0
929,1768830972136,-747,8354,-297,0,0,0,0,0
930,1768830972521,-752,8358,-375,0,0,0,0,0
931,1768830973004,-794,8349,-362,0,0,0,0,0
932,1768830973170,-756,8384,-327,0,0,0,0,0
933,1768830973488,-760,8345,-331,0,0,0,0,0
934,1768830973671,-748,8353,-361,0,0,0,0,0
935,1768830974006,-743,8355,-336,0,0,0,0,0
936,1768830974288,-770,8380,-360,0,0,0,0,0
937,1768830974505,-751,8362,-364,0,0,0,0,0
938,1768830974671,-741,8369,-366,0,0,0,0,0
939,1768830974969,-755,8364,-358,0,0,0,0,0
940,1768830975186,-764,8362,-359,0,0,0,0,0
941,1768830975319,-757,8344,-324,0,0,0,0,0
942,1768830975672,-750,8370,-354,0,0,0,0,0
943,1768830975787,-753,8357,-384,0,0,0,0,0
944,1768830976105,-744,8358,-367,0,0,0,0,0
945,1768830976253,-749,8350,-360,0,0,0,0,0
946,1768830976571,-753,8352,-346,0,0,0,0,0
947,1768830976771,-753,8350,-366,0,0,0,0,0
948,1768830977037,-753,8348,-349,0,0,0,0,0
949,1768830977153,-755,8354,-360,0,0,0,0,0
950,1768830977403,-757,8364,-340,0,0,0,0,0
951,1768830977653,-762,8352,-376,0,0,0,0,0
952,1768830977754,-754,8344,-384,0,0,0,0,0
953,1768830978170,-764,8368,-344,0,0,0,0,0
954,1768830978371,-756,8346,-355,0,0,0,0,0
955,1768830978538,-752,8358,-363,0,0,0,0,0
956,1768830979022,-776,8323,-360,0,0,0,0,0
957,1768830979472,-740,8334,-351,0,0,0,0,0
958,1768830979921,-764,8344,-363,0,0,0,0,0
959,1768830981936,-753,8353,-359,0,0,0,0,0
960,1768830982019,-758,8350,-379,0,0,0,0,0
961,1768830982236,-759,8340,-374,0,0,0,0,0
962,1768830982352,-756,8352,-372,0,0,0,0,0
963,1768830982520,-755,8372,-370,0,0,0,0,0
964,1768830982703,-758,8357,-364,0,0,0,0,0
965,1768830982836,-758,8362,-363,0,0,0,0,0
966,1768830983053,-756,8350,-366,0,0,0,0,0
967,1768830983136,-747,8346,-364,0,0,0,0,0
968,1768830983219,-748,8349,-362,0,0,0,0,0
969,1768830983554,-752,8350,-364,0,0,0,0,0
970,1768830984122,-758,8346,-357,0,0,0,0,0
971,1768830984404,-751,8363,-364,0,0,0,0,0
972,1768830984772,-754,8359,-360,0,0,0,0,0
973,1768830985138,-754,8359,-354,0,0,0,0,0
974,1768830985636,-757,8353,-357,0,0,0,0,0
975,1768830985955,-741,8352,-351,0,0,0,0,0
976,1768830986038,-756,8394,-356,0,0,0,0,0
977,1768830986385,-766,8350,-355,0,0,0,0,0
978,1768830986553,-741,8364,-356,0,0,0,0,0
979,1768830987004,-761,8364,-377,0,0,0,0,0
980,1768830987120,-752,8349,-364,0,0,0,0,0
981,1768830987502,-772,8353,-371,0,0,0,0,0
982,1768830987602,-750,8378,-351,0,0,0,0,0
983,1768830987902,-763,8343,-341,0,0,0,0,0
984,1768830988122,-767,8366,-360,0,0,0,0,0
985,1768830988388,-750,8360,-367,0,0,0,0,0
986,1768830988602,-762,8335,-374,0,0,0,0,0
987,1768830988769,-740,8376,-331,0,0,0,0,0
988,1768830989119,-748,8359,-376,0,0,0,0,0
989,1768830989253,-750,8368,-366,0,0,0,0,0
990,1768830989571,-756,8359,-360,0,0,0,0,0
991,1768830989770,-760,8366,-358,0,0,0,0,0
992,1768830990235,-752,8357,-356,0,0,0,0,0
993,1768830990621,-756,8360,-363,0,0,0,0,0
994,1768830990853,-757,8371,-361,0,0,0,0,0
995,1768830991121,-749,8370,-364,0,0,0,0,0
996,1768830991203,-757,8368,-360,0,0,0,0,0
997,1768830991535,-758,8359,-351,0,0,0,0,0
998,1768830991819,-756,8358,-362,0,0,0,0,0
999,1768830992054,-748,8358,-355,0,0,0,0,0
1000,1768830992551,-749,8358,-375,0,0,0,0,0
1001,1768830992687,-752,8363,-350,0,0,0,0,0
1002,1768830992919,-755,8369,-364,0,0,0,0,0
1003,1768830993152,-747,8361,-357,0,0,0,0,0
1004,1768830993455,-764,8348,-345,0,0,0,0,0
1005,1768830993521,-732,8353,-332,0,0,0,0,0
1006,1768830993788,-769,8352,-370,0,0,0,0,0
1007,1768830993988,-736,8376,-404,0,0,0,0,0
1008,1768830994155,-748,8356,-376,0,0,0,0,0
1009,1768830994403,-755,8361,-328,0,0,0,0,0
1010,1768830994738,-744,8362,-378,0,0,0,0,0
1011,1768830995036,-754,8361,-363,0,0,0,0,0
1012,1768830995272,-756,8355,-351,0,0,0,0,0
1013,1768830995437,-752,8358,-356,0,0,0,0,0
1014,1768830995521,-754,8360,-361,0,0,0,0,0
1015,1768830995638,-747,8366,-364,0,0,0,0,0
1016,1768830995921,-752,8357,-359,0,0,0,0,0
1017,1768830995988,-747,8358,-369,0,0,0,0,0
1018,1768830996188,-758,8362,-369,0,0,0,0,0
1019,1768830996671,-755,8352,-367,0,0,0,0,0
1020,1768830996854,-740,8378,-356,0,0,0,0,0
1021,1768830996920,-746,8360,-368,0,0,0,0,0
1022,1768830997189,-764,8370,-366,0,0,0,0,0
1023,1768830997403,-727,8352,-376,0,0,0,0,0
1024,1768830997705,-763,8326,-350,0,0,0,0,0
1025,1768830997869,-751,8371,-351,0,0,0,0,0
1026,1768830998122,-753,8371,-366,0,0,0,0,0
1027,1768830998222,-744,8360,-364,0,0,0,0,0
1028,1768830998504,-750,8362,-359,0,0,0,0,0
1029,1768830998669,-751,8360,-355,0,0,0,0,0
1030,1768830998770,-746,8361,-367,0,0,0,0,0
1031,1768830999104,-750,8345,-359,0,0,0,0,0
1032,1768830999171,-748,8372,-360,0,0,0,0,0
1033,1768830999502,-756,8351,-358,0,0,0,0,0
1034,1768830999602,-749,8367,-364,0,0,0,0,0
1035,1768830999802,-755,8351,-362,0,0,0,0,0
1036,1768831000188,-752,8358,-358,0,0,0,0,0
1037,1768831000354,-746,8360,-364,0,0,0,0,0
1038,1768831000486,-754,8350,-359,0,0,0,0,0
1039,1768831000804,-752,8364,-361,0,0,0,0,0
1040,1768831001054,-756,8370,-357,0,0,0,0,0
1041,1768831001321,-751,8372,-361,0,0,0,0,0
1042,1768831001671,-748,8366,-364,0,0,0,0,0
1043,1768831001771,-755,8362,-365,0,0,0,0,0
1044,1768831002053,-743,8361,-357,0,0,0,0,0
1045,1768831002338,-757,8360,-358,0,0,0,0,0
1046,1768831002655,-752,8377,-355,0,0,0,0,0
1047,1768831002919,-754,8355,-365,0,0,0,0,0
1048,1768831003119,-752,8362,-366,0,0,0,0,0
1049,1768831003171,-747,8368,-357,0,0,0,0,0
1050,1768831003618,-750,8366,-356,0,0,0,0,0
1051,1768831003771,-747,8361,-368,0,0,0,0,0
1052,1768831004119,-743,8360,-367,0,0,0,0,0
1053,1768831004336,-750,8356,-368,0,0,0,0,0
1054,1768831004435,-745,8359,-362,0,0,0,0,0
1055,1768831004669,-747,8351,-358,0,0,0,0,0
1056,1768831004820,-745,8356,-357,0,0,0,0,0
1057,1768831005137,-758,8366,-371,0,0,0,0,0
1058,1768831005388,-751,8364,-362,0,0,0,0,0
1059,1768831005804,-758,8362,-361,0,0,0,0,0
1060,1768831006251,-755,8358,-349,0,0,0,0,0
1061,1768831006518,-754,8368,-364,0,0,0,0,0
1062,1768831006668,-742,8357,-354,0,0,0,0,0
1063,1768831006753,-745,8348,-360,0,0,0,0,0
1064,1768831007070,-755,8361,-356,0,0,0,0,0
1065,1768831007218,-750,8362,-374,0,0,0,0,0
1066,1768831007651,-757,8366,-365,0,0,0,0,0
1067,1768831007752,-754,8353,-358,0,0,0,0,0
1068,1768831007886,-752,8362,-364,0,0,0,0,0
1069,1768831008153,-759,8363,-366,0,0,0,0,0
1070,1768831008486,-753,8372,-363,0,0,0,0,0
1071,1768831008685,-749,8356,-363,0,0,0,0,0
1072,1768831008986,-758,8363,-354,0,0,0,0,0
1073,1768831009203,-754,8354,-374,0,0,0,0,0
1074,1768831009370,-743,8366,-367,0,0,0,0,0
1075,1768831009620,-751,8362,-366,0,0,0,0,0
1076,1768831009870,-758,8371,-361,0,0,0,0,0
1077,1768831010186,-741,8351,-351,0,0,0,0,0
1078,1768831010438,-749,8364,-365,0,0,0,0,0
1079,1768831010671,-745,8356,-342,0,0,0,0,0
1080,1768831011136,-752,8354,-355,0,0,0,0,0
1081,1768831011604,-754,8364,-373,0,0,0,0,0
1082,1768831011804,-756,8372,-358,0,0,0,0,0
1083,1768831011837,-747,8360,-372,0,0,0,0,0
1084,1768831012087,-757,8358,-362,0,0,0,0,0
1085,1768831012403,-755,8365,-366,0,0,0,0,0
1086,1768831012603,-746,8370,-356,0,0,0,0,0
1087,1768831012772,-756,8358,-359,0,0,0,0,0
1088,1768831013037,-756,8379,-355,0,0,0,0,0
1089,1768831013253,-743,8347,-361,0,0,0,0,0
1090,1768831013569,-756,8377,-364,0,0,0,0,0
1091,1768831013721,-753,8362,-364,0,0,0,0,0
1092,1768831014087,-754,8359,-359,0,0,0,0,0
1093,1768831014486,-755,8354,-375,0,0,0,0,0
1094,1768831014719,-754,8371,-360,0,0,0,0,0
1095,1768831015004,-755,8354,-354,0,0,0,0,0
1096,1768831015136,-744,8381,-359,0,0,0,0,0
1097,1768831015485,-760,8370,-357,0,0,0,0,0
1098,1768831015687,-746,8360,-364,0,0,0,0,0
1099,1768831016170,-770,8341,-393,0,0,0,0,0
1100,1768831016353,-748,8360,-357,0,0,0,0,0
1101,1768831016653,-775,8369,-332,0,0,0,0,0
1102,1768831016720,-747,8350,-497,0,0,0,0,0
1103,1768831017054,-625,8282,-523,0,0,0,0,0
1104,1768831017186,-718,8252,-310,0,0,0,0,0
1105,1768831017520,-810,8497,-242,0,0,0,0,0
1106,1768831017887,-750,8356,-404,0,0,0,0,0
1107,1768831018170,-748,8366,-356,0,0,0,0,0
1108,1768831018438,-747,8347,-354,0,0,0,0,0
1109,1768831018519,-747,8331,-360,0,0,0,0,0
1110,1768831018720,-758,8387,-363,0,0,0,0,0
1111,1768831019204,-753,8352,-351,0,0,0,0,0
1112,1768831019685,-740,8379,-354,0,0,0,0,0
1113,1768831019937,-748,8358,-319,0,0,0,0,0
1114,1768831020051,-743,8382,-328,0,0,0,0,0
1115,1768831020401,-748,8355,-379,0,0,0,0,0
1116,1768831020671,-744,8363,-357,0,0,0,0,0
1117,1768831021020,-761,8369,-384,0,0,0,0,0
1118,1768831021484,-752,8370,-387,0,0,0,0,0
1119,1768831021837,-754,8371,-326,0,0,0,0,0
1120,1768831022086,-768,8362,-389,0,0,0,0,0
1121,1768831022351,-746,8364,-377,0,0,0,0,0
1122,1768831022635,-786,8330,-336,0,0,0,0,0
1123,1768831022887,-757,8341,-334,0,0,0,0,0
1124,1768831023036,-749,8348,-384,0,0,0,0,0
1125,1768831023453,-746,8454,-310,0,0,0,0,0
1126,1768831023737,-726,8301,-373,0,0,0,0,0
1127,1768831023937,-728,8346,-368,0,0,0,0,0
1128,1768831024270,-765,8368,-358,0,0,0,0,0
1129,1768831024320,-758,8327,-367,0,0,0,0,0
1130,1768831024653,-747,8401,-342,0,0,0,0,0
1131,1768831024720,-750,8396,-376,0,0,0,0,0
1132,1768831025003,-765,8342,-395,0,0,0,0,0
1133,1768831025187,-764,8399,-359,0,0,0,0,0
1134,1768831025486,-766,8372,-345,0,0,0,0,0
1135,1768831025570,-729,8344,-388,0,0,0,0,0
1136,1768831025670,-768,8312,-362,0,0,0,0,0
1137,1768831025985,-762,8352,-323,0,0,0,0,0
1138,1768831026337,-491,9388,2941,0,0,0,0,0
1139,1768831026519,-328,7775,2018,0,0,0,0,0
1140,1768831026693,-1133,8676,1664,0,0,0,0,0
1141,1768831027020,-320,8777,2442,0,0,0,0,0
1142,1768831027204,-632,8000,2338,0,0,0,0,0
1143,1768831027720,-1295,8258,2176,0,0,0,0,0
1144,1768831028135,-696,9017,1272,0,0,0,0,0
1145,1768831028203,-1172,8477,1666,0,0,0,0,0
1146,1768831028634,-130,8582,1164,0,0,0,0,0
1147,1768831029018,-770,9055,1648,0,0,0,0,0
1148,1768831029286,-830,8086,2304,0,0,0,0,0
1149,1768831029537,-740,9466,2015,0,0,0,0,0
1150,1768831029619,-349,8274,2262,0,0,0,0,0
1151,1768831029920,-140,7752,1363,0,0,0,0,0
1152,1768831030301,-1488,8455,3003,0,0,0,0,0
1153,1768831030534,-805,8190,1935,0,0,0,0,0
1154,1768831030768,-1284,9291,2919,0,0,0,0,0
1155,1768831031086,-1498,9123,1825,0,0,0,0,0
1156,1768831031320,-176,6570,2618,0,0,0,0,0
1157,1768831031553,271,9204,992,0,0,0,0,0
1158,1768831031718,560,8294,588,0,0,0,0,0
1159,1768831032020,330,8239,1449,0,0,0,0,0
1160,1768831032587,-712,9625,622,0,0,0,0,0
1161,1768831032786,818,7894,-220,0,0,0,0,0
1162,1768831033119,-635,10016,-16,0,0,0,0,0
1163,1768831033187,202,8674,936,0,0,0,0,0
1164,1768831033253,-1074,6598,377,0,0,0,0,0
1165,1768831033587,507,8062,318,0,0,0,0,0
1166,1768831033670,-1160,7046,-5501,0,0,0,0,0
1167,1768831033837,-2010,8398,-4506,0,0,0,0,0
1168,1768831034070,-1621,8868,-4477,0,0,0,0,0
1169,1768831034336,17479,8359,-4073,0,0,0,0,0
1170,1768831034602,1393,7765,-2692,0,0,0,0,0
1171,1768831034837,1460,8782,-2159,0,0,0,0,0
1172,1768831035287,249,7734,-1647,0,0,0,0,0
1173,1768831035720,-1518,7928,-1787,0,0,0,0,0
1174,1768831035837,-1398,7394,-2013,0,0,0,0,0
1175,1768831036103,-2401,8057,-1650,0,0,0,0,0
1176,1768831036319,-2126,9058,-1464,0,0,0,0,0
1177,1768831036570,-2844,8196,-1568,0,0,0,0,0
1178,1768831036919,-2436,9064,-984,0,0,0,0,0
1179,1768831037151,-2228,7288,-1524,0,0,0,0,0
1180,1768831037368,-3274,8444,-1560,0,0,0,0,0
1181,1768831037725,-2769,7622,-1724,0,0,0,0,0
1182,1768831037735,-2240,7688,-1716,0,0,0,0,0
1183,1768831037987,-2700,8199,-1367,0,0,0,0,0
1184,1768831038236,2192,8336,-1762,0,0,0,0,0
1185,1768831038470,4046,8562,-1689,0,0,0,0,0
1186,1768831038670,3502,8770,-2681,0,0,0,0,0
1187,1768831039087,1316,8875,-2176,0,0,0,0,0
1188,1768831039204,2266,8680,-2300,0,0,0,0,0
1189,1768831039553,1416,8685,-1568,0,0,0,0,0
1190,1768831039851,919,8333,-1898,0,0,0,0,0
1191,1768831040120,498,8634,-1399,0,0,0,0,0
1192,1768831040269,918,8692,-1151,0,0,0,0,0
1193,1768831040537,222,8440,-1506,0,0,0,0,0
1194,1768831040887,-557,8169,-1777,0,0,0,0,0
1195,1768831041220,-648,8361,-1725,0,0,0,0,0
1196,1768831041453,-509,8456,-2028,0,0,0,0,0
1197,1768831041636,-912,8170,-1974,0,0,0,0,0
1198,1768831041820,-1204,8284,-1892,0,0,0,0,0
1199,1768831042187,-670,8362,-542,0,0,0,0,0
1200,1768831042270,-962,8362,-561,0,0,0,0,0
1201,1768831042653,-771,8244,-552,0,0,0,0,0
1202,1768831042720,-806,8420,-466,0,0,0,0,0
1203,1768831043170,-774,8346,-515,0,0,0,0,0
1204,1768831043319,-809,8377,-436,0,0,0,0,0
1205,1768831043503,-794,8377,-517,0,0,0,0,0
1206,1768831043720,-752,8356,-448,0,0,0,0,0
1207,1768831044020,-769,8385,-428,0,0,0,0,0
1208,1768831044352,-786,8317,-520,0,0,0,0,0
1209,1768831044437,-810,8343,-468,0,0,0,0,0
1210,1768831044887,-794,8370,-483,0,0,0,0,0
1211,1768831045170,-786,8326,-495,0,0,0,0,0
1212,1768831045402,-796,8368,-500,0,0,0,0,0
1213,1768831045720,-802,8346,-501,0,0,0,0,0
1214,1768831046003,-785,8338,-489,0,0,0,0,0
1215,1768831046237,-796,8357,-502,0,0,0,0,0
1216,1768831046553,-788,8327,-508,0,0,0,0,0
1217,1768831046652,-766,8345,-506,0,0,0,0,0
1218,1768831047103,-780,8354,-505,0,0,0,0,0
1219,1768831047236,-799,8338,-468,0,0,0,0,0
1220,1768831047436,-785,8356,-504,0,0,0,0,0
1221,1768831047653,-812,8345,-494,0,0,0,0,0
1222,1768831047819,-765,8339,-489,0,0,0,0,0
1223,1768831047970,-800,8380,-496,0,0,0,0,0
1224,1768831048435,-814,8319,-490,0,0,0,0,0
1225,1768831048785,-794,8384,-500,0,0,0,0,0
1226,1768831049337,-781,8361,-484,0,0,0,0,0
1227,1768831049620,-820,8323,-490,0,0,0,0,0
1228,1768831049853,-844,8388,-476,0,0,0,0,0
1229,1768831050086,-871,8301,-536,0,0,0,0,0
1230,1768831050170,-819,8326,-504,0,0,0,0,0
1231,1768831050470,-831,8338,-468,0,0,0,0,0
1232,1768831050736,-710,8386,-489,0,0,0,0,0
1233,1768831050935,-820,8353,-495,0,0,0,0,0
1234,1768831051237,-747,8326,-503,0,0,0,0,0
1235,1768831051401,-782,8314,-493,0,0,0,0,0
1236,1768831051720,-794,8368,-480,0,0,0,0,0
1237,1768831051853,-785,8381,-501,0,0,0,0,0
1238,1768831052086,-801,8338,-490,0,0,0,0,0
1239,1768831052303,-799,8339,-492,0,0,0,0,0
1240,1768831052553,-764,8376,-491,0,0,0,0,0
1241,1768831053020,-780,8336,-478,0,0,0,0,0
1242,1768831053219,-800,8354,-499,0,0,0,0,0
1243,1768831053470,-786,8351,-491,0,0,0,0,0
1244,1768831053819,-778,8350,-499,0,0,0,0,0
1245,1768831054319,-776,8340,-486,0,0,0,0,0
1246,1768831054453,-791,8363,-493,0,0,0,0,0
1247,1768831054569,-789,8361,-488,0,0,0,0,0
1248,1768831054837,-790,8338,-490,0,0,0,0,0
1249,1768831055186,-790,8343,-494,0,0,0,0,0
1250,1768831055620,-786,8341,-498,0,0,0,0,0
1251,1768831055987,-799,8366,-499,0,0,0,0,0
1252,1768831056437,-783,8316,-492,0,0,0,0,0
1253,1768831056803,-783,8366,-482,0,0,0,0,0
1254,1768831057136,-803,8344,-487,0,0,0,0,0
1255,1768831057368,-822,8371,-605,0,0,0,0,0
1256,1768831057620,-907,8298,-722,0,0,0,0,0
1257,1768831057869,-776,8513,-829,0,0,0,0,0
1258,1768831058070,-824,8407,-472,0,0,0,0,0
1259,1768831058419,-672,8456,-411,0,0,0,0,0
1260,1768831058903,-756,8380,-352,0,0,0,0,0
1261,1768831059220,-684,8376,-432,0,0,0,0,0
1262,1768831059776,-676,8338,-595,0,0,0,0,0
1263,1768831059903,-784,8330,-581,0,0,0,0,0
1264,1768831060169,-731,8312,-548,0,0,0,0,0
1265,1768831060436,-735,8267,-468,0,0,0,0,0
1266,1768831060536,-728,8385,-478,0,0,0,0,0
1267,1768831060920,-816,8440,-354,0,0,0,0,0
1268,1768831060986,-788,8378,-434,0,0,0,0,0
1269,1768831061387,-790,8359,-528,0,0,0,0,0
1270,1768831061519,-690,8360,-349,0,0,0,0,0
1271,1768831061753,-610,8424,-482,0,0,0,0,0
1272,1768831062053,-785,8324,-498,0,0,0,0,0
1273,1768831062235,-786,8323,-450,0,0,0,0,0
1274,1768831062570,-756,8296,-477,0,0,0,0,0
1275,1768831062602,-855,8360,-565,0,0,0,0,0
1276,1768831062936,-513,8355,-585,0,0,0,0,0
1277,1768831063102,-758,8290,-510,0,0,0,0,0
1278,1768831063436,-668,8358,-576,0,0,0,0,0
1279,1768831063604,-638,8359,-648,0,0,0,0,0
1280,1768831063853,-821,8401,-652,0,0,0,0,0
1281,1768831064003,-732,8496,-647,0,0,0,0,0
1282,1768831064320,-799,8430,-472,0,0,0,0,0
1283,1768831064553,-686,8210,-555,0,0,0,0,0
1284,1768831064819,-700,8366,-564,0,0,0,0,0
1285,1768831065068,-593,8288,-426,0,0,0,0,0
1286,1768831065270,-708,8212,-394,0,0,0,0,0
1287,1768831065453,-801,8512,-406,0,0,0,0,0
1288,1768831065738,-630,8269,-444,0,0,0,0,0
1289,1768831065969,-823,8436,-542,0,0,0,0,0
1290,1768831066435,-879,8327,-308,0,0,0,0,0
1291,1768831066603,-783,8288,-212,0,0,0,0,0
1292,1768831066902,-785,8277,-142,0,0,0,0,0
1293,1768831067168,-800,8432,-321,0,0,0,0,0
1294,1768831067268,-722,8245,-174,0,0,0,0,0
1295,1768831067668,-1015,8245,-220,0,0,0,0,0
1296,1768831067751,-836,8382,-108,0,0,0,0,0
1297,1768831067986,-847,8326,-70,0,0,0,0,0
1298,1768831068200,-1003,8429,-164,0,0,0,0,0
1299,1768831068486,-1097,8161,27,0,0,0,0,0
1300,1768831068752,-718,8238,59,0,0,0,0,0
1301,1768831068968,-854,8358,108,0,0,0,0,0
1302,1768831069419,-905,8426,-69,0,0,0,0,0
1303,1768831069785,-931,8344,-32,0,0,0,0,0
1304,1768831070218,-835,8292,-35,0,0,0,0,0
1305,1768831070470,-862,8292,-71,0,0,0,0,0
1306,1768831070762,-862,8312,-252,0,0,0,0,0
1307,1768831070835,-826,8362,-283,0,0,0,0,0
1308,1768831071169,-779,8324,-154,0,0,0,0,0
1309,1768831071484,-812,8350,-210,0,0,0,0,0
1310,1768831071636,-842,8362,-164,0,0,0,0,0
1311,1768831072086,-833,8362,-202,0,0,0,0,0
1312,1768831072285,-823,8333,-196,0,0,0,0,0
1313,1768831072553,-828,8342,-233,0,0,0,0,0
1314,1768831072784,-839,8345,-216,0,0,0,0,0
1315,1768831073085,-820,8370,-227,0,0,0,0,0
1316,1768831073318,-713,8179,1582,0,0,0,0,0
1317,1768831073618,-860,8753,459,0,0,0,0,0
1318,1768831073684,-850,8377,392,0,0,0,0,0
1319,1768831073951,-752,8472,316,0,0,0,0,0
1320,1768831074134,-1475,8450,-479,0,0,0,0,0
1321,1768831074484,1129,8898,4066,0,0,0,0,0
1322,1768831074618,-610,8931,519,0,0,0,0,0
1323,1768831074952,-135,8040,968,0,0,0,0,0
1324,1768831075020,409,8341,1183,0,0,0,0,0
1325,1768831075103,837,8489,542,0,0,0,0,0
1326,1768831075402,475,8460,42,0,0,0,0,0
1327,1768831075487,699,7968,126,0,0,0,0,0
1328,1768831075618,758,8500,42,0,0,0,0,0
1329,1768831076119,358,8552,-375,0,0,0,0,0
1330,1768831076354,-326,8620,-726,0,0,0,0,0
1331,1768831076639,40,8497,-148,0,0,0,0,0
1332,1768831076869,-813,9244,-308,0,0,0,0,0
1333,1768831077236,-554,8379,-443,0,0,0,0,0
1334,1768831077569,-434,8221,169,0,0,0,0,0
1335,1768831077753,-881,9704,-123,0,0,0,0,0
1336,1768831078035,-749,8130,-311,0,0,0,0,0
1337,1768831078237,-874,8480,-23,0,0,0,0,0
1338,1768831078520,-448,7589,-24,0,0,0,0,0
1339,1768831078653,-1106,8610,-242,0,0,0,0,0
1340,1768831078787,-878,7614,-82,0,0,0,0,0
1341,1768831079286,-671,8288,112,0,0,0,0,0
1342,1768831079420,-860,8424,-302,0,0,0,0,0
1343,1768831079751,-392,8132,-30,0,0,0,0,0
1344,1768831079871,-883,8139,-597,0,0,0,0,0
1345,1768831080067,-1029,7990,-707,0,0,0,0,0
1346,1768831080335,-806,7969,-571,0,0,0,0,0
1347,1768831080570,-990,8906,-1068,0,0,0,0,0
1348,1768831081020,-1110,8482,-753,0,0,0,0,0
1349,1768831081102,-926,8386,-917,0,0,0,0,0
1350,1768831081170,-852,8068,-868,0,0,0,0,0
1351,1768831081368,-1079,8678,-723,0,0,0,0,0
1352,1768831081617,-1057,9499,-290,0,0,0,0,0
1353,1768831081853,-1283,8778,-788,0,0,0,0,0
1354,1768831081918,-792,8570,-804,0,0,0,0,0
1355,1768831082169,-894,8004,-590,0,0,0,0,0
1356,1768831082384,-881,8757,-1855,0,0,0,0,0
1357,1768831082652,-430,8079,-258,0,0,0,0,0
1358,1768831082969,-918,8571,-2293,0,0,0,0,0
1359,1768831083119,-229,8166,598,0,0,0,0,0
1360,1768831083435,-1365,8394,-1481,0,0,0,0,0
1361,1768831083568,-1690,8747,-690,0,0,0,0,0
1362,1768831083784,-800,8503,-1171,0,0,0,0,0
1363,1768831084084,-844,8358,-497,0,0,0,0,0
1364,1768831084318,-778,8004,-666,0,0,0,0,0
1365,1768831084468,-865,8279,-719,0,0,0,0,0
1366,1768831084636,-988,8406,-571,0,0,0,0,0
1367,1768831084819,-860,8419,-718,0,0,0,0,0
1368,1768831085068,-1032,8416,-641,0,0,0,0,0
1369,1768831085201,-927,8352,-608,0,0,0,0,0
1370,1768831085318,-919,8096,-572,0,0,0,0,0
1371,1768831085684,-954,8483,-577,0,0,0,0,0
1372,1768831085918,-892,8109,-688,0,0,0,0,0
1373,1768831086117,-924,8298,-1088,0,0,0,0,0
1374,1768831086184,-861,8763,-538,0,0,0,0,0
1375,1768831086501,-783,8391,-1020,0,0,0,0,0
1376,1768831086554,-2525,7423,1549,0,0,0,0,0
1377,1768831086785,-1056,7755,529,0,0,0,0,0
1378,1768831087104,-1242,8496,-943,0,0,0,0,0
1379,1768831087436,-654,8584,-572,0,0,0,0,0
1380,1768831087718,-938,8214,-202,0,0,0,0,0
1381,1768831087902,-922,8661,-778,0,0,0,0,0
1382,1768831088185,-874,8165,-670,0,0,0,0,0
1383,1768831088601,-846,8340,-709,0,0,0,0,0
1384,1768831089085,-924,8462,-588,0,0,0,0,0
1385,1768831089234,-925,8498,-610,0,0,0,0,0
1386,1768831089584,-948,8446,-586,0,0,0,0,0
1387,1768831090019,-886,8368,-603,0,0,0,0,0
1388,1768831090386,-826,8229,-591,0,0,0,0,0
1389,1768831090652,-866,8299,-579,0,0,0,0,0
1390,1768831090901,-926,8363,-574,0,0,0,0,0
1391,1768831091185,-876,8322,-560,0,0,0,0,0
1392,1768831091503,-872,8343,-369,0,0,0,0,0
1393,1768831091668,-864,8314,-364,0,0,0,0,0
1394,1768831092051,-853,8328,-260,0,0,0,0,0
1395,1768831092151,-884,8354,-300,0,0,0,0,0
1396,1768831092369,-906,8324,-268,0,0,0,0,0
1397,1768831092617,-862,8373,-283,0,0,0,0,0
1398,1768831092885,-918,8311,-346,0,0,0,0,0
1399,1768831093135,-849,8372,-329,0,0,0,0,0
1400,1768831093402,-881,8341,-344,0,0,0,0,0
1401,1768831093768,-873,8340,-323,0,0,0,0,0
1402,1768831094035,-883,8340,-336,0,0,0,0,0
1403,1768831094253,-874,8370,-341,0,0,0,0,0
1404,1768831094502,-876,8334,-330,0,0,0,0,0
1405,1768831094719,-870,8345,-327,0,0,0,0,0
1406,1768831095102,-866,8338,-332,0,0,0,0,0
1407,1768831095435,-877,8346,-327,0,0,0,0,0
1408,1768831095569,-864,8347,-334,0,0,0,0,0
1409,1768831095819,-872,8349,-335,0,0,0,0,0
1410,1768831095886,-874,8346,-336,0,0,0,0,0
1411,1768831096119,-872,8345,-334,0,0,0,0,0
1412,1768831096352,-869,8356,-345,0,0,0,0,0
1413,1768831096469,-874,8331,-348,0,0,0,0,0
1414,1768831096852,-858,8325,-352,0,0,0,0,0
1415,1768831097019,-864,8351,-337,0,0,0,0,0
1416,1768831097301,-866,8347,-328,0,0,0,0,0
1417,1768831097534,-878,8352,-355,0,0,0,0,0
1418,1768831097800,-879,8368,-334,0,0,0,0,0
1419,1768831098016,-866,8330,-358,0,0,0,0,0
1420,1768831098184,-876,8356,-325,0,0,0,0,0
1421,1768831098469,-872,8320,-343,0,0,0,0,0
1422,1768831098687,-852,8352,-299,0,0,0,0,0
1423,1768831098937,-860,8334,-320,0,0,0,0,0
1424,1768831099200,-857,8372,-314,0,0,0,0,0
1425,1768831099450,-886,8340,-300,0,0,0,0,0
1426,1768831099737,-894,8354,-326,0,0,0,0,0
1427,1768831100103,-893,8344,-354,0,0,0,0,0
1428,1768831100169,-869,8338,-332,0,0,0,0,0
1429,1768831100353,-934,8317,-336,0,0,0,0,0
1430,1768831100668,-851,8363,-322,0,0,0,0,0
1431,1768831100985,-864,8364,-314,0,0,0,0,0
1432,1768831101418,-893,8356,-328,0,0,0,0,0
1433,1768831101569,-856,8308,-335,0,0,0,0,0
1434,1768831101784,-876,8402,-301,0,0,0,0,0
1435,1768831102001,-866,8288,-356,0,0,0,0,0
1436,1768831102301,-874,8326,-309,0,0,0,0,0
1437,1768831102401,-884,8348,-274,0,0,0,0,0
1438,1768831102650,-864,8369,-320,0,0,0,0,0
1439,1768831102919,-884,8320,-315,0,0,0,0,0
1440,1768831103069,-876,8358,-354,0,0,0,0,0
1441,1768831103203,-874,8333,-347,0,0,0,0,0
1442,1768831103619,-879,8344,-337,0,0,0,0,0
1443,1768831103787,-871,8345,-350,0,0,0,0,0
1444,1768831103970,-864,8334,-338,0,0,0,0,0
1445,1768831104217,-878,8346,-330,0,0,0,0,0
1446,1768831104467,-878,8352,-340,0,0,0,0,0
1447,1768831104787,-862,8349,-340,0,0,0,0,0
1448,1768831105018,-866,8334,-334,0,0,0,0,0
1449,1768831105335,-888,8358,-342,0,0,0,0,0
1450,1768831105569,-867,8338,-326,0,0,0,0,0
1451,1768831105671,-874,8335,-318,0,0,0,0,0
1452,1768831105919,-873,8342,-320,0,0,0,0,0
1453,1768831106251,-872,8347,-340,0,0,0,0,0
1454,1768831106753,-853,8358,-324,0,0,0,0,0
1455,1768831107035,-865,8334,-326,0,0,0,0,0
1456,1768831107654,-869,8347,-350,0,0,0,0,0
1457,1768831107852,-862,8366,-323,0,0,0,0,0
1458,1768831108119,-887,8331,-341,0,0,0,0,0
1459,1768831108500,-876,8361,-344,0,0,0,0,0
1460,1768831108902,-870,8335,-340,0,0,0,0,0
1461,1768831109386,-871,8354,-304,0,0,0,0,0
1462,1768831109601,-865,8358,-346,0,0,0,0,0
1463,1768831109867,-873,8332,-334,0,0,0,0,0
1464,1768831110153,-882,8363,-340,0,0,0,0,0
1465,1768831110404,-884,8310,-344,0,0,0,0,0
1466,1768831110518,-874,8337,-325,0,0,0,0,0
1467,1768831110785,-868,8348,-340,0,0,0,0,0
1468,1768831111053,-869,8341,-324,0,0,0,0,0
1469,1768831111152,-876,8350,-337,0,0,0,0,0
1470,1768831111418,-857,8324,-327,0,0,0,0,0
1471,1768831111667,-871,8374,-333,0,0,0,0,0
1472,1768831112004,-876,8336,-340,0,0,0,0,0
1473,1768831112502,-873,8346,-333,0,0,0,0,0
1474,1768831112852,-872,8352,-334,0,0,0,0,0
1475,1768831113202,-870,8315,-302,0,0,0,0,0
1476,1768831113435,-860,8351,-319,0,0,0,0,0
1477,1768831113684,-908,8302,-288,0,0,0,0,0
1478,1768831113783,-830,8348,-216,0,0,0,0,0
1479,1768831114034,-870,8406,-342,0,0,0,0,0
1480,1768831114267,-876,8287,-282,0,0,0,0,0
1481,1768831114806,-880,8362,-345,0,0,0,0,0
1482,1768831115102,-863,8392,-309,0,0,0,0,0
1483,1768831115250,-909,8283,-318,0,0,0,0,0
1484,1768831115450,-876,8338,-318,0,0,0,0,0
1485,1768831115701,-900,8338,-370,0,0,0,0,0
1486,1768831116001,-831,8329,-334,0,0,0,0,0
1487,1768831116150,-900,8358,-348,0,0,0,0,0
1488,1768831116484,-864,8435,-332,0,0,0,0,0
1489,1768831165383,-872,8357,-346,0,0,0,0,0
1490,1768831165483,-869,8360,-349,0,0,0,0,0
1491,1768831165684,-884,8358,-353,0,0,0,0,0
1492,1768831165816,-862,8354,-356,0,0,0,0,0
1493,1768831165984,-878,8354,-356,0,0,0,0,0
1494,1768831166149,-862,8357,-322,0,0,0,0,0
1495,1768831166301,-869,8358,-303,0,0,0,0,0
1496,1768831166483,-862,8336,-334,0,0,0,0,0
1497,1768831166599,-868,8345,-386,0,0,0,0,0
1498,1768831166666,-878,8344,-328,0,0,0,0,0
1499,1768831167016,-876,8355,-332,0,0,0,0,0
1500,1768831167216,-874,8348,-341,0,0,0,0,0
1501,1768831167482,-876,8354,-330,0,0,0,0,0
1502,1768831167566,-870,8342,-355,0,0,0,0,0
1503,1768831167833,-867,8341,-336,0,0,0,0,0
1504,1768831168083,-862,8342,-346,0,0,0,0,0
1505,1768831168333,-878,8364,-341,0,0,0,0,0
1506,1768831168649,-859,8324,-309,0,0,0,0,0
1507,1768831169134,-845,8365,-310,0,0,0,0,0
1508,1768831169416,-878,8336,-354,0,0,0,0,0
1509,1768831169632,-866,8366,-334,0,0,0,0,0
1510,1768831169983,-864,8346,-357,0,0,0,0,0
1511,1768831170466,-869,8354,-354,0,0,0,0,0
1512,1768831170700,-870,8357,-349,0,0,0,0,0
1513,1768831170950,-862,8356,-332,0,0,0,0,0
1514,1768831171183,-877,8343,-338,0,0,0,0,0
1515,1768831171316,-867,8349,-342,0,0,0,0,0
1516,1768831171699,-858,8339,-357,0,0,0,0,0
1517,1768831171783,-866,8349,-336,0,0,0,0,0
1518,1768831172033,-861,8347,-348,0,0,0,0,0
1519,1768831172266,-864,8350,-344,0,0,0,0,0
1520,1768831172565,-864,8344,-341,0,0,0,0,0
1521,1768831173066,-868,8350,-339,0,0,0,0,0
1522,1768831173399,-868,8353,-328,0,0,0,0,0
1523,1768831173833,-872,8344,-334,0,0,0,0,0
1524,1768831174166,-870,8359,-340,0,0,0,0,0
1525,1768831174348,-866,8366,-320,0,0,0,0,0
1526,1768831174533,-867,8348,-338,0,0,0,0,0
1527,1768831174716,-878,8351,-340,0,0,0,0,0
1528,1768831175016,-873,8360,-329,0,0,0,0,0
1529,1768831175166,-872,8349,-338,0,0,0,0,0
1530,1768831175484,-868,8361,-335,0,0,0,0,0
1531,1768831175616,-872,8360,-343,0,0,0,0,0
1532,1768831175869,-873,8342,-332,0,0,0,0,0
1533,1768831176000,-868,8350,-334,0,0,0,0,0
1534,1768831176318,-869,8356,-336,0,0,0,0,0
1535,1768831176666,-872,8347,-332,0,0,0,0,0
1536,1768831177150,-880,8344,-329,0,0,0,0,0
1537,1768831177516,-869,8347,-340,0,0,0,0,0
1538,1768831177632,-870,8348,-332,0,0,0,0,0
1539,1768831177982,-870,8354,-330,0,0,0,0,0
1540,1768831178451,-860,8353,-338,0,0,0,0,0
1541,1768831178815,-866,8345,-334,0,0,0,0,0
1542,1768831179182,-868,8354,-340,0,0,0,0,0
1543,1768831179282,-875,8340,-336,0,0,0,0,0
1544,1768831179783,-872,8344,-331,0,0,0,0,0
1545,1768831180149,-861,8343,-334,0,0,0,0,0
1546,1768831180316,-868,8347,-332,0,0,0,0,0
1547,1768831180616,-882,8362,-331,0,0,0,0,0
1548,1768831180832,-861,8343,-332,0,0,0,0,0
1549,1768831181100,-876,8357,-349,0,0,0,0,0
1550,1768831181466,-875,8358,-350,0,0,0,0,0
1551,1768831181933,-859,8363,-316,0,0,0,0,0
1552,1768831182283,-881,8352,-317,0,0,0,0,0
1553,1768831182549,-869,8358,-324,0,0,0,0,0
1554,1768831182733,-869,8343,-335,0,0,0,0,0
1555,1768831183049,-875,8344,-324,0,0,0,0,0
1556,1768831183199,-868,8350,-340,0,0,0,0,0
1557,1768831183366,-877,8352,-336,0,0,0,0,0
1558,1768831183633,-872,8360,-328,0,0,0,0,0
1559,1768831183949,-875,8347,-314,0,0,0,0,0
1560,1768831184033,-864,8367,-291,0,0,0,0,0
1561,1768831184166,-853,8349,-293,0,0,0,0,0
1562,1768831184616,-872,8339,-331,0,0,0,0,0
1563,1768831184800,-854,8360,-336,0,0,0,0,0
1564,1768831185084,-855,8383,-351,0,0,0,0,0
1565,1768831185402,-864,8352,-339,0,0,0,0,0
1566,1768831185417,-870,8393,-355,0,0,0,0,0
1567,1768831185716,-874,8330,-355,0,0,0,0,0
1568,1768831185983,-880,8316,-362,0,0,0,0,0
1569,1768831186232,-874,8346,-359,0,0,0,0,0
1570,1768831186566,-875,8339,-333,0,0,0,0,0
1571,1768831186699,-874,8304,-366,0,0,0,0,0
1572,1768831186867,-872,8367,-355,0,0,0,0,0
1573,1768831187083,-876,8349,-329,0,0,0,0,0
1574,1768831187401,-866,8356,-338,0,0,0,0,0
1575,1768831187617,-871,8358,-335,0,0,0,0,0
1576,1768831187916,-868,8347,-339,0,0,0,0,0
1577,1768831188066,-881,8347,-338,0,0,0,0,0
1578,1768831188249,-865,8358,-336,0,0,0,0,0
1579,1768831188366,-873,8352,-329,0,0,0,0,0
1580,1768831188616,-875,8344,-342,0,0,0,0,0
1581,1768831188816,-866,8353,-335,0,0,0,0,0
1582,1768831188816,-866,8364,-334,0,0,0,0,0
1583,1768831188900,-867,8348,-333,0,0,0,0,0
1584,1768831189201,-870,8350,-331,0,0,0,0,0
1585,1768831189317,-865,8346,-342,0,0,0,0,0
1586,1768831189651,-870,8357,-324,0,0,0,0,0
1587,1768831189701,-868,8358,-346,0,0,0,0,0
1588,1768831189816,-873,8347,-336,0,0,0,0,0
1589,1768831190099,-858,8340,-330,0,0,0,0,0
1590,1768831190201,-867,8344,-336,0,0,0,0,0
1591,1768831190550,-872,8367,-333,0,0,0,0,0
1592,1768831190833,-894,8326,-346,0,0,0,0,0
1593,1768831191167,-878,8354,-348,0,0,0,0,0
1594,1768831191384,-859,8358,-339,0,0,0,0,0
1595,1768831191616,-882,8354,-336,0,0,0,0,0
1596,1768831191816,-863,8347,-348,0,0,0,0,0
1597,1768831191966,-862,8358,-334,0,0,0,0,0
1598,1768831192034,-858,8360,-338,0,0,0,0,0
1599,1768831192266,-881,8338,-338,0,0,0,0,0
1600,1768831192483,-835,8349,-331,0,0,0,0,0
1601,1768831192683,-890,8356,-348,0,0,0,0,0
1602,1768831192817,-864,8376,-369,0,0,0,0,0
1603,1768831193066,-873,8318,-339,0,0,0,0,0
1604,1768831193216,-874,8370,-341,0,0,0,0,0
1605,1768831193333,-818,8335,18,0,0,0,0,0
1606,1768831193667,-922,8457,-302,0,0,0,0,0
1607,1768831193933,-742,8230,306,0,0,0,0,0
1608,1768831194250,-820,8342,264,0,0,0,0,0
1609,1768831194518,-876,8324,384,0,0,0,0,0
1610,1768831194884,-914,8394,538,0,0,0,0,0
1611,1768831195084,-914,8223,460,0,0,0,0,0
1612,1768831195351,-796,8427,448,0,0,0,0,0
1613,1768831195650,-1038,8154,414,0,0,0,0,0
1614,1768831195935,-950,8247,550,0,0,0,0,0
1615,1768831196315,-758,8424,467,0,0,0,0,0
1616,1768831196452,-972,8214,567,0,0,0,0,0
1617,1768831196518,-874,8207,403,0,0,0,0,0
1618,1768831197034,-695,7826,353,0,0,0,0,0
1619,1768831197449,-1122,8229,212,0,0,0,0,0
1620,1768831197635,-675,8230,209,0,0,0,0,0
1621,1768831197949,-638,8261,136,0,0,0,0,0
1622,1768831198267,-744,8580,127,0,0,0,0,0
1623,1768831198566,-759,8067,308,0,0,0,0,0
1624,1768831198749,-762,8529,48,0,0,0,0,0
1625,1768831199067,-588,8455,60,0,0,0,0,0
1626,1768831199349,-843,8204,-316,0,0,0,0,0
1627,1768831199716,-375,8302,-129,0,0,0,0,0
1628,1768831199968,-753,8256,39,0,0,0,0,0
1629,1768831200266,-701,8254,-330,0,0,0,0,0
1630,1768831200450,-568,8526,-46,0,0,0,0,0
1631,1768831200851,-934,7992,-316,0,0,0,0,0
1632,1768831201168,-650,8550,108,0,0,0,0,0
1633,1768831201285,-690,8283,-78,0,0,0,0,0
1634,1768831201584,-433,7074,-241,0,0,0,0,0
1635,1768831201732,-318,8055,346,0,0,0,0,0
1636,1768831202001,-842,8628,-488,0,0,0,0,0
1637,1768831202117,-405,8579,138,0,0,0,0,0
1638,1768831202217,-694,8140,-78,0,0,0,0,0
1639,1768831202568,-561,8065,72,0,0,0,0,0
1640,1768831202701,-865,7869,225,0,0,0,0,0
1641,1768831203315,-1028,8178,-432,0,0,0,0,0
1642,1768831203733,-504,8452,-132,0,0,0,0,0
1643,1768831204216,-224,7914,-195,0,0,0,0,0
1644,1768831204368,-1225,8636,-774,0,0,0,0,0
1645,1768831204716,-470,8622,192,0,0,0,0,0
1646,1768831205099,-308,7264,-235,0,0,0,0,0
1647,1768831205285,-179,9156,-55,0,0,0,0,0
1648,1768831205518,-862,8154,-615,0,0,0,0,0
1649,1768831205984,-424,8475,124,0,0,0,0,0
1650,1768831206266,-744,9167,-590,0,0,0,0,0
1651,1768831206485,-1010,8229,-530,0,0,0,0,0
1652,1768831206800,-766,7648,-626,0,0,0,0,0
1653,1768831207300,-479,7771,247,0,0,0,0,0
1654,1768831207568,-1015,8536,-315,0,0,0,0,0
1655,1768831207835,-667,8669,-865,0,0,0,0,0
1656,1768831208035,-927,9126,-751,0,0,0,0,0
1657,1768831208384,-843,8148,-291,0,0,0,0,0
1658,1768831208516,-396,8932,-1197,0,0,0,0,0
1659,1768831208950,-737,8763,-639,0,0,0,0,0
1660,1768831209234,-637,8928,-343,0,0,0,0,0
1661,1768831209334,-898,8824,-285,0,0,0,0,0
1662,1768831209634,-1096,8701,-300,0,0,0,0,0
1663,1768831209849,-562,7621,-617,0,0,0,0,0
1664,1768831210100,-687,8430,-426,0,0,0,0,0
1665,1768831210333,-1039,7381,-731,0,0,0,0,0
1666,1768831210785,-854,9521,-775,0,0,0,0,0
1667,1768831211101,-829,7954,-1161,0,0,0,0,0
1668,1768831211419,-870,7951,-826,0,0,0,0,0
1669,1768831211517,-1224,8726,-904,0,0,0,0,0
1670,1768831211584,-483,7926,-74,0,0,0,0,0
1671,1768831211917,-218,7759,-602,0,0,0,0,0
1672,1768831212000,163,8128,-800,0,0,0,0,0
1673,1768831212485,1444,8499,-534,0,0,0,0,0
1674,1768831213034,2174,7576,-1503,0,0,0,0,0
1675,1768831213202,1242,9215,-1720,0,0,0,0,0
1676,1768831213468,199,8829,-1774,0,0,0,0,0
1677,1768831213733,509,8150,-2387,0,0,0,0,0
1678,1768831214000,253,8996,-1286,0,0,0,0,0
1679,1768831214450,-975,7607,-2703,0,0,0,0,0
1680,1768831214649,-416,8784,-1551,0,0,0,0,0
1681,1768831214849,-716,8684,-1596,0,0,0,0,0
1682,1768831215218,-1080,8306,-1409,0,0,0,0,0
1683,1768831215300,-1024,8370,-1517,0,0,0,0,0
1684,1768831215719,-917,8238,-1321,0,0,0,0,0
1685,1768831215834,-775,8407,-1306,0,0,0,0,0
1686,1768831216168,-789,8350,-451,0,0,0,0,0
1687,1768831216351,-800,8431,-60,0,0,0,0,0
1688,1768831216516,-755,8286,-431,0,0,0,0,0
1689,1768831216801,-698,8464,-392,0,0,0,0,0
1690,1768831217016,-757,8408,-458,0,0,0,0,0
1691,1768831217232,-812,8350,-409,0,0,0,0,0
1692,1768831217500,-771,8300,-370,0,0,0,0,0
1693,1768831217800,-805,8285,-461,0,0,0,0,0
1694,1768831218032,-768,8350,-674,0,0,0,0,0
1695,1768831218316,-782,8402,-503,0,0,0,0,0
1696,1768831218384,-800,8276,-467,0,0,0,0,0
1697,1768831218884,-753,8316,-406,0,0,0,0,0
1698,1768831219100,-776,8329,-432,0,0,0,0,0
1699,1768831219399,-769,8406,-425,0,0,0,0,0
1700,1768831219752,-799,8382,-389,0,0,0,0,0
1701,1768831219966,-794,8352,-362,0,0,0,0,0
1702,1768831220251,-796,8334,-330,0,0,0,0,0
1703,1768831220720,-796,8375,-428,0,0,0,0,0
1704,1768831220783,-774,8338,-438,0,0,0,0,0
1705,1768831220867,-772,8327,-323,0,0,0,0,0
1706,1768831221067,-806,8316,-369,0,0,0,0,0
1707,1768831221334,-812,8376,-413,0,0,0,0,0
1708,1768831221568,-716,8342,-420,0,0,0,0,0
1709,1768831222001,-755,8460,-355,0,0,0,0,0
1710,1768831222133,-814,8319,-394,0,0,0,0,0
1711,1768831222467,-766,8385,-402,0,0,0,0,0
1712,1768831222584,-786,8348,-419,0,0,0,0,0
1713,1768831222818,-788,8395,-371,0,0,0,0,0
1714,1768831223068,-776,8352,-384,0,0,0,0,0
1715,1768831223269,-776,8360,-365,0,0,0,0,0
1716,1768831223367,-774,8374,-348,0,0,0,0,0
1717,1768831223618,-755,8359,-289,0,0,0,0,0
1718,1768831223868,-754,8330,-454,0,0,0,0,0
1719,1768831224101,-758,8360,-289,0,0,0,0,0
1720,1768831224384,-798,8394,-424,0,0,0,0,0
1721,1768831224632,-767,8316,-438,0,0,0,0,0
1722,1768831224983,-799,8334,-394,0,0,0,0,0
1723,1768831225284,-764,8356,-411,0,0,0,0,0
1724,1768831225551,-782,8369,-354,0,0,0,0,0
1725,1768831225918,-777,8362,-375,0,0,0,0,0
1726,1768831226384,-779,8370,-407,0,0,0,0,0
1727,1768831226783,-768,8344,-404,0,0,0,0,0
1728,1768831227017,-772,8376,-387,0,0,0,0,0
1729,1768831227368,-745,8367,-392,0,0,0,0,0
1730,1768831227517,-790,8342,-366,0,0,0,0,0
1731,1768831319615,-762,8362,-382,0,0,0,0,0
1732,1768831319700,-764,8360,-394,0,0,0,0,0
1733,1768831319917,-759,8350,-400,0,0,0,0,0
1734,1768831320048,-753,8366,-386,0,0,0,0,0
1735,1768831320215,-764,8360,-387,0,0,0,0,0
1736,1768831320381,-759,8362,-380,0,0,0,0,0
1737,1768831320531,-754,8354,-398,0,0,0,0,0
1738,1768831320733,-762,8354,-388,0,0,0,0,0
1739,1768831320817,-762,8365,-367,0,0,0,0,0
1740,1768831320899,-751,8353,-391,0,0,0,0,0
1741,1768831321429,-756,8348,-386,0,0,0,0,0
1742,1768831321751,-757,8362,-378,0,0,0,0,0
1743,1768831322017,-758,8362,-371,0,0,0,0,0
1744,1768831322166,-758,8358,-384,0,0,0,0,0
1745,1768831322581,-760,8353,-367,0,0,0,0,0
1746,1768831322832,-762,8361,-374,0,0,0,0,0
1747,1768831323033,-762,8352,-373,0,0,0,0,0
1748,1768831323483,-744,8346,-380,0,0,0,0,0
1749,1768831323664,-775,8354,-388,0,0,0,0,0
1750,1768831323948,-756,8354,-372,0,0,0,0,0
1751,1768831324348,-752,8316,-396,0,0,0,0,0
1752,1768831324533,-752,8347,-372,0,0,0,0,0
1753,1768831324817,-753,8362,-392,0,0,0,0,0
1754,1768831325000,-773,8349,-387,0,0,0,0,0
1755,1768831325283,-756,8361,-377,0,0,0,0,0
1756,1768831325616,-756,8363,-378,0,0,0,0,0
1757,1768831325799,-752,8361,-358,0,0,0,0,0
1758,1768831326317,-762,8359,-362,0,0,0,0,0
1759,1768831326550,-763,8368,-397,0,0,0,0,0
1760,1768831327032,-765,8358,-368,0,0,0,0,0
1761,1768831327533,-753,8359,-358,0,0,0,0,0
1762,1768831327833,-758,8338,-362,0,0,0,0,0
1763,1768831328266,-762,8360,-374,0,0,0,0,0
1764,1768831328732,-771,8347,-364,0,0,0,0,0
1765,1768831329050,-764,8358,-364,0,0,0,0,0
1766,1768831329500,-763,8334,-364,0,0,0,0,0
1767,1768831329983,-764,8360,-370,0,0,0,0,0
1768,1768831330232,-760,8359,-365,0,0,0,0,0
1769,1768831330717,-757,8359,-366,0,0,0,0,0
1770,1768831331215,-774,8369,-377,0,0,0,0,0
1771,1768831331416,-758,8352,-370,0,0,0,0,0
1772,1768831331815,-760,8364,-367,0,0,0,0,0
1773,1768831332434,-761,8358,-373,0,0,0,0,0
1774,1768831332550,-766,8355,-374,0,0,0,0,0
1775,1768831332966,-760,8361,-372,0,0,0,0,0
1776,1768831333217,-759,8358,-368,0,0,0,0,0
1777,1768831333268,-758,8365,-370,0,0,0,0,0
1778,1768831333548,-764,8362,-362,0,0,0,0,0
1779,1768831333949,-756,8360,-369,0,0,0,0,0
1780,1768831334348,-766,8343,-380,0,0,0,0,0
1781,1768831334497,-763,8360,-366,0,0,0,0,0
1782,1768831334714,-763,8354,-370,0,0,0,0,0
1783,1768831335066,-765,8354,-374,0,0,0,0,0
1784,1768831335266,-756,8354,-367,0,0,0,0,0
1785,1768831335567,-766,8358,-383,0,0,0,0,0
1786,1768831335831,-761,8358,-370,0,0,0,0,0
1787,1768831336083,-755,8358,-376,0,0,0,0,0
1788,1768831336366,-754,8353,-380,0,0,0,0,0
1789,1768831336616,-762,8361,-375,0,0,0,0,0
1790,1768831336983,-761,8356,-372,0,0,0,0,0
1791,1768831337300,-754,8369,-374,0,0,0,0,0
1792,1768831337717,-756,8363,-372,0,0,0,0,0
1793,1768831337984,-753,8345,-366,0,0,0,0,0
1794,1768831338266,-771,8348,-363,0,0,0,0,0
1795,1768831338433,-752,8360,-366,0,0,0,0,0
1796,1768831338650,-772,8342,-356,0,0,0,0,0
1797,1768831338983,-758,8356,-372,0,0,0,0,0
1798,1768831339216,-768,8352,-366,0,0,0,0,0
1799,1768831339516,-761,8364,-370,0,0,0,0,0
1800,1768831339782,-760,8363,-370,0,0,0,0,0
1801,1768831340031,-756,8375,-374,0,0,0,0,0
1802,1768831340349,-765,8344,-362,0,0,0,0,0
1803,1768831340566,-767,8352,-382,0,0,0,0,0
1804,1768831340850,-760,8358,-374,0,0,0,0,0
1805,1768831341116,-763,8362,-367,0,0,0,0,0
1806,1768831341382,-763,8350,-371,0,0,0,0,0
1807,1768831341800,-758,8353,-350,0,0,0,0,0
1808,1768831342015,-755,8374,-358,0,0,0,0,0
1809,1768831342350,-758,8352,-346,0,0,0,0,0
1810,1768831342566,-757,8368,-373,0,0,0,0,0
1811,1768831342847,-763,8357,-362,0,0,0,0,0
1812,1768831343097,-763,8360,-377,0,0,0,0,0
1813,1768831343165,-762,8343,-351,0,0,0,0,0
1814,1768831343465,-758,8372,-364,0,0,0,0,0
1815,1768831343702,-770,8387,-328,0,0,0,0,0
1816,1768831343917,-744,8342,-330,0,0,0,0,0
1817,1768831344215,-781,8332,-348,0,0,0,0,0
1818,1768831344465,-757,8366,-407,0,0,0,0,0
1819,1768831345015,-766,8350,-394,0,0,0,0,0
1820,1768831345233,-759,8366,-370,0,0,0,0,0
1821,1768831345716,-755,8358,-360,0,0,0,0,0
1822,1768831346014,-753,8356,-352,0,0,0,0,0
1823,1768831346483,-763,8384,-374,0,0,0,0,0
1824,1768831346980,-754,8343,-377,0,0,0,0,0
1825,1768831347250,-746,8366,-390,0,0,0,0,0
1826,1768831347533,-764,8358,-390,0,0,0,0,0
1827,1768831347717,-743,8365,-377,0,0,0,0,0
1828,1768831348216,-747,8367,-384,0,0,0,0,0
1829,1768831348700,-768,8386,-400,0,0,0,0,0
1830,1768831348983,-758,8378,-410,0,0,0,0,0
1831,1768831349217,-765,8353,-366,0,0,0,0,0
1832,1768831349483,-764,8355,-393,0,0,0,0,0
1833,1768831349667,-767,8370,-370,0,0,0,0,0
1834,1768831350083,-770,8356,-360,0,0,0,0,0
1835,1768831350516,-765,8368,-368,0,0,0,0,0
1836,1768831350964,-761,8358,-365,0,0,0,0,0
1837,1768831351350,-759,8350,-371,0,0,0,0,0
1838,1768831351766,-760,8359,-367,0,0,0,0,0
1839,1768831352067,-761,8362,-370,0,0,0,0,0
1840,1768831352567,-760,8362,-372,0,0,0,0,0
1841,1768831352749,-766,8360,-364,0,0,0,0,0
1842,1768831353032,-760,8353,-370,0,0,0,0,0
1843,1768831353300,-760,8358,-372,0,0,0,0,0
1844,1768831353800,-762,8364,-368,0,0,0,0,0
1845,1768831353998,-752,8367,-376,0,0,0,0,0
1846,1768831354414,-759,8358,-367,0,0,0,0,0
1847,1768831354566,-758,8355,-382,0,0,0,0,0
1848,1768831355066,-756,8369,-379,0,0,0,0,0
1849,1768831355233,-752,8365,-379,0,0,0,0,0
1850,1768831355597,-760,8358,-376,0,0,0,0,0
1851,1768831355831,-758,8365,-376,0,0,0,0,0
1852,1768831356282,-763,8363,-372,0,0,0,0,0
1853,1768831356731,-758,8348,-372,0,0,0,0,0
1854,1768831356798,-763,8352,-365,0,0,0,0,0
1855,1768831357047,-760,8362,-366,0,0,0,0,0
1856,1768831357233,-764,8357,-375,0,0,0,0,0
1857,1768831357500,-754,8355,-374,0,0,0,0,0
1858,1768831357666,-758,8363,-368,0,0,0,0,0
1859,1768831358016,-762,8347,-370,0,0,0,0,0
1860,1768831358216,-765,8356,-374,0,0,0,0,0
1861,1768831358384,-764,8340,-366,0,0,0,0,0
1862,1768831358733,-757,8372,-375,0,0,0,0,0
1863,1768831358799,-765,8361,-368,0,0,0,0,0
1864,1768831359249,-759,8364,-367,0,0,0,0,0
1865,1768831359500,-765,8344,-375,0,0,0,0,0
1866,1768831359666,-762,8363,-366,0,0,0,0,0
1867,1768831359950,-763,8348,-378,0,0,0,0,0
1868,1768831360134,-759,8348,-367,0,0,0,0,0
1869,1768831360566,-758,8355,-376,0,0,0,0,0
1870,1768831361050,-758,8356,-363,0,0,0,0,0
1871,1768831361316,-760,8356,-374,0,0,0,0,0
1872,1768831361830,-754,8352,-369,0,0,0,0,0
1873,1768831362013,-765,8358,-367,0,0,0,0,0
1874,1768831362316,-756,8361,-377,0,0,0,0,0
1875,1768831362515,-755,8359,-370,0,0,0,0,0
1876,1768831362731,-764,8361,-373,0,0,0,0,0
1877,1768831363065,-760,8353,-374,0,0,0,0,0
1878,1768831363250,-764,8351,-377,0,0,0,0,0
1879,1768831363767,-758,8366,-379,0,0,0,0,0
1880,1768831364083,-752,8360,-372,0,0,0,0,0
1881,1768831364347,-753,8356,-370,0,0,0,0,0
1882,1768831364499,-752,8361,-376,0,0,0,0,0
1883,1768831365033,-762,8358,-377,0,0,0,0,0
1884,1768831365435,-760,8362,-370,0,0,0,0,0
1885,1768831365764,-761,8357,-365,0,0,0,0,0
1886,1768831366097,-763,8366,-368,0,0,0,0,0
1887,1768831366330,-755,8348,-381,0,0,0,0,0
1888,1768831366548,-756,8362,-377,0,0,0,0,0
1889,1768831366900,-764,8344,-371,0,0,0,0,0
1890,1768831367332,-762,8368,-373,0,0,0,0,0
1891,1768831367765,-764,8350,-374,0,0,0,0,0
1892,1768831368130,-762,8361,-370,0,0,0,0,0
1893,1768831368599,-756,8371,-369,0,0,0,0,0
1894,1768831368834,-755,8370,-372,0,0,0,0,0
1895,1768831369317,-757,8352,-375,0,0,0,0,0
1896,1768831369616,-761,8356,-371,0,0,0,0,0
1897,1768831369833,-755,8341,-370,0,0,0,0,0
1898,1768831370066,-757,8350,-370,0,0,0,0,0
1899,1768831370566,-760,8352,-371,0,0,0,0,0
1900,1768831371115,-767,8356,-374,0,0,0,0,0
1901,1768831371282,-768,8363,-371,0,0,0,0,0
1902,1768831371599,-758,8344,-363,0,0,0,0,0
1903,1768831371833,-754,8365,-361,0,0,0,0,0
1904,1768831371999,-764,8342,-379,0,0,0,0,0
1905,1768831372330,-760,8380,-351,0,0,0,0,0
1906,1768831372614,-764,8354,-359,0,0,0,0,0
1907,1768831373067,-756,8345,-364,0,0,0,0,0
1908,1768831373383,-761,8353,-362,0,0,0,0,0
1909,1768831373666,-763,8364,-378,0,0,0,0,0
1910,1768831373897,-761,8360,-374,0,0,0,0,0
1911,1768831374349,-757,8347,-369,0,0,0,0,0
1912,1768831374382,-762,8362,-367,0,0,0,0,0
1913,1768831374616,-776,8352,-370,0,0,0,0,0
1914,1768831374899,-760,8358,-373,0,0,0,0,0
1915,1768831375149,-759,8351,-365,0,0,0,0,0
1916,1768831375416,-706,8368,-371,0,0,0,0,0
1917,1768831375699,-743,8366,-389,0,0,0,0,0
1918,1768831376427,-759,8316,-296,0,0,0,0,0
1919,1768831376447,-680,8417,-235,0,0,0,0,0
1920,1768831376700,-841,8188,-298,0,0,0,0,0
1921,1768831376999,-783,8281,-309,0,0,0,0,0
1922,1768831377232,-822,8306,-340,0,0,0,0,0
1923,1768831377815,-794,8351,-310,0,0,0,0,0
1924,1768831378064,-732,8349,-394,0,0,0,0,0
1925,1768831378382,-776,8356,-389,0,0,0,0,0
1926,1768831378617,-729,8367,-375,0,0,0,0,0
1927,1768831378932,-666,8375,-338,0,0,0,0,0
1928,1768831379316,-788,8374,-526,0,0,0,0,0
1929,1768831379849,-784,8361,-360,0,0,0,0,0
1930,1768831380017,-758,8348,-352,0,0,0,0,0
1931,1768831380465,-730,8352,-354,0,0,0,0,0
1932,1768831380716,-746,8372,-381,0,0,0,0,0
1933,1768831381050,-760,8345,-341,0,0,0,0,0
1934,1768831381266,-760,8346,-357,0,0,0,0,0
1935,1768831381798,-751,8360,-350,0,0,0,0,0
1936,1768831382032,-746,8338,-376,0,0,0,0,0
1937,1768831382333,-740,8346,-310,0,0,0,0,0
1938,1768831382565,-689,8404,-377,0,0,0,0,0
1939,1768831382849,-792,8302,-379,0,0,0,0,0
1940,1768831383133,-773,8360,-450,0,0,0,0,0
1941,1768831383366,-770,8322,-377,0,0,0,0,0
1942,1768831383483,-828,8295,-445,0,0,0,0,0
1943,1768831383780,-718,8355,-314,0,0,0,0,0
1944,1768831384281,-732,8328,-344,0,0,0,0,0
1945,1768831507613,-756,8345,-398,0,0,0,0,0
1946,1768831507698,-746,8348,-372,0,0,0,0,0
1947,1768831507913,-756,8344,-399,0,0,0,0,0
1948,1768831508048,-759,8375,-393,0,0,0,0,0
1949,1768831508215,-744,8377,-393,0,0,0,0,0
1950,1768831508382,-754,8355,-384,0,0,0,0,0
1951,1768831508531,-764,8360,-383,0,0,0,0,0
1952,1768831508748,-752,8338,-400,0,0,0,0,0
1953,1768831508815,-745,8353,-368,0,0,0,0,0
1954,1768831508897,-780,8338,-359,0,0,0,0,0
1955,1768831509230,-755,8365,-378,0,0,0,0,0
1956,1768831509414,-756,8362,-376,0,0,0,0,0
1957,1768831509795,-764,8351,-376,0,0,0,0,0
1958,1768831509996,-759,8347,-378,0,0,0,0,0
1959,1768831510181,-754,8343,-386,0,0,0,0,0
1960,1768831510621,-757,8358,-381,0,0,0,0,0
1961,1768831511047,-756,8355,-375,0,0,0,0,0
1962,1768831511247,-756,8357,-383,0,0,0,0,0
1963,1768831511479,-754,8347,-366,0,0,0,0,0
1964,1768831511680,-754,8354,-368,0,0,0,0,0
1965,1768831511931,-746,8359,-375,0,0,0,0,0
1966,1768831512516,-756,8351,-379,0,0,0,0,0
1967,1768831512831,-759,8355,-390,0,0,0,0,0
1968,1768831513015,-752,8346,-390,0,0,0,0,0
1969,1768831513264,-750,8353,-386,0,0,0,0,0
1970,1768831513765,-743,8353,-376,0,0,0,0,0
1971,1768831514281,-748,8361,-358,0,0,0,0,0
1972,1768831514514,-762,8349,-369,0,0,0,0,0
1973,1768831514997,-770,8321,-400,0,0,0,0,0
1974,1768831515497,-755,8364,-384,0,0,0,0,0
1975,1768831515664,-763,8370,-374,0,0,0,0,0
1976,1768831515946,-757,8328,-370,0,0,0,0,0
1977,1768831516212,-744,8311,-399,0,0,0,0,0
1978,1768831516715,-757,8384,-385,0,0,0,0,0
1979,1768831517147,-759,8373,-373,0,0,0,0,0
1980,1768831517464,-761,8360,-373,0,0,0,0,0
1981,1768831517948,-752,8354,-383,0,0,0,0,0
1982,1768831518247,-760,8342,-384,0,0,0,0,0
1983,1768831518664,-758,8342,-377,0,0,0,0,0
1984,1768831519164,-755,8352,-362,0,0,0,0,0
1985,1768831519380,-755,8351,-380,0,0,0,0,0
1986,1768831519748,-760,8354,-373,0,0,0,0,0
1987,1768831519997,-746,8348,-367,0,0,0,0,0
1988,1768831520164,-742,8353,-366,0,0,0,0,0
1989,1768831520446,-767,8354,-374,0,0,0,0,0
1990,1768831520514,-743,8346,-379,0,0,0,0,0
1991,1768831520746,-751,8352,-404,0,0,0,0,0
1992,1768831521048,-748,8361,-418,0,0,0,0,0
1993,1768831521412,-758,8342,-387,0,0,0,0,0
1994,1768831521763,-764,8338,-343,0,0,0,0,0
1995,1768831522047,-758,8364,-361,0,0,0,0,0
1996,1768831522314,-773,8344,-398,0,0,0,0,0
1997,1768831522515,-753,8355,-362,0,0,0,0,0
1998,1768831522863,-762,8347,-375,0,0,0,0,0
1999,1768831522998,-751,8368,-377,0,0,0,0,0
2000,1768831523232,-748,8321,-366,0,0,0,0,0
2001,1768831523565,-756,8353,-372,0,0,0,0,0
2002,1768831523813,-749,8344,-389,0,0,0,0,0
2003,1768831524079,-752,8354,-396,0,0,0,0,0
2004,1768831524379,-769,8337,-370,0,0,0,0,0
2005,1768831524661,-755,8360,-371,0,0,0,0,0
2006,1768831524930,-757,8340,-368,0,0,0,0,0
2007,1768831525094,-752,8339,-377,0,0,0,0,0
2008,1768831525263,-768,8365,-376,0,0,0,0,0
2009,1768831525430,-740,8342,-365,0,0,0,0,0
2010,1768831525664,-752,8340,-373,0,0,0,0,0
2011,1768831526131,-764,8364,-373,0,0,0,0,0
2012,1768831526431,-748,8345,-372,0,0,0,0,0
2013,1768831526648,-773,8347,-376,0,0,0,0,0
2014,1768831526881,-767,8339,-371,0,0,0,0,0
2015,1768831527061,-744,8376,-364,0,0,0,0,0
2016,1768831527395,-752,8335,-366,0,0,0,0,0
2017,1768831527848,-780,8314,-394,0,0,0,0,0
2018,1768831527913,-748,8336,-378,0,0,0,0,0
2019,1768831528131,-764,8339,-374,0,0,0,0,0
2020,1768831528331,-772,8332,-373,0,0,0,0,0
2021,1768831528714,-760,8362,-380,0,0,0,0,0
2022,1768831529163,-764,8362,-366,0,0,0,0,0
2023,1768831529431,-755,8338,-385,0,0,0,0,0
2024,1768831529580,-765,8345,-377,0,0,0,0,0
2025,1768831529964,-755,8354,-371,0,0,0,0,0
2026,1768831530431,-747,8323,-393,0,0,0,0,0
2027,1768831530714,-746,8331,-350,0,0,0,0,0
2028,1768831531229,-745,8354,-371,0,0,0,0,0
2029,1768831531715,-764,8349,-368,0,0,0,0,0
2030,1768831531965,-762,8355,-390,0,0,0,0,0
2031,1768831532657,-765,8349,-371,0,0,0,0,0
2032,1768831532657,-770,8362,-376,0,0,0,0,0
2033,1768831532998,-748,8333,-409,0,0,0,0,0
2034,1768831533247,-766,8352,-367,0,0,0,0,0
2035,1768831533747,-752,8363,-372,0,0,0,0,0
2036,1768831533930,-751,8355,-381,0,0,0,0,0
2037,1768831534280,-754,8369,-382,0,0,0,0,0
2038,1768831534497,-747,8356,-372,0,0,0,0,0
2039,1768831534681,-757,8362,-372,0,0,0,0,0
2040,1768831535198,-750,8349,-374,0,0,0,0,0
2041,1768831535596,-764,8344,-363,0,0,0,0,0
2042,1768831536030,-754,8352,-372,0,0,0,0,0
2043,1768831536445,-760,8339,-377,0,0,0,0,0
2044,1768831536830,-752,8344,-372,0,0,0,0,0
2045,1768831537031,-754,8322,-359,0,0,0,0,0
2046,1768831537264,-778,8333,-372,0,0,0,0,0
2047,1768831537713,-765,8340,-383,0,0,0,0,0
2048,1768831538061,-760,8340,-394,0,0,0,0,0
2049,1768831538228,-748,8324,-374,0,0,0,0,0
2050,1768831538480,-751,8396,-361,0,0,0,0,0
2051,1768831538865,-761,8320,-365,0,0,0,0,0
2052,1768831539330,-785,8335,-399,0,0,0,0,0
2053,1768831539498,-810,8323,-366,0,0,0,0,0
2054,1768831539745,-769,8330,-392,0,0,0,0,0
2055,1768831540082,-771,8375,-375,0,0,0,0,0
2056,1768831540248,-745,8376,-372,0,0,0,0,0
2057,1768831540581,-750,8311,-404,0,0,0,0,0
2058,1768831540747,-755,8319,-364,0,0,0,0,0
2059,1768831541030,-744,8359,-376,0,0,0,0,0
2060,1768831541131,-749,8348,-372,0,0,0,0,0
2061,1768831541364,-774,8347,-366,0,0,0,0,0
2062,1768831541479,-732,8320,-357,0,0,0,0,0
2063,1768831541797,-779,8379,-385,0,0,0,0,0
2064,1768831541979,-735,8330,-372,0,0,0,0,0
2065,1768831542329,-776,8368,-391,0,0,0,0,0
2066,1768831542531,-763,8341,-409,0,0,0,0,0
2067,1768831542698,-744,8363,-366,0,0,0,0,0
2068,1768831543031,-761,8330,-365,0,0,0,0,0
2069,1768831543080,-755,8334,-364,0,0,0,0,0
2070,1768831543315,-756,8350,-378,0,0,0,0,0
2071,1768831543660,-746,8346,-378,0,0,0,0,0
2072,1768831543764,-758,8344,-368,0,0,0,0,0
2073,1768831543964,-753,8359,-380,0,0,0,0,0
2074,1768831544347,-747,8352,-402,0,0,0,0,0
2075,1768831544615,-750,8346,-395,0,0,0,0,0
2076,1768831544748,-747,8352,-341,0,0,0,0,0
2077,1768831545031,-762,8347,-362,0,0,0,0,0
2078,1768831545198,-778,8360,-376,0,0,0,0,0
2079,1768831545563,-751,8353,-362,0,0,0,0,0
2080,1768831545798,-758,8347,-354,0,0,0,0,0
2081,1768831545965,-761,8367,-374,0,0,0,0,0
2082,1768831546315,-752,8348,-341,0,0,0,0,0
2083,1768831546613,-749,8358,-351,0,0,0,0,0
2084,1768831546746,-758,8354,-383,0,0,0,0,0
2085,1768831546998,-748,8341,-386,0,0,0,0,0
2086,1768831547064,-758,8372,-367,0,0,0,0,0
2087,1768831547379,-768,8325,-387,0,0,0,0,0
2088,1768831547514,-764,8360,-364,0,0,0,0,0
2089,1768831547614,-754,8340,-374,0,0,0,0,0
2090,1768831548145,-760,8348,-370,0,0,0,0,0
2091,1768831548296,-752,8343,-363,0,0,0,0,0
2092,1768831548565,-754,8347,-376,0,0,0,0,0
2093,1768831548781,-766,8348,-382,0,0,0,0,0
2094,1768831548947,-760,8334,-371,0,0,0,0,0
2095,1768831549080,-750,8340,-364,0,0,0,0,0
2096,1768831549265,-759,8334,-386,0,0,0,0,0
2097,1768831549413,-757,8372,-394,0,0,0,0,0
2098,1768831549598,-760,8342,-382,0,0,0,0,0
2099,1768831549847,-775,8348,-374,0,0,0,0,0
2100,1768831550014,-745,8364,-388,0,0,0,0,0
2101,1768831550198,-746,8350,-398,0,0,0,0,0
2102,1768831550365,-768,8348,-375,0,0,0,0,0
2103,1768831550531,-751,8355,-358,0,0,0,0,0
2104,1768831550596,-751,8322,-370,0,0,0,0,0
2105,1768831550764,-753,8393,-392,0,0,0,0,0
2106,1768831550947,-770,8323,-394,0,0,0,0,0
2107,1768831551097,-754,8314,-402,0,0,0,0,0
2108,1768831551264,-743,8375,-382,0,0,0,0,0
2109,1768831551330,-759,8256,-343,0,0,0,0,0
2110,1768831551513,-710,8420,-392,0,0,0,0,0
2111,1768831551665,-764,8338,-403,0,0,0,0,0
2112,1768831551847,-792,8397,-397,0,0,0,0,0
2113,1768831552013,-716,8404,-400,0,0,0,0,0
2114,1768831552147,-756,8380,-366,0,0,0,0,0
2115,1768831552329,-779,8307,-376,0,0,0,0,0
2116,1768831552497,-754,8370,-363,0,0,0,0,0
2117,1768831552663,-744,8363,-369,0,0,0,0,0
2118,1768831552828,-773,8338,-387,0,0,0,0,0
2119,1768831553078,-738,8322,-386,0,0,0,0,0
2120,1768831553245,-752,8365,-373,0,0,0,0,0
2121,1768831553412,-754,8328,-378,0,0,0,0,0
2122,1768831553563,-782,8372,-360,0,0,0,0,0
2123,1768831553731,-756,8329,-362,0,0,0,0,0
2124,1768831553813,-770,8350,-372,0,0,0,0,0
2125,1768831553980,-775,8348,-350,0,0,0,0,0
2126,1768831554148,-741,8356,-374,0,0,0,0,0
2127,1768831554196,-748,8362,-382,0,0,0,0,0
2128,1768831554362,-778,8326,-386,0,0,0,0,0
2129,1768831554719,-750,8352,-382,0,0,0,0,0
2130,1768831554719,-774,8351,-373,0,0,0,0,0
2131,1768831554779,-741,8347,-366,0,0,0,0,0
2132,1768831554948,-742,8337,-392,0,0,0,0,0
2133,1768831555112,-768,8348,-376,0,0,0,0,0
2134,1768831555514,-764,8348,-381,0,0,0,0,0
2135,1768831555729,-756,8346,-388,0,0,0,0,0
2136,1768831556012,-762,8354,-373,0,0,0,0,0
2137,1768831556096,-753,8351,-386,0,0,0,0,0
2138,1768831556264,-760,8337,-375,0,0,0,0,0
2139,1768831556430,-759,8340,-379,0,0,0,0,0
2140,1768831556580,-752,8349,-391,0,0,0,0,0
2141,1768831556748,-766,8328,-404,0,0,0,0,0
2142,1768831556997,-756,8350,-368,0,0,0,0,0
2143,1768831557163,-761,8355,-367,0,0,0,0,0
2144,1768831557314,-754,8351,-369,0,0,0,0,0
2145,1768831557497,-757,8353,-369,0,0,0,0,0
2146,1768831557664,-759,8338,-381,0,0,0,0,0
2147,1768831557762,-738,8360,-385,0,0,0,0,0
2148,1768831557946,-770,8340,-401,0,0,0,0,0
2149,1768831558096,-752,8352,-373,0,0,0,0,0
2150,1768831558280,-758,8372,-370,0,0,0,0,0
2151,1768831558446,-774,8313,-374,0,0,0,0,0
2152,1768831558664,-760,8348,-368,0,0,0,0,0
2153,1768831558846,-755,8356,-359,0,0,0,0,0
2154,1768831559013,-749,8354,-364,0,0,0,0,0
2155,1768831559181,-752,8353,-361,0,0,0,0,0
2156,1768831559414,-776,8314,-373,0,0,0,0,0
2157,1768831559581,-750,8371,-379,0,0,0,0,0
2158,1768831559747,-744,8317,-375,0,0,0,0,0
2159,1768831559914,-768,8369,-360,0,0,0,0,0
2160,1768831560079,-758,8342,-361,0,0,0,0,0
2161,1768831560145,-769,8349,-402,0,0,0,0,0
2162,1768831560331,-745,8358,-356,0,0,0,0,0
2163,1768831560479,-742,8345,-348,0,0,0,0,0
2164,1768831560528,-784,8356,-355,0,0,0,0,0
2165,1768831560713,-760,8350,-378,0,0,0,0,0
2166,1768831560863,-728,8354,-364,0,0,0,0,0
2167,1768831561113,-763,8348,-363,0,0,0,0,0
2168,1768831561280,-741,8349,-363,0,0,0,0,0
2169,1768831561447,-760,8358,-368,0,0,0,0,0
2170,1768831561614,-768,8338,-379,0,0,0,0,0
2171,1768831561863,-754,8378,-366,0,0,0,0,0
2172,1768831562030,-750,8337,-368,0,0,0,0,0
2173,1768831562197,-765,8356,-377,0,0,0,0,0
2174,1768831562363,-760,8357,-400,0,0,0,0,0
2175,1768831562513,-751,8322,-393,0,0,0,0,0
2176,1768831562664,-757,8399,-398,0,0,0,0,0
2177,1768831562830,-748,8268,-393,0,0,0,0,0
2178,1768831562996,-781,8420,-380,0,0,0,0,0
2179,1768831563180,-742,8346,-388,0,0,0,0,0
2180,1768831563347,-759,8312,-399,0,0,0,0,0
2181,1768831563413,-741,8355,-328,0,0,0,0,0
2182,1768831563580,-748,8341,-356,0,0,0,0,0
2183,1768831563731,-779,8381,-385,0,0,0,0,0
2184,1768831563897,-780,8333,-390,0,0,0,0,0
2185,1768831564063,-713,8370,-386,0,0,0,0,0
2186,1768831564330,-784,8346,-395,0,0,0,0,0
2187,1768831564498,-731,8421,-433,0,0,0,0,0
2188,1768831564664,-768,8266,-436,0,0,0,0,0
2189,1768831564829,-779,8386,-420,0,0,0,0,0
2190,1768831565096,-756,8344,-379,0,0,0,0,0
2191,1768831565246,-751,8382,-376,0,0,0,0,0
2192,1768831565414,-742,8322,-381,0,0,0,0,0
2193,1768831565627,-757,8371,-383,0,0,0,0,0
2194,1768831565748,-772,8328,-416,0,0,0,0,0
2195,1768831565897,-772,8346,-364,0,0,0,0,0
2196,1768831566047,-759,8368,-376,0,0,0,0,0
2197,1768831566230,-747,8339,-389,0,0,0,0,0
2198,1768831566397,-769,8365,-388,0,0,0,0,0
2199,1768831566563,-756,8363,-373,0,0,0,0,0
2200,1768831566647,-759,8361,-379,0,0,0,0,0
2201,1768831566813,-744,8348,-376,0,0,0,0,0
2202,1768831566981,-750,8345,-382,0,0,0,0,0
2203,1768831567147,-763,8348,-388,0,0,0,0,0
2204,1768831567330,-758,8346,-383,0,0,0,0,0
2205,1768831567396,-770,8366,-343,0,0,0,0,0
2206,1768831567563,-736,8344,-358,0,0,0,0,0
2207,1768831567730,-760,8362,-374,0,0,0,0,0
2208,1768831567795,-776,8336,-367,0,0,0,0,0
2209,1768831567961,-767,8362,-366,0,0,0,0,0
2210,1768831568131,-734,8332,-394,0,0,0,0,0
2211,1768831568196,-750,8331,-383,0,0,0,0,0
2212,1768831568364,-759,8362,-400,0,0,0,0,0
2213,1768831568547,-778,8341,-390,0,0,0,0,0
2214,1768831568713,-745,8336,-363,0,0,0,0,0
2215,1768831568880,-761,8386,-354,0,0,0,0,0
2216,1768831569131,-763,8368,-367,0,0,0,0,0
2217,1768831569297,-756,8364,-339,0,0,0,0,0
2218,1768831569481,-763,8312,-364,0,0,0,0,0
2219,1768831569647,-776,8386,-392,0,0,0,0,0
2220,1768831569881,-750,8346,-387,0,0,0,0,0
2221,1768831569931,-760,8366,-386,0,0,0,0,0
2222,1768831570113,-754,8345,-377,0,0,0,0,0
2223,1768831570263,-765,8326,-390,0,0,0,0,0
2224,1768831570428,-764,8359,-393,0,0,0,0,0
2225,1768831570664,-743,8372,-381,0,0,0,0,0
2226,1768831570848,-771,8325,-369,0,0,0,0,0
2227,1768831571013,-742,8384,-363,0,0,0,0,0
2228,1768831571180,-755,8337,-383,0,0,0,0,0
2229,1768831571330,-775,8338,-372,0,0,0,0,0
2230,1768831571397,-761,8374,-397,0,0,0,0,0
2231,1768831571580,-749,8364,-388,0,0,0,0,0
2232,1768831571747,-761,8307,-402,0,0,0,0,0
2233,1768831571898,-768,8382,-374,0,0,0,0,0
2234,1768831572063,-742,8334,-348,0,0,0,0,0
2235,1768831572362,-769,8344,-385,0,0,0,0,0
2236,1768831572514,-766,8359,-362,0,0,0,0,0
2237,1768831572681,-764,8322,-377,0,0,0,0,0
2238,1768831572846,-767,8363,-373,0,0,0,0,0
2239,1768831573012,-758,8351,-368,0,0,0,0,0
2240,1768831573095,-765,8360,-385,0,0,0,0,0
2241,1768831573263,-754,8340,-370,0,0,0,0,0
2242,1768831573431,-750,8351,-367,0,0,0,0,0
2243,1768831573596,-757,8344,-356,0,0,0,0,0
2244,1768831573762,-760,8346,-370,0,0,0,0,0
2245,1768831573848,-765,8351,-369,0,0,0,0,0
2246,1768831574013,-751,8348,-363,0,0,0,0,0
2247,1768831574181,-764,8355,-370,0,0,0,0,0
2248,1768831574330,-748,8342,-376,0,0,0,0,0
2249,1768831574513,-747,8341,-378,0,0,0,0,0
2250,1768831574597,-771,8363,-389,0,0,0,0,0
2251,1768831574647,-758,8338,-379,0,0,0,0,0
2252,1768831574831,-738,8339,-370,0,0,0,0,0
2253,1768831574996,-756,8369,-353,0,0,0,0,0
2254,1768831575165,-778,8327,-390,0,0,0,0,0
2255,1768831575330,-758,8355,-388,0,0,0,0,0
2256,1768831575579,-760,8358,-363,0,0,0,0,0
2257,1768831575746,-753,8349,-376,0,0,0,0,0
2258,1768831575912,-758,8349,-363,0,0,0,0,0
2259,1768831576080,-767,8354,-382,0,0,0,0,0
2260,1768831576313,-756,8355,-362,0,0,0,0,0
2261,1768831576619,-748,8349,-389,0,0,0,0,0
2262,1768831576645,-754,8349,-361,0,0,0,0,0
2263,1768831576830,-764,8366,-394,0,0,0,0,0
2264,1768831576978,-752,8356,-344,0,0,0,0,0
2265,1768831577112,-749,8340,-368,0,0,0,0,0
2266,1768831577278,-769,8345,-376,0,0,0,0,0
2267,1768831577430,-755,8357,-379,0,0,0,0,0
2268,1768831577595,-752,8340,-376,0,0,0,0,0
2269,1768831577782,-771,8358,-351,0,0,0,0,0
2270,1768831578012,-750,8348,-356,0,0,0,0,0
2271,1768831578163,-762,8353,-359,0,0,0,0,0
2272,1768831578330,-762,8346,-383,0,0,0,0,0
2273,1768831578496,-744,8339,-388,0,0,0,0,0
2274,1768831578682,-762,8332,-392,0,0,0,0,0
2275,1768831578731,-753,8328,-370,0,0,0,0,0
2276,1768831578880,-760,8368,-382,0,0,0,0,0
2277,1768831579063,-762,8332,-379,0,0,0,0,0
2278,1768831579230,-781,8376,-357,0,0,0,0,0
2279,1768831579397,-732,8325,-373,0,0,0,0,0
2280,1768831579530,-762,8320,-372,0,0,0,0,0
2281,1768831579678,-762,8376,-358,0,0,0,0,0
2282,1768831579863,-753,8330,-376,0,0,0,0,0
2283,1768831580033,-763,8343,-372,0,0,0,0,0
2284,1768831580180,-775,8355,-366,0,0,0,0,0
2285,1768831580445,-743,8378,-370,0,0,0,0,0
2286,1768831580596,-772,8287,-384,0,0,0,0,0
2287,1768831580779,-778,8369,-363,0,0,0,0,0
2288,1768831580930,-749,8363,-378,0,0,0,0,0
2289,1768831581097,-741,8334,-363,0,0,0,0,0
2290,1768831581163,-807,8322,-372,0,0,0,0,0
2291,1768831581347,-784,8402,-355,0,0,0,0,0
2292,1768831581497,-704,8322,-346,0,0,0,0,0
2293,1768831581663,-784,8361,-390,0,0,0,0,0
2294,1768831581829,-786,8375,-385,0,0,0,0,0
2295,1768831581896,-733,8332,-380,0,0,0,0,0
2296,1768831581963,-772,8383,-360,0,0,0,0,0
2297,1768831582131,-763,8328,-382,0,0,0,0,0
2298,1768831582297,-748,8338,-387,0,0,0,0,0
2299,1768831582463,-764,8356,-368,0,0,0,0,0
2300,1768831582629,-746,8347,-374,0,0,0,0,0
2301,1768831583430,-759,8358,-357,0,0,0,0,0
2302,1768831583663,-759,8331,-362,0,0,0,0,0
2303,1768831583781,-758,8338,-362,0,0,0,0,0
2304,1768831583964,-759,8347,-378,0,0,0,0,0
2305,1768831584113,-770,8332,-371,0,0,0,0,0
2306,1768831584280,-767,8358,-365,0,0,0,0,0
2307,1768831584464,-750,8354,-371,0,0,0,0,0
2308,1768831584579,-760,8329,-365,0,0,0,0,0
2309,1768831584647,-756,8356,-356,0,0,0,0,0
2310,1768831584978,-751,8353,-370,0,0,0,0,0
2311,1768831585464,-770,8362,-374,0,0,0,0,0
2312,1768831585680,-743,8376,-377,0,0,0,0,0
2313,1768831586013,-744,8364,-378,0,0,0,0,0
2314,1768831586364,-767,8351,-359,0,0,0,0,0
2315,1768831586863,-747,8336,-401,0,0,0,0,0
2316,1768831587180,-768,8345,-410,0,0,0,0,0
2317,1768831587262,-764,8348,-336,0,0,0,0,0
2318,1768831587382,-748,8365,-313,0,0,0,0,0
2319,1768831587664,-773,8337,-318,0,0,0,0,0
2320,1768831587713,-759,8346,-374,0,0,0,0,0
2321,1768831587846,-753,8350,-376,0,0,0,0,0
2322,1768831588302,-752,8337,-378,0,0,0,0,0
2323,1768831588302,-755,8323,-400,0,0,0,0,0
2324,1768831588478,-752,8346,-391,0,0,0,0,0
2325,1768831588747,-744,8341,-380,0,0,0,0,0
2326,1768831588998,-761,8358,-358,0,0,0,0,0
2327,1768831589244,-758,8360,-361,0,0,0,0,0
2328,1768831589547,-761,8326,-367,0,0,0,0,0
2329,1768831589712,-773,8328,-364,0,0,0,0,0
2330,1768831590164,-767,8346,-376,0,0,0,0,0
2331,1768831590630,-752,8354,-374,0,0,0,0,0
2332,1768831590914,-760,8345,-378,0,0,0,0,0
2333,1768831591147,-756,8353,-375,0,0,0,0,0
2334,1768831591281,-765,8346,-369,0,0,0,0,0
2335,1768831591496,-760,8345,-369,0,0,0,0,0
2336,1768831591763,-764,8344,-376,0,0,0,0,0
2337,1768831592013,-760,8348,-371,0,0,0,0,0
2338,1768831592263,-756,8352,-370,0,0,0,0,0
2339,1768831592496,-750,8339,-374,0,0,0,0,0
2340,1768831592730,-766,8362,-369,0,0,0,0,0
2341,1768831593163,-760,8336,-370,0,0,0,0,0
2342,1768831593413,-758,8345,-369,0,0,0,0,0
2343,1768831593647,-750,8344,-377,0,0,0,0,0
2344,1768831593812,-762,8345,-372,0,0,0,0,0
2345,1768831594114,-765,8350,-384,0,0,0,0,0
2346,1768831594313,-746,8349,-372,0,0,0,0,0
2347,1768831594464,-756,8350,-365,0,0,0,0,0
2348,1768831594781,-763,8350,-370,0,0,0,0,0
2349,1768831594914,-768,8336,-366,0,0,0,0,0
2350,1768831595213,-765,8342,-381,0,0,0,0,0
2351,1768831595263,-760,8363,-365,0,0,0,0,0
2352,1768831595546,-760,8336,-372,0,0,0,0,0
2353,1768831595746,-760,8356,-380,0,0,0,0,0
2354,1768831595995,-755,8343,-366,0,0,0,0,0
2355,1768831596213,-788,8323,-368,0,0,0,0,0
2356,1768831596313,-733,8333,-374,0,0,0,0,0
2357,1768831596696,-757,8391,-378,0,0,0,0,0
2358,1768831596863,-747,8373,-376,0,0,0,0,0
2359,1768831597130,-752,8364,-368,0,0,0,0,0
2360,1768831597430,-764,8340,-348,0,0,0,0,0
2361,1768831597578,-746,8306,-353,0,0,0,0,0
2362,1768831597795,-735,8348,-368,0,0,0,0,0
2363,1768831597947,-762,8372,-380,0,0,0,0,0
2364,1768831598230,-745,8356,-354,0,0,0,0,0
2365,1768831598381,-780,8347,-368,0,0,0,0,0
2366,1768831598664,-752,8329,-398,0,0,0,0,0
2367,1768831598762,-737,8353,-373,0,0,0,0,0
2368,1768831598896,-762,8340,-370,0,0,0,0,0
2369,1768831599304,-764,8345,-366,0,0,0,0,0
2370,1768831599531,-738,8352,-373,0,0,0,0,0
2371,1768831599713,-768,8336,-384,0,0,0,0,0
2372,1768831599831,-756,8384,-383,0,0,0,0,0
2373,1768831600130,-728,8369,-359,0,0,0,0,0
2374,1768831600463,-762,8316,-354,0,0,0,0,0
2375,1768831600580,-793,8347,-384,0,0,0,0,0
2376,1768831600680,-760,8328,-382,0,0,0,0,0
2377,1768831601147,-773,8346,-384,0,0,0,0,0
2378,1768831601264,-764,8353,-377,0,0,0,0,0
2379,1768831601445,-767,8339,-375,0,0,0,0,0
2380,1768831601663,-774,8348,-395,0,0,0,0,0
2381,1768831602013,-778,8318,-394,0,0,0,0,0
2382,1768831602281,-749,8336,-351,0,0,0,0,0
2383,1768831602530,-768,8364,-353,0,0,0,0,0
2384,1768831602862,-764,8386,-366,0,0,0,0,0
2385,1768831603147,-739,8316,-366,0,0,0,0,0
2386,1768831603363,-755,8313,-364,0,0,0,0,0
2387,1768831603698,-782,8386,-382,0,0,0,0,0
2388,1768831603913,-748,8309,-372,0,0,0,0,0
2389,1768831604063,-767,8349,-354,0,0,0,0,0
2390,1768831604246,-778,8332,-358,0,0,0,0,0
2391,1768831604496,-764,8348,-380,0,0,0,0,0
2392,1768831604746,-760,8350,-376,0,0,0,0,0
2393,1768831605079,-757,8326,-355,0,0,0,0,0
2394,1768831605330,-758,8357,-371,0,0,0,0,0
2395,1768831605562,-759,8346,-388,0,0,0,0,0
2396,1768831606047,-773,8338,-368,0,0,0,0,0
2397,1768831606394,-774,8348,-370,0,0,0,0,0
2398,1768831606846,-765,8328,-373,0,0,0,0,0
2399,1768831607329,-757,8390,-397,0,0,0,0,0
2400,1768831607647,-752,8354,-366,0,0,0,0,0
2401,1768831607863,-751,8332,-372,0,0,0,0,0
2402,1768831608129,-770,8334,-397,0,0,0,0,0
2403,1768831608230,-768,8348,-377,0,0,0,0,0
2404,1768831608595,-750,8342,-366,0,0,0,0,0
2405,1768831608697,-761,8336,-364,0,0,0,0,0
2406,1768831608897,-748,8336,-380,0,0,0,0,0
2407,1768831609163,-768,8347,-378,0,0,0,0,0
2408,1768831609429,-760,8350,-372,0,0,0,0,0
2409,1768831609711,-766,8337,-362,0,0,0,0,0
2410,1768831609896,-742,8346,-357,0,0,0,0,0
2411,1768831610297,-758,8352,-374,0,0,0,0,0
2412,1768831610730,-721,8356,-378,0,0,0,0,0
2413,1768831611080,-835,8326,-357,0,0,0,0,0
2414,1768831611314,-770,8346,-380,0,0,0,0,0
2415,1768831611561,-764,8336,-380,0,0,0,0,0
2416,1768831611846,-770,8348,-374,0,0,0,0,0
2417,1768831611997,-748,8348,-370,0,0,0,0,0
2418,1768831612331,-768,8353,-379,0,0,0,0,0
2419,1768831612461,-756,8352,-379,0,0,0,0,0
2420,1768831612698,-754,8350,-378,0,0,0,0,0
2421,1768831612963,-762,8339,-370,0,0,0,0,0
2422,1768831613179,-745,8346,-374,0,0,0,0,0
2423,1768831613496,-762,8351,-373,0,0,0,0,0
2424,1768831613645,-764,8351,-376,0,0,0,0,0
2425,1768831614030,-761,8346,-379,0,0,0,0,0
2426,1768831614112,-755,8343,-379,0,0,0,0,0
2427,1768831614428,-761,8357,-378,0,0,0,0,0
2428,1768831614680,-757,8339,-376,0,0,0,0,0
2429,1768831614897,-760,8336,-367,0,0,0,0,0
2430,1768831615196,-756,8347,-382,0,0,0,0,0
2431,1768831615447,-754,8341,-364,0,0,0,0,0
2432,1768831615796,-762,8346,-373,0,0,0,0,0
2433,1768831616277,-752,8337,-373,0,0,0,0,0
2434,1768831616545,-750,8347,-376,0,0,0,0,0
2435,1768831616662,-744,8354,-374,0,0,0,0,0
2436,1768831617063,-741,8340,-360,0,0,0,0,0
2437,1768831617180,-756,8348,-350,0,0,0,0,0
2438,1768831617427,-737,8347,-368,0,0,0,0,0
2439,1768831617663,-759,8333,-374,0,0,0,0,0
2440,1768831617994,-758,8329,-362,0,0,0,0,0
2441,1768831618212,-757,8331,-370,0,0,0,0,0
2442,1768831618447,-776,8350,-386,0,0,0,0,0
2443,1768831618712,-745,8338,-367,0,0,0,0,0
2444,1768831618946,-773,8338,-372,0,0,0,0,0
2445,1768831619227,-752,8343,-372,0,0,0,0,0
2446,1768831619495,-761,8356,-356,0,0,0,0,0
2447,1768831619562,-744,8348,-380,0,0,0,0,0
2448,1768831619980,-780,8364,-372,0,0,0,0,0
2449,1768831620029,-756,8351,-367,0,0,0,0,0
2450,1768831620295,-763,8349,-368,0,0,0,0,0
2451,1768831620496,-755,8342,-359,0,0,0,0,0
2452,1768831620812,-756,8354,-373,0,0,0,0,0
2453,1768831621311,-761,8365,-372,0,0,0,0,0
2454,1768831621664,-763,8341,-355,0,0,0,0,0
2455,1768831622128,-754,8342,-371,0,0,0,0,0
2456,1768831622313,-752,8352,-375,0,0,0,0,0
2457,1768831622594,-755,8325,-364,0,0,0,0,0
2458,1768831622844,-765,8354,-394,0,0,0,0,0
2459,1768831623095,-757,8335,-358,0,0,0,0,0
2460,1768831623444,-760,8309,-379,0,0,0,0,0
2461,1768831623812,-744,8365,-372,0,0,0,0,0
2462,1768831623912,-732,8368,-360,0,0,0,0,0
2463,1768831624128,-729,8365,-396,0,0,0,0,0
2464,1768831624378,-746,8389,-378,0,0,0,0,0
2465,1768831624512,-756,8352,-382,0,0,0,0,0
2466,1768831624745,-752,8324,-366,0,0,0,0,0
2467,1768831625129,-764,8341,-394,0,0,0,0,0
2468,1768831625613,-759,8344,-349,0,0,0,0,0
2469,1768831626097,-749,8334,-375,0,0,0,0,0
2470,1768831626262,-790,8333,-385,0,0,0,0,0
2471,1768831626463,-736,8372,-340,0,0,0,0,0
2472,1768831626762,-1022,8350,-391,0,0,0,0,0
2473,1768831626896,-730,8350,-371,0,0,0,0,0
2474,1768831627314,-778,8363,-350,0,0,0,0,0
2475,1768831627395,-756,8341,-344,0,0,0,0,0
2476,1768831627629,-805,8354,-398,0,0,0,0,0
2477,1768831627878,-728,8314,-362,0,0,0,0,0
2478,1768831628131,-758,8397,-492,0,0,0,0,0
2479,1768831628397,-731,8339,-378,0,0,0,0,0
2480,1768831628596,-819,8256,-367,0,0,0,0,0
2481,1768831628879,-690,8338,-308,0,0,0,0,0
2482,1768831628964,-816,8367,-388,0,0,0,0,0
2483,1768831629029,-725,8354,-379,0,0,0,0,0
2484,1768831629431,-782,8327,-382,0,0,0,0,0
2485,1768831629896,-782,8330,-367,0,0,0,0,0
2486,1768831630161,-750,8344,-360,0,0,0,0,0
2487,1768831630462,-763,8354,-367,0,0,0,0,0
2488,1768831630697,-780,8358,-394,0,0,0,0,0
2489,1768831630947,-748,8334,-381,0,0,0,0,0
2490,1768831631164,-758,8334,-362,0,0,0,0,0
2491,1768831631229,-744,8334,-356,0,0,0,0,0
2492,1768831631580,-746,8310,-378,0,0,0,0,0
2493,1768831631664,-756,8347,-400,0,0,0,0,0
2494,1768831632299,-744,8350,-362,0,0,0,0,0
2495,1768831632345,-763,8336,-359,0,0,0,0,0
2496,1768831632463,-766,8330,-366,0,0,0,0,0
2497,1768831632763,-730,8361,-346,0,0,0,0,0
2498,1768831632914,-797,8340,-376,0,0,0,0,0
2499,1768831633146,-779,8322,-367,0,0,0,0,0
2500,1768831633296,-730,8340,-359,0,0,0,0,0
2501,1768831633413,-780,8319,-359,0,0,0,0,0
2502,1768831633730,-705,8348,-374,0,0,0,0,0
2503,1768831633830,-784,8340,-422,0,0,0,0,0
2504,1768831634163,-739,8422,-325,0,0,0,0,0
2505,1768831634429,-738,8357,-377,0,0,0,0,0
2506,1768831634680,-756,8336,-352,0,0,0,0,0
2507,1768831635013,-784,8352,-384,0,0,0,0,0
2508,1768831635147,-768,8339,-383,0,0,0,0,0
2509,1768831635447,-787,8350,-370,0,0,0,0,0
2510,1768831635563,-739,8396,-388,0,0,0,0,0
2511,1768831635680,-763,8318,-376,0,0,0,0,0
2512,1768831635945,-775,8326,-359,0,0,0,0,0
2513,1768831636080,-769,8322,-370,0,0,0,0,0
2514,1768831636295,-761,8374,-374,0,0,0,0,0
2515,1768831636429,-757,8342,-363,0,0,0,0,0
2516,1768831636727,-734,8297,-388,0,0,0,0,0
2517,1768831636812,-773,8399,-400,0,0,0,0,0
2518,1768831636927,-765,8357,-348,0,0,0,0,0
2519,1768831637264,-729,8334,-372,0,0,0,0,0
2520,1768831637279,-756,8363,-377,0,0,0,0,0
2521,1768831637528,-767,8317,-353,0,0,0,0,0
2522,1768831637694,-784,8345,-365,0,0,0,0,0
2523,1768831637796,-761,8311,-347,0,0,0,0,0
2524,1768831638129,-725,8353,-350,0,0,0,0,0
2525,1768831638246,-749,8309,-402,0,0,0,0,0
2526,1768831638329,-746,8349,-391,0,0,0,0,0
2527,1768831638729,-740,8327,-377,0,0,0,0,0
2528,1768831638928,-758,8357,-370,0,0,0,0,0
2529,1768831639046,-774,8303,-380,0,0,0,0,0
2530,1768831639279,-747,8347,-350,0,0,0,0,0
2531,1768831639447,-767,8333,-388,0,0,0,0,0
2532,1768831639580,-798,8348,-400,0,0,0,0,0
2533,1768831639863,-743,8336,-378,0,0,0,0,0
2534,1768831639979,-779,8340,-377,0,0,0,0,0
2535,1768831640445,-811,8332,-354,0,0,0,0,0
2536,1768831640712,-717,8362,-363,0,0,0,0,0
2537,1768831640850,-758,8368,-380,0,0,0,0,0
2538,1768831641145,-736,8317,-347,0,0,0,0,0
2539,1768831641263,-775,8369,-358,0,0,0,0,0
2540,1768831641346,-766,8376,-369,0,0,0,0,0
2541,1768831641746,-768,8351,-350,0,0,0,0,0
2542,1768831641830,-763,8302,-325,0,0,0,0,0
2543,1768831642330,-788,8279,-401,0,0,0,0,0
2544,1768831642578,-716,8363,-375,0,0,0,0,0
2545,1768831642894,-796,8387,-386,0,0,0,0,0
2546,1768831642977,-768,8310,-393,0,0,0,0,0
2547,1768831643045,-725,8368,-378,0,0,0,0,0
2548,1768831643380,-783,8343,-380,0,0,0,0,0
2549,1768831643529,-737,8344,-355,0,0,0,0,0
2550,1768831643861,-773,8329,-328,0,0,0,0,0
2551,1768831643996,-762,8334,-379,0,0,0,0,0
2552,1768831644314,-772,8326,-368,0,0,0,0,0
2553,1768831644479,-761,8346,-389,0,0,0,0,0
2554,1768831644612,-767,8347,-384,0,0,0,0,0
2555,1768831644813,-766,8337,-354,0,0,0,0,0
2556,1768831645129,-752,8351,-370,0,0,0,0,0
2557,1768831645213,-768,8320,-380,0,0,0,0,0
2558,1768831645280,-761,8352,-400,0,0,0,0,0
2559,1768831645613,-758,8356,-388,0,0,0,0,0
2560,1768831645779,-753,8325,-371,0,0,0,0,0
2561,1768831646077,-753,8356,-373,0,0,0,0,0
2562,1768831646347,-773,8356,-373,0,0,0,0,0
2563,1768831646444,-758,8308,-390,0,0,0,0,0
2564,1768831646761,-755,8432,-380,0,0,0,0,0
2565,1768831646878,-740,8268,-355,0,0,0,0,0
2566,1768831647227,-755,8351,-372,0,0,0,0,0
2567,1768831647729,-778,8347,-370,0,0,0,0,0
2568,1768831647863,-790,8342,-351,0,0,0,0,0
2569,1768831647896,-753,8322,-368,0,0,0,0,0
2570,1768831648211,-745,8328,-366,0,0,0,0,0
2571,1768831648579,-786,8370,-358,0,0,0,0,0
2572,1768831648794,-730,8365,-366,0,0,0,0,0
2573,1768831649062,-752,8340,-374,0,0,0,0,0
2574,1768831649279,-736,8313,-342,0,0,0,0,0
2575,1768831649529,-757,8354,-365,0,0,0,0,0
2576,1768831649780,-756,8323,-372,0,0,0,0,0
2577,1768831649860,-756,8362,-362,0,0,0,0,0
2578,1768831650161,-768,8331,-345,0,0,0,0,0
2579,1768831650394,-760,8346,-347,0,0,0,0,0
2580,1768831650595,-776,8352,-371,0,0,0,0,0
2581,1768831650846,-739,8326,-367,0,0,0,0,0
2582,1768831651062,-762,8350,-376,0,0,0,0,0
2583,1768831651395,-765,8343,-374,0,0,0,0,0
2584,1768831651512,-770,8348,-378,0,0,0,0,0
2585,1768831651847,-762,8328,-360,0,0,0,0,0
2586,1768831652063,-774,8336,-398,0,0,0,0,0
2587,1768831652296,-736,8472,-366,0,0,0,0,0
2588,1768831652630,-751,8334,-378,0,0,0,0,0
2589,1768831652764,-768,8337,-365,0,0,0,0,0
2590,1768831653130,-764,8354,-368,0,0,0,0,0
2591,1768831653279,-760,8349,-364,0,0,0,0,0
2592,1768831653629,-756,8337,-367,0,0,0,0,0
2593,1768831653697,-758,8339,-370,0,0,0,0,0
2594,1768831654332,-787,8314,-366,0,0,0,0,0
2595,1768831654463,-756,8381,-388,0,0,0,0,0
2596,1768831654629,-780,8349,-374,0,0,0,0,0
2597,1768831654929,-744,8332,-347,0,0,0,0,0
2598,1768831655280,-757,8311,-353,0,0,0,0,0
2599,1768831655763,-763,8372,-367,0,0,0,0,0
2600,1768831656012,-720,8365,-394,0,0,0,0,0
2601,1768831656246,-781,8330,-368,0,0,0,0,0
2602,1768831656527,-745,8347,-358,0,0,0,0,0
2603,1768831656780,-798,8349,-376,0,0,0,0,0
2604,1768831657013,-769,8328,-390,0,0,0,0,0
2605,1768831657495,-767,8330,-356,0,0,0,0,0
2606,1768831657811,-785,8293,-356,0,0,0,0,0
2607,1768831658029,-748,8446,-383,0,0,0,0,0
2608,1768831658295,-738,8348,-381,0,0,0,0,0
2609,1768831658546,-798,8293,-367,0,0,0,0,0
2610,1768831658831,-762,8327,-372,0,0,0,0,0
2611,1768831659164,-767,8344,-384,0,0,0,0,0
2612,1768831659679,-767,8337,-361,0,0,0,0,0
2613,1768831659962,-763,8338,-375,0,0,0,0,0
2614,1768831660196,-756,8346,-358,0,0,0,0,0
2615,1768831660561,-767,8334,-374,0,0,0,0,0
2616,1768831660862,-771,8334,-367,0,0,0,0,0
2617,1768831661195,-753,8352,-369,0,0,0,0,0
2618,1768831661661,-808,8362,-386,0,0,0,0,0
2619,1768831661713,-738,8337,-316,0,0,0,0,0
2620,1768831661779,-750,8278,-340,0,0,0,0,0
2621,1768831662099,-801,8387,-407,0,0,0,0,0
2622,1768831662295,-736,8356,-352,0,0,0,0,0
2623,1768831662563,-782,8306,-380,0,0,0,0,0
2624,1768831662845,-760,8266,-380,0,0,0,0,0
2625,1768831663063,-749,8398,-378,0,0,0,0,0
2626,1768831663179,-769,8396,-371,0,0,0,0,0
2627,1768831663413,-750,8280,-390,0,0,0,0,0
2628,1768831663711,-730,8340,-370,0,0,0,0,0
2629,1768831664162,-769,8270,-381,0,0,0,0,0
2630,1768831664630,-771,8352,-351,0,0,0,0,0
2631,1768831664779,-762,8356,-380,0,0,0,0,0
2632,1768831665315,-728,8361,-366,0,0,0,0,0
2633,1768831665315,-768,8338,-395,0,0,0,0,0
2634,1768831665512,-742,8322,-380,0,0,0,0,0
2635,1768831665895,-728,8356,-363,0,0,0,0,0
2636,1768831666363,-756,8351,-367,0,0,0,0,0
2637,1768831666712,-752,8351,-358,0,0,0,0,0
2638,1768831667012,-757,8315,-393,0,0,0,0,0
2639,1768831667430,-747,8346,-370,0,0,0,0,0
2640,1768831667727,-761,8361,-375,0,0,0,0,0
2641,1768831668045,-774,8349,-345,0,0,0,0,0
2642,1768831668361,-764,8318,-374,0,0,0,0,0
2643,1768831668496,-755,8312,-369,0,0,0,0,0
2644,1768831668813,-742,8362,-378,0,0,0,0,0
2645,1768831669196,-760,8344,-363,0,0,0,0,0
2646,1768831669330,-768,8350,-392,0,0,0,0,0
2647,1768831669681,-762,8326,-353,0,0,0,0,0
2648,1768831669794,-756,8334,-372,0,0,0,0,0
2649,1768831670164,-772,8340,-389,0,0,0,0,0
2650,1768831670462,-768,8390,-351,0,0,0,0,0
2651,1768831670594,-750,8352,-357,0,0,0,0,0
2652,1768831670697,-738,8352,-363,0,0,0,0,0
2653,1768831671029,-777,8369,-366,0,0,0,0,0
2654,1768831671347,-762,8310,-372,0,0,0,0,0
2655,1768831671512,-749,8349,-371,0,0,0,0,0
2656,1768831671610,-762,8307,-366,0,0,0,0,0
2657,1768831671893,-759,8425,-392,0,0,0,0,0
2658,1768831672028,-772,8430,-385,0,0,0,0,0
2659,1768831672261,-778,8189,-358,0,0,0,0,0
2660,1768831672396,-754,8337,-361,0,0,0,0,0
2661,1768831672730,-786,8344,-372,0,0,0,0,0
2662,1768831672794,-763,8339,-374,0,0,0,0,0
2663,1768831672880,-518,9210,-420,0,0,0,0,0
2664,1768831673212,-202,8302,-280,0,0,0,0,0
2665,1768831673496,-759,8406,560,0,0,0,0,0
2666,1768831673594,-605,8047,654,0,0,0,0,0
2667,1768831673796,-988,8689,-368,0,0,0,0,0
2668,1768831674063,134,9046,2630,0,0,0,0,0
2669,1768831674193,-1062,8950,1125,0,0,0,0,0
2670,1768831674514,242,7783,2424,0,0,0,0,0
2671,1768831674710,532,8200,2740,0,0,0,0,0
2672,1768831674962,-571,8438,2738,0,0,0,0,0
2673,1768831675163,-524,8388,1361,0,0,0,0,0
2674,1768831675427,-181,8527,2608,0,0,0,0,0
2675,1768831675762,-756,8281,2742,0,0,0,0,0
2676,1768831676320,-1596,7401,3634,0,0,0,0,0
2677,1768831676326,-1059,8611,3147,0,0,0,0,0
2678,1768831676677,-548,8432,1842,0,0,0,0,0
2679,1768831676827,-850,9116,1399,0,0,0,0,0
2680,1768831677079,-724,7554,1012,0,0,0,0,0
2681,1768831677428,956,9642,1882,0,0,0,0,0
2682,1768831677929,-120,8297,-3818,0,0,0,0,0
2683,1768831678147,-1038,8452,-671,0,0,0,0,0
2684,1768831678478,-960,8600,-1920,0,0,0,0,0
2685,1768831678661,786,9672,91,0,0,0,0,0
2686,1768831679177,52,9605,-456,0,0,0,0,0
2687,1768831679612,-520,8082,-803,0,0,0,0,0
2688,1768831679763,-513,7560,-682,0,0,0,0,0
2689,1768831680077,-1895,9078,-1029,0,0,0,0,0
2690,1768831680276,-2345,9815,-1388,0,0,0,0,0
2691,1768831680559,-980,8481,-1019,0,0,0,0,0
2692,1768831680793,-1970,6918,-1179,0,0,0,0,0
2693,1768831681059,-1242,8274,-1342,0,0,0,0,0
2694,1768831681345,-1415,7382,-1087,0,0,0,0,0
2695,1768831681646,5182,9327,-2114,0,0,0,0,0
2696,1768831681862,5366,7744,-2944,0,0,0,0,0
2697,1768831682512,-3144,8590,-4475,0,0,0,0,0
2698,1768831683095,-6246,7127,-1424,0,0,0,0,0
2699,1768831683411,-3716,8224,302,0,0,0,0,0
2700,1768831683596,665,8377,-1996,0,0,0,0,0
2701,1768831683845,182,7789,-2793,0,0,0,0,0
2702,1768831683928,1147,8338,-2842,0,0,0,0,0
2703,1768831684328,1552,9124,-2974,0,0,0,0,0
2704,1768831684662,601,8656,-3003,0,0,0,0,0
2705,1768831684827,-302,8298,-2707,0,0,0,0,0
2706,1768831685329,-1058,8566,-2666,0,0,0,0,0
2707,1768831685862,-1011,8093,-2378,0,0,0,0,0
2708,1768831685943,-720,8536,-438,0,0,0,0,0
2709,1768831686160,-746,8554,544,0,0,0,0,0
2710,1768831686426,-700,8531,-58,0,0,0,0,0
2711,1768831686977,-720,8400,-254,0,0,0,0,0
2712,1768831687341,-796,8288,-278,0,0,0,0,0
2713,1768831687461,-728,8406,-370,0,0,0,0,0
2714,1768831687662,-790,8348,-287,0,0,0,0,0
2715,1768831688112,-764,8370,-327,0,0,0,0,0
2716,1768831688430,-754,8324,-313,0,0,0,0,0
2717,1768831688927,-734,8360,-342,0,0,0,0,0
2718,1768831689429,-754,8359,-338,0,0,0,0,0
2719,1768831689595,-722,8374,-324,0,0,0,0,0
2720,1768831689912,-750,8342,-329,0,0,0,0,0
2721,1768831689995,-748,8298,-305,0,0,0,0,0
2722,1768831690478,-745,8328,-283,0,0,0,0,0
2723,1768831690729,-744,8304,-294,0,0,0,0,0
2724,1768831690978,-702,8349,-266,0,0,0,0,0
2725,1768831691228,-790,8350,-442,0,0,0,0,0
2726,1768831691461,-712,8349,-238,0,0,0,0,0
2727,1768831691662,-733,8297,-404,0,0,0,0,0
2728,1768831691929,-669,8346,-302,0,0,0,0,0
2729,1768831691994,-749,8366,-286,0,0,0,0,0
2730,1768831692330,-753,8341,-228,0,0,0,0,0
2731,1768831692494,-709,8324,-320,0,0,0,0,0
2732,1768831693027,-734,8468,-434,0,0,0,0,0
2733,1768831693361,-766,8292,-301,0,0,0,0,0
2734,1768831693626,-706,8323,-309,0,0,0,0,0
2735,1768831693893,-771,8359,-324,0,0,0,0,0
2736,1768831694128,-732,8329,-310,0,0,0,0,0
2737,1768831694379,-754,8354,-361,0,0,0,0,0
2738,1768831694611,-746,8336,-313,0,0,0,0,0
2739,1768831694812,-725,8335,-291,0,0,0,0,0
2740,1768831695113,-745,8389,-332,0,0,0,0,0
2741,1768831695330,-817,8402,-354,0,0,0,0,0
2742,1768831695613,-802,8384,-294,0,0,0,0,0
2743,1768831695845,-773,8338,-299,0,0,0,0,0
2744,1768831696279,-754,8352,-324,0,0,0,0,0
2745,1768831696594,-750,8341,-334,0,0,0,0,0
2746,1768831697127,-634,8290,-327,0,0,0,0,0
2747,1768831697328,-721,8295,-330,0,0,0,0,0
2748,1768831697711,-770,8323,-311,0,0,0,0,0
2749,1768831697944,-707,8387,-277,0,0,0,0,0
2750,1768831698305,-740,8328,-304,0,0,0,0,0
