index,date,GYRO_X,GYRO_Y,GYRO_Z,1,2,3,4,5
0,1768830687689,-12,17,1,0,0,0,0,0
1,1768830687838,-11,19,4,0,0,0,0,0
2,1768830688039,-8,16,1,0,0,0,0,0
3,1768830688106,-10,17,1,0,0,0,0,0
4,1768830688422,-10,18,1,0,0,0,0,0
5,1768830688656,-9,18,1,0,0,0,0,0
6,1768830688873,-11,20,3,0,0,0,0,0
7,1768830689222,-10,18,2,0,0,0,0,0
8,1768830689289,-10,18,1,0,0,0,0,0
9,1768830689407,-10,18,2,0,0,0,0,0
10,1768830689639,-9,17,0,0,0,0,0,0
11,1768830689957,-10,16,3,0,0,0,0,0
12,1768830690206,-9,17,1,0,0,0,0,0
13,1768830690423,-9,18,1,0,0,0,0,0
14,1768830690906,-10,16,1,0,0,0,0,0
15,1768830691256,-11,17,2,0,0,0,0,0
16,1768830691540,-10,16,2,0,0,0,0,0
17,1768830691706,-10,19,1,0,0,0,0,0
18,1768830692073,-10,18,0,0,0,0,0,0
19,1768830692324,-10,18,2,0,0,0,0,0
20,1768830692588,-10,17,1,0,0,0,0,0
21,1768830692838,-11,18,2,0,0,0,0,0
22,1768830692938,-10,18,2,0,0,0,0,0
23,1768830693421,-11,18,2,0,0,0,0,0
24,1768830693738,-8,17,3,0,0,0,0,0
25,1768830694105,-11,18,1,0,0,0,0,0
26,1768830694472,-10,17,1,0,0,0,0,0
27,1768830694722,-9,17,1,0,0,0,0,0
28,1768830694939,-10,17,1,0,0,0,0,0
29,1768830695289,-9,18,2,0,0,0,0,0
30,1768830695422,-10,17,2,0,0,0,0,0
31,1768830695739,-10,19,0,0,0,0,0,0
32,1768830695906,-8,18,2,0,0,0,0,0
33,1768830696123,-10,17,0,0,0,0,0,0
34,1768830696438,-8,18,0,0,0,0,0,0
35,1768830696538,-11,19,2,0,0,0,0,0
36,1768830696621,-10,19,1,0,0,0,0,0
37,1768830696955,-11,17,2,0,0,0,0,0
38,1768830697256,-11,17,2,0,0,0,0,0
39,1768830697356,-10,19,1,0,0,0,0,0
40,1768830697673,-9,18,2,0,0,0,0,0
41,1768830697907,-10,17,2,0,0,0,0,0
42,1768830697989,-9,18,1,0,0,0,0,0
43,1768830698206,-11,17,1,0,0,0,0,0
44,1768830698573,-10,18,1,0,0,0,0,0
45,1768830698840,-10,18,0,0,0,0,0,0
46,1768830699056,-11,19,1,0,0,0,0,0
47,1768830699289,-11,19,1,0,0,0,0,0
48,1768830699523,-10,16,1,0,0,0,0,0
49,1768830699873,-7,15,0,0,0,0,0,0
50,1768830700239,-10,17,2,0,0,0,0,0
51,1768830700539,-10,15,1,0,0,0,0,0
52,1768830700657,-9,18,0,0,0,0,0,0
53,1768830700757,-8,17,1,0,0,0,0,0
54,1768830701056,-10,18,2,0,0,0,0,0
55,1768830701539,-8,17,2,0,0,0,0,0
56,1768830701872,-9,18,2,0,0,0,0,0
57,1768830701955,-9,18,0,0,0,0,0,0
58,1768830702273,-9,19,1,0,0,0,0,0
59,1768830702406,-11,18,1,0,0,0,0,0
60,1768830702756,-11,18,0,0,0,0,0,0
61,1768830702906,-10,17,3,0,0,0,0,0
62,1768830702990,-9,18,1,0,0,0,0,0
63,1768830703190,-11,17,1,0,0,0,0,0
64,1768830703305,-8,18,1,0,0,0,0,0
65,1768830703588,-9,18,0,0,0,0,0,0
66,1768830703739,-9,18,2,0,0,0,0,0
67,1768830704073,-10,18,1,0,0,0,0,0
68,1768830704206,-11,17,1,0,0,0,0,0
69,1768830704306,-10,17,2,0,0,0,0,0
70,1768830704621,-12,17,3,0,0,0,0,0
71,1768830704921,-9,17,2,0,0,0,0,0
72,1768830705171,-11,16,1,0,0,0,0,0
73,1768830705607,-12,18,1,0,0,0,0,0
74,1768830705923,-7,17,1,0,0,0,0,0
75,1768830706190,-9,16,1,0,0,0,0,0
76,1768830706323,-11,17,1,0,0,0,0,0
77,1768830706456,-7,16,2,0,0,0,0,0
78,1768830706656,-10,17,2,0,0,0,0,0
79,1768830706789,-12,17,2,0,0,0,0,0
80,1768830707056,-9,18,-1,0,0,0,0,0
81,1768830707190,-10,17,1,0,0,0,0,0
82,1768830707290,-10,19,1,0,0,0,0,0
83,1768830707573,-10,19,2,0,0,0,0,0
84,1768830707672,-10,18,2,0,0,0,0,0
85,1768830707990,-11,17,2,0,0,0,0,0
86,1768830708056,-9,15,1,0,0,0,0,0
87,1768830708173,-10,18,1,0,0,0,0,0
88,1768830708373,-10,22,0,0,0,0,0,0
89,1768830708639,-9,20,2,0,0,0,0,0
90,1768830708905,-9,17,4,0,0,0,0,0
91,1768830709255,-8,17,2,0,0,0,0,0
92,1768830709439,-11,18,0,0,0,0,0,0
93,1768830709773,-9,17,2,0,0,0,0,0
94,1768830709906,-8,19,2,0,0,0,0,0
95,1768830710173,-8,16,0,0,0,0,0,0
96,1768830710456,-11,18,-1,0,0,0,0,0
97,1768830710656,-9,17,0,0,0,0,0,0
98,1768830710990,-11,17,0,0,0,0,0,0
99,1768830711240,-10,18,2,0,0,0,0,0
100,1768830711506,-10,16,1,0,0,0,0,0
101,1768830711890,-10,18,0,0,0,0,0,0
102,1768830712073,-10,18,1,0,0,0,0,0
103,1768830712240,-12,17,1,0,0,0,0,0
104,1768830712590,-10,18,1,0,0,0,0,0
105,1768830713106,-11,18,1,0,0,0,0,0
106,1768830713439,-10,17,3,0,0,0,0,0
107,1768830713490,-9,17,1,0,0,0,0,0
108,1768830713541,-10,20,1,0,0,0,0,0
109,1768830713872,-11,17,0,0,0,0,0,0
110,1768830714206,-11,19,1,0,0,0,0,0
111,1768830714522,-9,17,2,0,0,0,0,0
112,1768830714822,-10,17,1,0,0,0,0,0
113,1768830715055,-10,17,0,0,0,0,0,0
114,1768830715189,-11,18,1,0,0,0,0,0
115,1768830715540,-9,18,1,0,0,0,0,0
116,1768830716039,-9,19,1,0,0,0,0,0
117,1768830716124,-10,17,1,0,0,0,0,0
118,1768830716422,-10,17,1,0,0,0,0,0
119,1768830716556,-10,20,1,0,0,0,0,0
120,1768830716790,-11,20,1,0,0,0,0,0
121,1768830717023,-9,16,2,0,0,0,0,0
122,1768830717106,-11,19,0,0,0,0,0,0
123,1768830717338,-11,18,1,0,0,0,0,0
124,1768830717672,-10,18,1,0,0,0,0,0
125,1768830718007,-10,18,0,0,0,0,0,0
126,1768830718022,-9,17,1,0,0,0,0,0
127,1768830718372,-9,17,1,0,0,0,0,0
128,1768830718523,-9,19,1,0,0,0,0,0
129,1768830718739,-11,18,2,0,0,0,0,0
130,1768830719073,-10,16,1,0,0,0,0,0
131,1768830719223,-11,19,1,0,0,0,0,0
132,1768830719572,-11,18,1,0,0,0,0,0
133,1768830719689,-10,18,0,0,0,0,0,0
134,1768830719890,-11,17,1,0,0,0,0,0
135,1768830720038,-11,18,0,0,0,0,0,0
136,1768830720405,-9,17,1,0,0,0,0,0
137,1768830720805,-10,17,1,0,0,0,0,0
138,1768830721155,-10,18,1,0,0,0,0,0
139,1768830721355,-9,18,0,0,0,0,0,0
140,1768830721555,-11,18,2,0,0,0,0,0
141,1768830721838,-10,17,2,0,0,0,0,0
142,1768830722105,-8,18,1,0,0,0,0,0
143,1768830722322,-9,18,1,0,0,0,0,0
144,1768830722788,-11,18,1,0,0,0,0,0
145,1768830722922,-10,18,2,0,0,0,0,0
146,1768830723155,-9,17,1,0,0,0,0,0
147,1768830723389,-10,18,1,0,0,0,0,0
148,1768830723605,-12,16,1,0,0,0,0,0
149,1768830723922,-10,17,2,0,0,0,0,0
150,1768830724155,-10,17,2,0,0,0,0,0
151,1768830724422,-10,20,1,0,0,0,0,0
152,1768830724671,-11,17,2,0,0,0,0,0
153,1768830724822,-12,18,1,0,0,0,0,0
154,1768830725188,-11,18,1,0,0,0,0,0
155,1768830725271,-10,18,1,0,0,0,0,0
156,1768830725504,-10,18,0,0,0,0,0,0
157,1768830725672,-9,17,2,0,0,0,0,0
158,1768830725871,-11,18,1,0,0,0,0,0
159,1768830726023,-11,18,1,0,0,0,0,0
160,1768830726271,-16,18,2,0,0,0,0,0
161,1768830726504,-9,17,-1,0,0,0,0,0
162,1768830726855,-12,19,1,0,0,0,0,0
163,1768830727121,-13,22,0,0,0,0,0,0
164,1768830727354,-9,15,0,0,0,0,0,0
165,1768830727705,-11,19,0,0,0,0,0,0
166,1768830727988,-10,17,0,0,0,0,0,0
167,1768830728255,-9,18,-256,0,0,0,0,0
168,1768830728521,-10,16,2,0,0,0,0,0
169,1768830728755,-11,17,2,0,0,0,0,0
170,1768830729088,-8,18,0,0,0,0,0,0
171,1768830729271,-11,18,2,0,0,0,0,0
172,1768830729488,-10,18,1,0,0,0,0,0
173,1768830729741,-10,19,2,0,0,0,0,0
174,1768830730088,-9,19,2,0,0,0,0,0
175,1768830730287,-11,17,1,0,0,0,0,0
176,1768830730455,-9,19,1,0,0,0,0,0
177,1768830730908,-10,18,1,0,0,0,0,0
178,1768830731088,-10,17,2,0,0,0,0,0
179,1768830731272,-9,17,0,0,0,0,0,0
180,1768830731572,-9,19,2,0,0,0,0,0
181,1768830731755,-9,16,1,0,0,0,0,0
182,1768830732222,-10,18,1,0,0,0,0,0
183,1768830732438,-8,17,0,0,0,0,0,0
184,1768830732605,-10,16,3,0,0,0,0,0
185,1768830733172,-11,19,0,0,0,0,0,0
186,1768830733437,-9,17,0,0,0,0,0,0
187,1768830733521,-10,19,1,0,0,0,0,0
188,1768830733905,-8,16,2,0,0,0,0,0
189,1768830733988,-9,18,2,0,0,0,0,0
190,1768830734305,-12,17,1,0,0,0,0,0
191,1768830734305,-8,17,1,0,0,0,0,0
192,1768830734622,-6,17,2,0,0,0,0,0
193,1768830734772,-10,18,1,0,0,0,0,0
194,1768830735088,-11,18,2,0,0,0,0,0
195,1768830735221,-6,16,2,0,0,0,0,0
196,1768830735440,-11,17,5,0,0,0,0,0
197,1768830735773,-11,19,2,0,0,0,0,0
198,1768830736005,-11,17,1,0,0,0,0,0
199,1768830736239,-8,17,1,0,0,0,0,0
200,1768830736355,-10,16,0,0,0,0,0,0
201,1768830736772,-9,17,2,0,0,0,0,0
202,1768830737138,-10,18,1,0,0,0,0,0
203,1768830737374,-10,18,1,0,0,0,0,0
204,1768830737472,-9,17,1,0,0,0,0,0
205,1768830737721,-11,16,2,0,0,0,0,0
206,1768830737888,-9,17,2,0,0,0,0,0
207,1768830738023,-12,18,1,0,0,0,0,0
208,1768830738455,-9,17,1,0,0,0,0,0
209,1768830738854,-11,18,0,0,0,0,0,0
210,1768830739073,-11,17,1,0,0,0,0,0
211,1768830739421,-9,18,2,0,0,0,0,0
212,1768830739639,-10,16,1,0,0,0,0,0
213,1768830739821,-9,17,1,0,0,0,0,0
214,1768830740054,-10,18,1,0,0,0,0,0
215,1768830740305,-11,17,1,0,0,0,0,0
216,1768830740655,-10,15,0,0,0,0,0,0
217,1768830740705,-11,16,0,0,0,0,0,0
218,1768830741054,-11,19,0,0,0,0,0,0
219,1768830741272,-11,19,2,0,0,0,0,0
220,1768830741571,-9,18,0,0,0,0,0,0
221,1768830741854,-7,15,2,0,0,0,0,0
222,1768830741972,-9,16,1,0,0,0,0,0
223,1768830742305,-11,18,2,0,0,0,0,0
224,1768830742522,-7,18,1,0,0,0,0,0
225,1768830742856,-9,19,1,0,0,0,0,0
226,1768830743071,-11,19,2,0,0,0,0,0
227,1768830743356,-9,16,1,0,0,0,0,0
228,1768830743755,-10,18,2,0,0,0,0,0
229,1768830744071,-14,18,3,0,0,0,0,0
230,1768830744305,-10,19,-1,0,0,0,0,0
231,1768830744654,-8,17,1,0,0,0,0,0
232,1768830744805,-10,17,0,0,0,0,0,0
233,1768830745072,-9,18,1,0,0,0,0,0
234,1768830745387,-10,19,2,0,0,0,0,0
235,1768830745472,-9,18,1,0,0,0,0,0
236,1768830745922,-7,17,1,0,0,0,0,0
237,1768830746039,-11,17,2,0,0,0,0,0
238,1768830746388,-11,17,3,0,0,0,0,0
239,1768830746572,-10,17,3,0,0,0,0,0
240,1768830746739,-10,20,2,0,0,0,0,0
241,1768830746804,-11,17,0,0,0,0,0,0
242,1768830747122,-12,19,1,0,0,0,0,0
243,1768830747456,-9,17,2,0,0,0,0,0
244,1768830747988,-11,18,1,0,0,0,0,0
245,1768830748039,-10,17,2,0,0,0,0,0
246,1768830748189,-11,16,1,0,0,0,0,0
247,1768830748423,-9,18,1,0,0,0,0,0
248,1768830748655,-10,19,1,0,0,0,0,0
249,1768830748755,-10,17,2,0,0,0,0,0
250,1768830749188,-10,16,2,0,0,0,0,0
251,1768830749288,-11,17,1,0,0,0,0,0
252,1768830749622,-9,17,1,0,0,0,0,0
253,1768830749771,-8,17,2,0,0,0,0,0
254,1768830749971,-8,16,1,0,0,0,0,0
255,1768830750255,-12,18,1,0,0,0,0,0
256,1768830750439,-8,18,2,0,0,0,0,0
257,1768830750738,-11,19,1,0,0,0,0,0
258,1768830750805,-9,18,2,0,0,0,0,0
259,1768830751071,-10,17,0,0,0,0,0,0
260,1768830751205,-10,17,2,0,0,0,0,0
261,1768830751273,-10,18,0,0,0,0,0,0
262,1768830751405,-12,18,1,0,0,0,0,0
263,1768830751671,-9,18,1,0,0,0,0,0
264,1768830751938,-11,17,0,0,0,0,0,0
265,1768830752205,-12,17,1,0,0,0,0,0
266,1768830752538,-12,18,1,0,0,0,0,0
267,1768830753021,-11,18,1,0,0,0,0,0
268,1768830753338,-10,16,1,0,0,0,0,0
269,1768830753672,-10,18,0,0,0,0,0,0
270,1768830754188,-9,16,1,0,0,0,0,0
271,1768830754288,-10,18,2,0,0,0,0,0
272,1768830754405,-11,17,0,0,0,0,0,0
273,1768830754622,-9,17,3,0,0,0,0,0
274,1768830754921,-10,18,1,0,0,0,0,0
275,1768830755155,-10,18,1,0,0,0,0,0
276,1768830755388,-10,18,0,0,0,0,0,0
277,1768830755789,-10,17,0,0,0,0,0,0
278,1768830756105,-10,17,0,0,0,0,0,0
279,1768830756272,-9,17,0,0,0,0,0,0
280,1768830756588,-9,17,1,0,0,0,0,0
281,1768830756904,-13,17,2,0,0,0,0,0
282,1768830757405,-11,18,0,0,0,0,0,0
283,1768830757488,-7,14,-1,0,0,0,0,0
284,1768830757588,-11,16,6,0,0,0,0,0
285,1768830757837,-8,19,-2,0,0,0,0,0
286,1768830758121,-10,18,1,0,0,0,0,0
287,1768830758354,-9,18,2,0,0,0,0,0
288,1768830758471,-8,16,2,0,0,0,0,0
289,1768830758722,-12,18,1,0,0,0,0,0
290,1768830758988,-10,20,-1,0,0,0,0,0
291,1768830759209,-10,14,2,0,0,0,0,0
292,1768830759571,-8,18,1,0,0,0,0,0
293,1768830759822,-11,16,2,0,0,0,0,0
294,1768830760070,-10,17,2,0,0,0,0,0
295,1768830760622,-11,18,0,0,0,0,0,0
296,1768830760690,-9,17,2,0,0,0,0,0
297,1768830760772,-10,18,1,0,0,0,0,0
298,1768830761039,-9,18,0,0,0,0,0,0
299,1768830761256,-10,18,1,0,0,0,0,0
300,1768830761389,-10,17,2,0,0,0,0,0
301,1768830761638,-11,18,2,0,0,0,0,0
302,1768830761905,-10,17,2,0,0,0,0,0
303,1768830762189,-10,18,2,0,0,0,0,0
304,1768830762390,-10,17,0,0,0,0,0,0
305,1768830762772,-11,17,1,0,0,0,0,0
306,1768830763005,-11,19,0,0,0,0,0,0
307,1768830763289,-10,17,1,0,0,0,0,0
308,1768830763440,-10,18,1,0,0,0,0,0
309,1768830763839,-9,16,1,0,0,0,0,0
310,1768830764188,-11,19,-1,0,0,0,0,0
311,1768830764439,-10,14,0,0,0,0,0,0
312,1768830765057,-10,17,2,0,0,0,0,0
313,1768830765208,-9,19,1,0,0,0,0,0
314,1768830765457,-10,16,0,0,0,0,0,0
315,1768830765589,-11,17,1,0,0,0,0,0
316,1768830765974,-10,21,8,0,0,0,0,0
317,1768830766156,-9,17,-5,0,0,0,0,0
318,1768830766456,-11,17,-1,0,0,0,0,0
319,1768830766823,-11,17,1,0,0,0,0,0
320,1768830767006,-9,18,1,0,0,0,0,0
321,1768830767056,-10,19,2,0,0,0,0,0
322,1768830767323,-10,18,2,0,0,0,0,0
323,1768830767572,-9,18,1,0,0,0,0,0
324,1768830767792,-9,18,1,0,0,0,0,0
325,1768830767923,-10,17,2,0,0,0,0,0
326,1768830768156,-10,17,1,0,0,0,0,0
327,1768830768459,-9,18,1,0,0,0,0,0
328,1768830768558,-10,16,2,0,0,0,0,0
329,1768830768889,-11,18,2,0,0,0,0,0
330,1768830769207,-10,18,0,0,0,0,0,0
331,1768830769296,-10,17,0,0,0,0,0,0
332,1768830769366,-8,17,-1,0,0,0,0,0
333,1768830769688,-11,18,1,0,0,0,0,0
334,1768830770023,-9,18,2,0,0,0,0,0
335,1768830770123,-11,18,1,0,0,0,0,0
336,1768830770409,-10,17,2,0,0,0,0,0
337,1768830770874,-8,18,2,0,0,0,0,0
338,1768830770955,-9,17,1,0,0,0,0,0
339,1768830771206,-10,18,0,0,0,0,0,0
340,1768830771290,-14,20,0,0,0,0,0,0
341,1768830771656,-15,26,7,0,0,0,0,0
342,1768830772122,-9,25,0,0,0,0,0,0
343,1768830772406,-9,27,0,0,0,0,0,0
344,1768830772589,-11,32,2,0,0,0,0,0
345,1768830772739,-17,33,5,0,0,0,0,0
346,1768830772954,-6,30,2,0,0,0,0,0
347,1768830773037,-10,44,14,0,0,0,0,0
348,1768830773338,-16,45,8,0,0,0,0,0
349,1768830773355,-19,72,-3,0,0,0,0,0
350,1768830773804,-12,91,-5,0,0,0,0,0
351,1768830774137,-19,96,-14,0,0,0,0,0
352,1768830774204,-17,101,-3,0,0,0,0,0
353,1768830774322,-28,99,-14,0,0,0,0,0
354,1768830774521,-17,100,3,0,0,0,0,0
355,1768830774621,-21,105,-8,0,0,0,0,0
356,1768830774738,-12,95,-6,0,0,0,0,0
357,1768830774922,-16,97,-2,0,0,0,0,0
358,1768830775356,-18,90,-3,0,0,0,0,0
359,1768830775422,-10,88,1,0,0,0,0,0
360,1768830775871,-19,95,-1,0,0,0,0,0
361,1768830775988,-16,95,-4,0,0,0,0,0
362,1768830776104,-14,87,-3,0,0,0,0,0
363,1768830776354,-14,87,-2,0,0,0,0,0
364,1768830776538,-10,85,1,0,0,0,0,0
365,1768830776722,-16,86,-1,0,0,0,0,0
366,1768830777104,-10,77,1,0,0,0,0,0
367,1768830777288,-15,69,3,0,0,0,0,0
368,1768830777489,-14,57,-1,0,0,0,0,0
369,1768830777638,-12,54,-3,0,0,0,0,0
370,1768830777772,-10,31,5,0,0,0,0,0
371,1768830777938,-12,21,6,0,0,0,0,0
372,1768830778155,-10,22,0,0,0,0,0,0
373,1768830778372,-8,10,1,0,0,0,0,0
374,1768830778588,-10,10,3,0,0,0,0,0
375,1768830778721,-10,11,1,0,0,0,0,0
376,1768830779005,-10,9,0,0,0,0,0,0
377,1768830779271,-8,10,2,0,0,0,0,0
378,1768830779422,-5,0,0,0,0,0,0,0
379,1768830779673,-7,11,-1,0,0,0,0,0
380,1768830779804,-8,17,0,0,0,0,0,0
381,1768830780188,-7,22,-2,0,0,0,0,0
382,1768830780739,-14,29,0,0,0,0,0,0
383,1768830780839,-10,27,0,0,0,0,0,0
384,1768830781154,-11,18,2,0,0,0,0,0
385,1768830781253,-8,16,2,0,0,0,0,0
386,1768830781471,-11,18,1,0,0,0,0,0
387,1768830781554,-9,15,1,0,0,0,0,0
388,1768830782022,-9,17,1,0,0,0,0,0
389,1768830782138,-9,17,0,0,0,0,0,0
390,1768830782407,-11,17,1,0,0,0,0,0
391,1768830782555,-8,-4591,33,0,0,0,0,0
392,1768830833837,-9,18,2,0,0,0,0,0
393,1768830833971,-10,20,3,0,0,0,0,0
394,1768830834137,-9,18,1,0,0,0,0,0
395,1768830834304,-9,19,1,0,0,0,0,0
396,1768830834437,-10,20,1,0,0,0,0,0
397,1768830834654,-11,17,3,0,0,0,0,0
398,1768830834754,-10,17,1,0,0,0,0,0
399,1768830834970,-9,17,3,0,0,0,0,0
400,1768830835103,-9,18,0,0,0,0,0,0
401,1768830835437,-10,18,1,0,0,0,0,0
402,1768830835621,-10,19,1,0,0,0,0,0
403,1768830836121,-9,17,1,0,0,0,0,0
404,1768830836389,-11,17,1,0,0,0,0,0
405,1768830836870,-10,19,1,0,0,0,0,0
406,1768830837271,-3,15,20,0,0,0,0,0
407,1768830837670,-9,18,2,0,0,0,0,0
408,1768830837804,-8,17,1,0,0,0,0,0
409,1768830838003,-9,17,2,0,0,0,0,0
410,1768830838104,-11,17,2,0,0,0,0,0
411,1768830838354,-9,18,1,0,0,0,0,0
412,1768830838420,-10,19,1,0,0,0,0,0
413,1768830838740,-10,19,1,0,0,0,0,0
414,1768830838823,-10,18,1,0,0,0,0,0
415,1768830839089,-8,17,2,0,0,0,0,0
416,1768830839306,-12,18,2,0,0,0,0,0
417,1768830839739,-11,18,1,0,0,0,0,0
418,1768830839805,-10,19,1,0,0,0,0,0
419,1768830840086,-9,18,1,0,0,0,0,0
420,1768830840172,-9,18,1,0,0,0,0,0
421,1768830840506,-9,18,1,0,0,0,0,0
422,1768830840705,-11,19,1,0,0,0,0,0
423,1768830840870,-11,16,1,0,0,0,0,0
424,1768830841237,-10,17,0,0,0,0,0,0
425,1768830841321,-12,17,0,0,0,0,0,0
426,1768830841570,-10,18,1,0,0,0,0,0
427,1768830841672,-11,16,2,0,0,0,0,0
428,1768830842137,-10,18,1,0,0,0,0,0
429,1768830842355,-10,18,1,0,0,0,0,0
430,1768830842438,-10,18,1,0,0,0,0,0
431,1768830842505,-11,19,1,0,0,0,0,0
432,1768830842840,-10,17,0,0,0,0,0,0
433,1768830843072,-10,17,2,0,0,0,0,0
434,1768830843522,-12,18,1,0,0,0,0,0
435,1768830843672,-10,18,1,0,0,0,0,0
436,1768830844021,-11,17,1,0,0,0,0,0
437,1768830844472,-9,17,1,0,0,0,0,0
438,1768830844788,-10,18,1,0,0,0,0,0
439,1768830845022,-11,18,2,0,0,0,0,0
440,1768830845255,-10,17,2,0,0,0,0,0
441,1768830845355,-10,18,1,0,0,0,0,0
442,1768830845605,-10,19,1,0,0,0,0,0
443,1768830845855,-10,18,2,0,0,0,0,0
444,1768830846106,-11,18,1,0,0,0,0,0
445,1768830846220,-9,17,1,0,0,0,0,0
446,1768830846622,-11,19,3,0,0,0,0,0
447,1768830846688,-8,18,4,0,0,0,0,0
448,1768830846855,-12,19,1,0,0,0,0,0
449,1768830847055,-10,16,1,0,0,0,0,0
450,1768830847320,-8,17,3,0,0,0,0,0
451,1768830847554,-10,18,1,0,0,0,0,0
452,1768830847870,-10,17,1,0,0,0,0,0
453,1768830848088,-10,18,0,0,0,0,0,0
454,1768830848405,-9,18,1,0,0,0,0,0
455,1768830848804,-11,17,1,0,0,0,0,0
456,1768830849020,-11,18,1,0,0,0,0,0
457,1768830849171,-9,19,1,0,0,0,0,0
458,1768830849437,-10,17,1,0,0,0,0,0
459,1768830849619,-9,17,2,0,0,0,0,0
460,1768830849837,-9,18,0,0,0,0,0,0
461,1768830850003,-9,17,2,0,0,0,0,0
462,1768830850253,-9,18,0,0,0,0,0,0
463,1768830850571,-9,18,1,0,0,0,0,0
464,1768830850854,-11,17,2,0,0,0,0,0
465,1768830850988,-10,18,1,0,0,0,0,0
466,1768830851289,-9,17,1,0,0,0,0,0
467,1768830851539,-10,18,1,0,0,0,0,0
468,1768830851853,-9,18,1,0,0,0,0,0
469,1768830852121,-9,18,1,0,0,0,0,0
470,1768830852353,-10,18,-1,0,0,0,0,0
471,1768830852722,-10,16,2,0,0,0,0,0
472,1768830852956,-10,18,0,0,0,0,0,0
473,1768830853254,-9,18,0,0,0,0,0,0
474,1768830853638,-9,17,2,0,0,0,0,0
475,1768830854155,-10,19,2,0,0,0,0,0
476,1768830854388,-11,17,2,0,0,0,0,0
477,1768830854670,-11,17,1,0,0,0,0,0
478,1768830854955,-8,18,1,0,0,0,0,0
479,1768830855071,-9,18,1,0,0,0,0,0
480,1768830855338,-11,18,2,0,0,0,0,0
481,1768830855622,-9,18,1,0,0,0,0,0
482,1768830855904,-10,18,1,0,0,0,0,0
483,1768830856386,-10,18,0,0,0,0,0,0
484,1768830856536,-9,18,1,0,0,0,0,0
485,1768830856870,-10,18,1,0,0,0,0,0
486,1768830857086,-10,17,0,0,0,0,0,0
487,1768830857253,-11,17,0,0,0,0,0,0
488,1768830857621,-9,17,1,0,0,0,0,0
489,1768830857703,-12,18,2,0,0,0,0,0
490,1768830857987,-12,18,1,0,0,0,0,0
491,1768830858236,-9,17,2,0,0,0,0,0
492,1768830858603,-10,17,0,0,0,0,0,0
493,1768830858771,-10,18,1,0,0,0,0,0
494,1768830859053,-8,19,0,0,0,0,0,0
495,1768830859270,-10,17,-1,0,0,0,0,0
496,1768830859555,-10,19,1,0,0,0,0,0
497,1768830859687,-9,17,2,0,0,0,0,0
498,1768830860170,-10,18,-1,0,0,0,0,0
499,1768830860420,-10,19,3,0,0,0,0,0
500,1768830860654,-10,18,2,0,0,0,0,0
501,1768830860920,-11,16,1,0,0,0,0,0
502,1768830861153,-11,19,2,0,0,0,0,0
503,1768830861387,-11,19,2,0,0,0,0,0
504,1768830861620,-9,18,2,0,0,0,0,0
505,1768830861787,-10,17,1,0,0,0,0,0
506,1768830861821,-11,17,0,0,0,0,0,0
507,1768830862104,-10,19,2,0,0,0,0,0
508,1768830862353,-10,19,1,0,0,0,0,0
509,1768830862553,-10,19,2,0,0,0,0,0
510,1768830862954,-8,17,2,0,0,0,0,0
511,1768830863187,-9,17,1,0,0,0,0,0
512,1768830863422,-11,18,2,0,0,0,0,0
513,1768830863686,-11,19,0,0,0,0,0,0
514,1768830863920,-10,18,2,0,0,0,0,0
515,1768830864338,-11,17,0,0,0,0,0,0
516,1768830864489,-10,17,1,0,0,0,0,0
517,1768830864654,-12,18,2,0,0,0,0,0
518,1768830864955,-10,18,1,0,0,0,0,0
519,1768830865172,-9,18,1,0,0,0,0,0
520,1768830865337,-11,17,1,0,0,0,0,0
521,1768830865437,-7,16,1,0,0,0,0,0
522,1768830865572,-10,18,1,0,0,0,0,0
523,1768830865838,-9,17,1,0,0,0,0,0
524,1768830866104,-10,18,1,0,0,0,0,0
525,1768830866205,-11,19,2,0,0,0,0,0
526,1768830866522,-10,18,2,0,0,0,0,0
527,1768830867056,-10,19,1,0,0,0,0,0
528,1768830867505,-11,18,2,0,0,0,0,0
529,1768830867603,-10,18,1,0,0,0,0,0
530,1768830867655,-9,17,1,0,0,0,0,0
531,1768830867989,-12,19,0,0,0,0,0,0
532,1768830868189,-11,18,1,0,0,0,0,0
533,1768830868855,-9,18,2,0,0,0,0,0
534,1768830869188,-10,18,0,0,0,0,0,0
535,1768830869272,-10,17,1,0,0,0,0,0
536,1768830869621,-10,18,2,0,0,0,0,0
537,1768830869988,-10,18,0,0,0,0,0,0
538,1768830870337,-10,17,2,0,0,0,0,0
539,1768830870454,-11,17,0,0,0,0,0,0
540,1768830870855,-9,18,1,0,0,0,0,0
541,1768830870956,-10,18,2,0,0,0,0,0
542,1768830871289,-10,17,2,0,0,0,0,0
543,1768830871454,-11,17,1,0,0,0,0,0
544,1768830871970,-10,19,0,0,0,0,0,0
545,1768830872138,-10,18,1,0,0,0,0,0
546,1768830872471,-9,17,0,0,0,0,0,0
547,1768830872603,-9,17,1,0,0,0,0,0
548,1768830872820,-9,18,1,0,0,0,0,0
549,1768830873188,-12,17,1,0,0,0,0,0
550,1768830873488,-11,17,3,0,0,0,0,0
551,1768830873753,-11,17,1,0,0,0,0,0
552,1768830874072,-9,19,1,0,0,0,0,0
553,1768830874323,-10,17,1,0,0,0,0,0
554,1768830874555,-11,17,1,0,0,0,0,0
555,1768830874987,-10,18,1,0,0,0,0,0
556,1768830875138,-8,19,1,0,0,0,0,0
557,1768830875340,-9,17,1,0,0,0,0,0
558,1768830875587,-11,18,0,0,0,0,0,0
559,1768830875722,-10,18,2,0,0,0,0,0
560,1768830875804,-10,18,1,0,0,0,0,0
561,1768830876155,-9,18,1,0,0,0,0,0
562,1768830876405,-11,18,1,0,0,0,0,0
563,1768830876637,-12,16,0,0,0,0,0,0
564,1768830876938,-11,17,1,0,0,0,0,0
565,1768830877087,-9,18,1,0,0,0,0,0
566,1768830877421,-11,17,1,0,0,0,0,0
567,1768830877554,-10,17,1,0,0,0,0,0
568,1768830877788,-9,18,1,0,0,0,0,0
569,1768830878055,-10,17,1,0,0,0,0,0
570,1768830878237,-10,17,0,0,0,0,0,0
571,1768830878722,-10,17,1,0,0,0,0,0
572,1768830879087,-10,17,1,0,0,0,0,0
573,1768830879187,-9,18,1,0,0,0,0,0
574,1768830879605,-10,18,2,0,0,0,0,0
575,1768830879689,-11,17,1,0,0,0,0,0
576,1768830880006,-9,18,1,0,0,0,0,0
577,1768830880504,-8,18,1,0,0,0,0,0
578,1768830880603,-10,19,1,0,0,0,0,0
579,1768830880853,-11,18,1,0,0,0,0,0
580,1768830881338,-11,17,1,0,0,0,0,0
581,1768830881637,-10,17,1,0,0,0,0,0
582,1768830881855,-9,18,1,0,0,0,0,0
583,1768830882104,-11,18,2,0,0,0,0,0
584,1768830882337,-11,17,1,0,0,0,0,0
585,1768830882654,-11,18,1,0,0,0,0,0
586,1768830883004,-10,16,2,0,0,0,0,0
587,1768830883471,-11,18,1,0,0,0,0,0
588,1768830883822,-9,18,1,0,0,0,0,0
589,1768830883955,-10,18,0,0,0,0,0,0
590,1768830884271,-9,18,2,0,0,0,0,0
591,1768830884505,-11,17,1,0,0,0,0,0
592,1768830884720,-9,17,2,0,0,0,0,0
593,1768830884987,-9,17,2,0,0,0,0,0
594,1768830885320,-10,19,1,0,0,0,0,0
595,1768830885435,-9,18,2,0,0,0,0,0
596,1768830885586,-10,18,0,0,0,0,0,0
597,1768830885837,-9,17,1,0,0,0,0,0
598,1768830886170,-10,18,0,0,0,0,0,0
599,1768830886437,-11,18,1,0,0,0,0,0
600,1768830886686,-10,17,2,0,0,0,0,0
601,1768830886820,-9,18,1,0,0,0,0,0
602,1768830887053,-11,17,1,0,0,0,0,0
603,1768830887386,-11,18,-1,0,0,0,0,0
604,1768830887670,-10,18,1,0,0,0,0,0
605,1768830887955,-10,17,2,0,0,0,0,0
606,1768830888037,-10,18,1,0,0,0,0,0
607,1768830888220,-9,17,0,0,0,0,0,0
608,1768830888504,-9,18,0,0,0,0,0,0
609,1768830888521,-10,16,2,0,0,0,0,0
610,1768830888853,-10,18,1,0,0,0,0,0
611,1768830888988,-11,17,0,0,0,0,0,0
612,1768830889287,-11,18,2,0,0,0,0,0
613,1768830889421,-9,18,1,0,0,0,0,0
614,1768830889503,-9,18,2,0,0,0,0,0
615,1768830889970,-10,17,1,0,0,0,0,0
616,1768830890321,-11,18,1,0,0,0,0,0
617,1768830890536,-9,19,1,0,0,0,0,0
618,1768830890654,-9,18,1,0,0,0,0,0
619,1768830890836,-9,17,1,0,0,0,0,0
620,1768830891122,-9,18,2,0,0,0,0,0
621,1768830891353,-12,18,0,0,0,0,0,0
622,1768830891604,-11,17,2,0,0,0,0,0
623,1768830891837,-10,17,1,0,0,0,0,0
624,1768830892253,0,-7,5,0,0,0,0,0
625,1768830892505,-6,14,2,0,0,0,0,0
626,1768830892671,-2,9,4,0,0,0,0,0
627,1768830893053,-11,4,1,0,0,0,0,0
628,1768830893537,-7,-21,-2,0,0,0,0,0
629,1768830893821,-7,-46,3,0,0,0,0,0
630,1768830894070,-9,-44,-2,0,0,0,0,0
631,1768830894304,-5,-65,3,0,0,0,0,0
632,1768830894854,-10,-73,15,0,0,0,0,0
633,1768830895137,-7,-93,11,0,0,0,0,0
634,1768830895254,-10,-97,20,0,0,0,0,0
635,1768830895620,24,-90,-9,0,0,0,0,0
636,1768830895720,-11,-106,20,0,0,0,0,0
637,1768830896087,30,-25,-8,0,0,0,0,0
638,1768830896336,-12,3,-5,0,0,0,0,0
639,1768830896553,-29,16,11,0,0,0,0,0
640,1768830897253,-5,61,2,0,0,0,0,0
641,1768830897604,-13,120,20,0,0,0,0,0
642,1768830898003,-35,140,18,0,0,0,0,0
643,1768830898370,-45,156,-2,0,0,0,0,0
644,1768830898503,4,156,9,0,0,0,0,0
645,1768830898920,29,124,17,0,0,0,0,0
646,1768830899020,-50,171,-30,0,0,0,0,0
647,1768830899387,-9,142,-17,0,0,0,0,0
648,1768830899620,-27,163,44,0,0,0,0,0
649,1768830899869,1,134,12,0,0,0,0,0
650,1768830900187,1,94,20,0,0,0,0,0
651,1768830900570,19,15,-20,0,0,0,0,0
652,1768830901087,-13,66,-16,0,0,0,0,0
653,1768830901536,-16,52,36,0,0,0,0,0
654,1768830901886,-3,157,29,0,0,0,0,0
655,1768830902154,-122,218,60,0,0,0,0,0
656,1768830902371,-57,435,-63,0,0,0,0,0
657,1768830902620,-79,377,-29,0,0,0,0,0
658,1768830902806,-12,391,-40,0,0,0,0,0
659,1768830903354,-97,364,-33,0,0,0,0,0
660,1768830903553,-16,294,75,0,0,0,0,0
661,1768830903620,42,208,8,0,0,0,0,0
662,1768830903953,-44,203,-10,0,0,0,0,0
663,1768830904103,12,171,-6,0,0,0,0,0
664,1768830904437,-32,132,-75,0,0,0,0,0
665,1768830905303,-2,110,-20,0,0,0,0,0
666,1768830905637,12,30,31,0,0,0,0,0
667,1768830905820,-25,-37,-70,0,0,0,0,0
668,1768830906103,-24,-50,36,0,0,0,0,0
669,1768830906521,-5,-12,-33,0,0,0,0,0
670,1768830906853,-8,-64,-18,0,0,0,0,0
671,1768830906969,-87,-105,2,0,0,0,0,0
672,1768830907387,-3,-117,9,0,0,0,0,0
673,1768830907471,39,-80,27,0,0,0,0,0
674,1768830907637,-10,43,5,0,0,0,0,0
675,1768830908070,-67,286,-12,0,0,0,0,0
676,1768830908321,-35,336,-20,0,0,0,0,0
677,1768830908619,-98,416,-16,0,0,0,0,0
678,1768830908888,-64,436,5,0,0,0,0,0
679,1768830909086,-70,378,17,0,0,0,0,0
680,1768830909704,-88,382,-16,0,0,0,0,0
681,1768830909836,-96,359,5,0,0,0,0,0
682,1768830910086,-76,325,-64,0,0,0,0,0
683,1768830910320,-18,350,-38,0,0,0,0,0
684,1768830910487,-66,306,0,0,0,0,0,0
685,1768830910736,-14,283,-6,0,0,0,0,0
686,1768830911037,-16,274,11,0,0,0,0,0
687,1768830911253,-14,261,-19,0,0,0,0,0
688,1768830911520,-39,255,3,0,0,0,0,0
689,1768830911888,-66,165,-17,0,0,0,0,0
690,1768830912119,-37,187,-2,0,0,0,0,0
691,1768830912220,-36,190,-9,0,0,0,0,0
692,1768830912655,-34,183,-16,0,0,0,0,0
693,1768830913237,-16,212,-12,0,0,0,0,0
694,1768830913537,-19,192,-8,0,0,0,0,0
695,1768830914037,-31,170,-1,0,0,0,0,0
696,1768830914504,-20,120,-9,0,0,0,0,0
697,1768830914837,-14,24,2,0,0,0,0,0
698,1768830915170,-4,31,2,0,0,0,0,0
699,1768830915320,-12,20,-2,0,0,0,0,0
700,1768830915655,-11,20,3,0,0,0,0,0
701,1768830915671,-13,16,1,0,0,0,0,0
702,1768830916136,-10,13,2,0,0,0,0,0
703,1768830916453,-7,18,2,0,0,0,0,0
704,1768830916586,-8,16,2,0,0,0,0,0
705,1768830916903,-11,16,1,0,0,0,0,0
706,1768830917038,-11,18,2,0,0,0,0,0
707,1768830917254,-12,17,1,0,0,0,0,0
708,1768830917436,-11,18,0,0,0,0,0,0
709,1768830917737,-10,17,1,0,0,0,0,0
710,1768830918187,-11,17,3,0,0,0,0,0
711,1768830918253,-11,18,3,0,0,0,0,0
712,1768830918603,-9,18,1,0,0,0,0,0
713,1768830918720,-9,17,0,0,0,0,0,0
714,1768830918936,-10,17,2,0,0,0,0,0
715,1768830919236,-9,17,1,0,0,0,0,0
716,1768830919570,-11,18,1,0,0,0,0,0
717,1768830919638,-11,17,0,0,0,0,0,0
718,1768830919704,-10,17,1,0,0,0,0,0
719,1768830920120,-9,19,1,0,0,0,0,0
720,1768830920404,-10,18,3,0,0,0,0,0
721,1768830920570,-10,18,1,0,0,0,0,0
722,1768830920687,-9,18,1,0,0,0,0,0
723,1768830921086,-10,17,2,0,0,0,0,0
724,1768830921320,-11,17,0,0,0,0,0,0
725,1768830921438,-10,19,-3,0,0,0,0,0
726,1768830921737,-11,17,-1,0,0,0,0,0
727,1768830921986,-12,17,1,0,0,0,0,0
728,1768830922270,-10,17,0,0,0,0,0,0
729,1768830922288,-10,17,0,0,0,0,0,0
730,1768830922720,-9,18,0,0,0,0,0,0
731,1768830922987,-8,16,1,0,0,0,0,0
732,1768830923203,-13,22,1,0,0,0,0,0
733,1768830923271,-19,20,1,0,0,0,0,0
734,1768830923687,-12,23,1,0,0,0,0,0
735,1768830923853,-8,18,4,0,0,0,0,0
736,1768830924020,-8,19,2,0,0,0,0,0
737,1768830924237,-12,20,1,0,0,0,0,0
738,1768830924438,-8,18,1,0,0,0,0,0
739,1768830924520,-6,18,2,0,0,0,0,0
740,1768830924853,-9,19,2,0,0,0,0,0
741,1768830924971,-11,18,2,0,0,0,0,0
742,1768830925203,-10,18,0,0,0,0,0,0
743,1768830925337,-9,19,3,0,0,0,0,0
744,1768830925370,-12,18,0,0,0,0,0,0
745,1768830925787,-13,17,1,0,0,0,0,0
746,1768830926071,-8,19,0,0,0,0,0,0
747,1768830926336,-16,19,0,0,0,0,0,0
748,1768830926637,-11,18,1,0,0,0,0,0
749,1768830926753,-10,20,0,0,0,0,0,0
750,1768830926870,-11,19,2,0,0,0,0,0
751,1768830927270,-12,22,2,0,0,0,0,0
752,1768830927503,-8,19,1,0,0,0,0,0
753,1768830927638,-7,18,0,0,0,0,0,0
754,1768830927970,-6,20,1,0,0,0,0,0
755,1768830928120,-10,15,5,0,0,0,0,0
756,1768830928436,-9,19,0,0,0,0,0,0
757,1768830928553,-10,21,3,0,0,0,0,0
758,1768830928936,-10,20,1,0,0,0,0,0
759,1768830929487,-4,20,2,0,0,0,0,0
760,1768830929719,-10,18,0,0,0,0,0,0
761,1768830930003,-8,15,0,0,0,0,0,0
762,1768830930537,-9,17,1,0,0,0,0,0
763,1768830930670,-10,16,0,0,0,0,0,0
764,1768830931004,-10,19,2,0,0,0,0,0
765,1768830931237,-9,18,1,0,0,0,0,0
766,1768830931405,-11,18,2,0,0,0,0,0
767,1768830931754,-7,18,-1,0,0,0,0,0
768,1768830931887,-8,15,1,0,0,0,0,0
769,1768830932253,-10,20,1,0,0,0,0,0
770,1768830932337,-11,16,1,0,0,0,0,0
771,1768830932721,-10,17,1,0,0,0,0,0
772,1768830932836,-9,16,1,0,0,0,0,0
773,1768830933087,-9,18,1,0,0,0,0,0
774,1768830933403,-11,18,1,0,0,0,0,0
775,1768830933670,-9,18,1,0,0,0,0,0
776,1768830933936,-8,17,1,0,0,0,0,0
777,1768830934453,-9,18,2,0,0,0,0,0
778,1768830934636,-11,17,0,0,0,0,0,0
779,1768830934837,-9,17,1,0,0,0,0,0
780,1768830935120,-9,18,1,0,0,0,0,0
781,1768830935304,-9,17,0,0,0,0,0,0
782,1768830935636,-10,19,1,0,0,0,0,0
783,1768830935753,-10,16,0,0,0,0,0,0
784,1768830936187,-11,18,1,0,0,0,0,0
785,1768830936571,-10,17,1,0,0,0,0,0
786,1768830936820,-13,18,0,0,0,0,0,0
787,1768830937053,-7,18,2,0,0,0,0,0
788,1768830937387,-9,16,3,0,0,0,0,0
789,1768830937637,-11,18,-1,0,0,0,0,0
790,1768830937853,-10,18,2,0,0,0,0,0
791,1768830938086,-10,17,2,0,0,0,0,0
792,1768830938220,-10,17,2,0,0,0,0,0
793,1768830938522,-11,18,0,0,0,0,0,0
794,1768830938822,-11,17,2,0,0,0,0,0
795,1768830939222,-10,17,1,0,0,0,0,0
796,1768830939320,-8,17,0,0,0,0,0,0
797,1768830939671,-10,16,1,0,0,0,0,0
798,1768830939770,-10,19,1,0,0,0,0,0
799,1768830940035,-10,18,1,0,0,0,0,0
800,1768830940286,-10,18,1,0,0,0,0,0
801,1768830940436,-9,17,2,0,0,0,0,0
802,1768830940721,-9,18,2,0,0,0,0,0
803,1768830940955,-12,18,2,0,0,0,0,0
804,1768830941203,-10,18,2,0,0,0,0,0
805,1768830941437,-10,18,1,0,0,0,0,0
806,1768830941654,-11,17,2,0,0,0,0,0
807,1768830941802,-12,18,1,0,0,0,0,0
808,1768830942271,-10,18,2,0,0,0,0,0
809,1768830942622,-9,16,1,0,0,0,0,0
810,1768830942721,-9,18,1,0,0,0,0,0
811,1768830943038,-11,18,2,0,0,0,0,0
812,1768830943505,-10,18,3,0,0,0,0,0
813,1768830943538,-9,18,2,0,0,0,0,0
814,1768830943853,-10,18,1,0,0,0,0,0
815,1768830944121,-10,18,2,0,0,0,0,0
816,1768830944337,-10,17,1,0,0,0,0,0
817,1768830944436,-9,17,0,0,0,0,0,0
818,1768830944670,-9,16,1,0,0,0,0,0
819,1768830944887,-8,18,0,0,0,0,0,0
820,1768830945122,-11,19,2,0,0,0,0,0
821,1768830945621,-10,18,2,0,0,0,0,0
822,1768830945837,-9,17,0,0,0,0,0,0
823,1768830946086,-10,17,2,0,0,0,0,0
824,1768830946303,-11,18,1,0,0,0,0,0
825,1768830946570,-10,17,1,0,0,0,0,0
826,1768830946787,-9,18,1,0,0,0,0,0
827,1768830947053,-9,17,1,0,0,0,0,0
828,1768830947120,-10,16,2,0,0,0,0,0
829,1768830947336,-10,17,1,0,0,0,0,0
830,1768830947636,-9,17,1,0,0,0,0,0
831,1768830947887,-10,18,2,0,0,0,0,0
832,1768830948119,-11,17,2,0,0,0,0,0
833,1768830948386,-12,16,2,0,0,0,0,0
834,1768830948587,-11,18,1,0,0,0,0,0
835,1768830949070,-9,17,1,0,0,0,0,0
836,1768830949303,-8,18,1,0,0,0,0,0
837,1768830949554,-8,19,1,0,0,0,0,0
838,1768830949821,-10,18,1,0,0,0,0,0
839,1768830950054,-12,18,1,0,0,0,0,0
840,1768830950304,-9,18,2,0,0,0,0,0
841,1768830950587,-10,18,1,0,0,0,0,0
842,1768830950639,-11,17,0,0,0,0,0,0
843,1768830950887,-10,18,1,0,0,0,0,0
844,1768830951087,-10,18,2,0,0,0,0,0
845,1768830951370,-11,17,2,0,0,0,0,0
846,1768830951820,-10,17,0,0,0,0,0,0
847,1768830952103,-11,20,1,0,0,0,0,0
848,1768830952454,-10,17,1,0,0,0,0,0
849,1768830952554,-11,18,1,0,0,0,0,0
850,1768830953036,-11,18,2,0,0,0,0,0
851,1768830953288,-9,16,1,0,0,0,0,0
852,1768830953521,-9,19,1,0,0,0,0,0
853,1768830953670,-10,17,1,0,0,0,0,0
854,1768830953754,-10,18,1,0,0,0,0,0
855,1768830954054,-11,18,0,0,0,0,0,0
856,1768830954137,-10,17,2,0,0,0,0,0
857,1768830954371,-10,19,0,0,0,0,0,0
858,1768830954588,-10,18,2,0,0,0,0,0
859,1768830954820,-10,18,1,0,0,0,0,0
860,1768830955119,-10,17,2,0,0,0,0,0
861,1768830955421,-12,18,0,0,0,0,0,0
862,1768830955772,-11,17,1,0,0,0,0,0
863,1768830956137,-11,18,0,0,0,0,0,0
864,1768830956404,-8,19,2,0,0,0,0,0
865,1768830956736,-11,16,3,0,0,0,0,0
866,1768830956857,-10,18,1,0,0,0,0,0
867,1768830957020,-8,18,1,0,0,0,0,0
868,1768830957253,-10,17,1,0,0,0,0,0
869,1768830957402,-9,17,1,0,0,0,0,0
870,1768830957586,-9,18,1,0,0,0,0,0
871,1768830958020,-9,16,1,0,0,0,0,0
872,1768830958105,-9,16,1,0,0,0,0,0
873,1768830958287,-9,19,2,0,0,0,0,0
874,1768830958535,-9,18,1,0,0,0,0,0
875,1768830959019,-10,18,1,0,0,0,0,0
876,1768830959270,-9,18,2,0,0,0,0,0
877,1768830959436,-11,18,0,0,0,0,0,0
878,1768830959520,-8,17,1,0,0,0,0,0
879,1768830959837,-9,17,2,0,0,0,0,0
880,1768830959988,-11,18,1,0,0,0,0,0
881,1768830960087,-11,17,0,0,0,0,0,0
882,1768830960388,-8,18,1,0,0,0,0,0
883,1768830960687,-9,18,1,0,0,0,0,0
884,1768830960920,-8,17,1,0,0,0,0,0
885,1768830961237,-10,17,2,0,0,0,0,0
886,1768830961754,-10,17,1,0,0,0,0,0
887,1768830962020,-10,17,1,0,0,0,0,0
888,1768830962104,-10,18,1,0,0,0,0,0
889,1768830962336,-9,19,2,0,0,0,0,0
890,1768830962671,-10,17,1,0,0,0,0,0
891,1768830962803,-9,17,1,0,0,0,0,0
892,1768830963122,-10,17,1,0,0,0,0,0
893,1768830963538,-8,17,2,0,0,0,0,0
894,1768830963653,-10,18,1,0,0,0,0,0
895,1768830964070,-8,17,2,0,0,0,0,0
896,1768830964171,-9,18,2,0,0,0,0,0
897,1768830964472,-10,18,1,0,0,0,0,0
898,1768830964688,-12,20,1,0,0,0,0,0
899,1768830965020,-11,17,1,0,0,0,0,0
900,1768830965238,-10,17,1,0,0,0,0,0
901,1768830965455,-11,18,1,0,0,0,0,0
902,1768830965620,-10,18,2,0,0,0,0,0
903,1768830965921,-10,17,2,0,0,0,0,0
904,1768830966172,-9,18,2,0,0,0,0,0
905,1768830966655,-11,18,2,0,0,0,0,0
906,1768830966786,-9,17,1,0,0,0,0,0
907,1768830967105,-11,18,1,0,0,0,0,0
908,1768830967436,-10,18,0,0,0,0,0,0
909,1768830967805,-10,18,1,0,0,0,0,0
910,1768830967905,-10,18,1,0,0,0,0,0
911,1768830968371,-11,17,2,0,0,0,0,0
912,1768830968721,-11,17,1,0,0,0,0,0
913,1768830969120,-9,18,1,0,0,0,0,0
914,1768830969238,-11,18,1,0,0,0,0,0
915,1768830969521,-9,17,1,0,0,0,0,0
916,1768830969603,-10,18,2,0,0,0,0,0
917,1768830969788,-10,18,2,0,0,0,0,0
918,1768830970005,-9,17,0,0,0,0,0,0
919,1768830970070,-11,17,0,0,0,0,0,0
920,1768830970422,-12,17,1,0,0,0,0,0
921,1768830970621,-11,20,1,0,0,0,0,0
922,1768830970820,-8,16,3,0,0,0,0,0
923,1768830970888,-10,17,2,0,0,0,0,0
924,1768830971188,-9,18,3,0,0,0,0,0
925,1768830971355,-9,16,3,0,0,0,0,0
926,1768830971704,-10,17,2,0,0,0,0,0
927,1768830971819,-10,19,3,0,0,0,0,0
928,1768830972153,-11,18,1,0,0,0,0,0
929,1768830972638,-9,17,-1,0,0,0,0,0
930,1768830972737,-10,16,2,0,0,0,0,0
931,1768830973004,-12,18,1,0,0,0,0,0
932,1768830973088,-9,17,1,0,0,0,0,0
933,1768830973338,-10,17,1,0,0,0,0,0
934,1768830973722,-11,17,1,0,0,0,0,0
935,1768830974038,-11,18,1,0,0,0,0,0
936,1768830974354,-9,16,2,0,0,0,0,0
937,1768830974521,-10,17,1,0,0,0,0,0
938,1768830974722,-13,18,1,0,0,0,0,0
939,1768830974986,-10,17,2,0,0,0,0,0
940,1768830975222,-10,17,1,0,0,0,0,0
941,1768830975486,-9,19,1,0,0,0,0,0
942,1768830975672,-8,17,1,0,0,0,0,0
943,1768830975838,-10,18,2,0,0,0,0,0
944,1768830976122,-11,17,2,0,0,0,0,0
945,1768830976321,-10,18,2,0,0,0,0,0
946,1768830976588,-11,17,1,0,0,0,0,0
947,1768830976838,-10,17,1,0,0,0,0,0
948,1768830977353,-10,18,1,0,0,0,0,0
949,1768830977689,-10,17,1,0,0,0,0,0
950,1768830977771,-10,17,2,0,0,0,0,0
951,1768830977988,-10,17,1,0,0,0,0,0
952,1768830978186,-11,16,2,0,0,0,0,0
953,1768830978421,-10,17,2,0,0,0,0,0
954,1768830978655,-11,18,0,0,0,0,0,0
955,1768830979022,-9,18,1,0,0,0,0,0
956,1768830979354,-8,17,1,0,0,0,0,0
957,1768830979489,-10,18,2,0,0,0,0,0
958,1768830979820,-10,18,0,0,0,0,0,0
959,1768830979955,-10,17,2,0,0,0,0,0
960,1768830981953,-9,17,1,0,0,0,0,0
961,1768830982070,-10,17,1,0,0,0,0,0
962,1768830982255,-9,18,2,0,0,0,0,0
963,1768830982419,-11,18,3,0,0,0,0,0
964,1768830982537,-10,18,1,0,0,0,0,0
965,1768830982770,-11,18,0,0,0,0,0,0
966,1768830982855,-10,17,0,0,0,0,0,0
967,1768830983086,-10,18,2,0,0,0,0,0
968,1768830983219,-11,17,1,0,0,0,0,0
969,1768830983571,-10,17,3,0,0,0,0,0
970,1768830983738,-10,18,-1,0,0,0,0,0
971,1768830984305,-10,17,2,0,0,0,0,0
972,1768830984421,-11,16,3,0,0,0,0,0
973,1768830984788,-9,19,1,0,0,0,0,0
974,1768830985039,-9,18,1,0,0,0,0,0
975,1768830985303,-8,18,1,0,0,0,0,0
976,1768830985436,-11,17,2,0,0,0,0,0
977,1768830985688,-11,19,1,0,0,0,0,0
978,1768830985972,-10,18,1,0,0,0,0,0
979,1768830986104,-10,18,1,0,0,0,0,0
980,1768830986436,-11,19,3,0,0,0,0,0
981,1768830986602,-8,16,1,0,0,0,0,0
982,1768830987054,-10,17,2,0,0,0,0,0
983,1768830987155,-10,17,2,0,0,0,0,0
984,1768830987554,-10,17,1,0,0,0,0,0
985,1768830987636,-10,17,2,0,0,0,0,0
986,1768830987702,-11,18,2,0,0,0,0,0
987,1768830987920,-11,18,1,0,0,0,0,0
988,1768830988268,-10,17,1,0,0,0,0,0
989,1768830988405,-9,17,1,0,0,0,0,0
990,1768830988669,-10,17,1,0,0,0,0,0
991,1768830988786,-11,18,2,0,0,0,0,0
992,1768830989136,-11,18,1,0,0,0,0,0
993,1768830989470,-11,18,1,0,0,0,0,0
994,1768830989587,-11,17,2,0,0,0,0,0
995,1768830989935,-10,19,0,0,0,0,0,0
996,1768830990286,-8,18,1,0,0,0,0,0
997,1768830990752,-11,17,0,0,0,0,0,0
998,1768830990903,-9,18,1,0,0,0,0,0
999,1768830991137,-10,18,1,0,0,0,0,0
1000,1768830991270,-9,18,2,0,0,0,0,0
1001,1768830991586,-11,17,2,0,0,0,0,0
1002,1768830991836,-9,17,1,0,0,0,0,0
1003,1768830992103,-9,18,2,0,0,0,0,0
1004,1768830992302,-11,18,0,0,0,0,0,0
1005,1768830992620,-10,18,1,0,0,0,0,0
1006,1768830992702,-11,18,1,0,0,0,0,0
1007,1768830993019,-9,16,1,0,0,0,0,0
1008,1768830993204,-9,17,1,0,0,0,0,0
1009,1768830993488,-10,17,1,0,0,0,0,0
1010,1768830993571,-9,17,1,0,0,0,0,0
1011,1768830993937,-9,18,1,0,0,0,0,0
1012,1768830994072,-10,19,1,0,0,0,0,0
1013,1768830994202,-10,18,2,0,0,0,0,0
1014,1768830994453,-10,18,2,0,0,0,0,0
1015,1768830994686,-10,19,1,0,0,0,0,0
1016,1768830994821,-10,17,2,0,0,0,0,0
1017,1768830995054,-10,18,1,0,0,0,0,0
1018,1768830995338,-10,18,2,0,0,0,0,0
1019,1768830995538,-9,17,2,0,0,0,0,0
1020,1768830995688,-10,18,1,0,0,0,0,0
1021,1768830995938,-10,18,1,0,0,0,0,0
1022,1768830996055,-9,18,2,0,0,0,0,0
1023,1768830996205,-9,19,1,0,0,0,0,0
1024,1768830996671,-11,17,0,0,0,0,0,0
1025,1768830996955,-11,17,1,0,0,0,0,0
1026,1768830997238,-12,17,1,0,0,0,0,0
1027,1768830997403,-10,19,2,0,0,0,0,0
1028,1768830997869,-10,19,1,0,0,0,0,0
1029,1768830998188,-9,17,1,0,0,0,0,0
1030,1768830998238,-11,18,1,0,0,0,0,0
1031,1768830998686,-11,17,2,0,0,0,0,0
1032,1768830998953,-10,17,2,0,0,0,0,0
1033,1768830999121,-11,18,1,0,0,0,0,0
1034,1768830999221,-9,19,1,0,0,0,0,0
1035,1768830999518,-11,17,2,0,0,0,0,0
1036,1768830999618,-10,18,1,0,0,0,0,0
1037,1768830999836,-10,18,1,0,0,0,0,0
1038,1768831000237,-9,18,1,0,0,0,0,0
1039,1768831000354,-9,18,1,0,0,0,0,0
1040,1768831000486,-12,17,1,0,0,0,0,0
1041,1768831000822,-11,18,2,0,0,0,0,0
1042,1768831000868,-12,16,2,0,0,0,0,0
1043,1768831001270,-9,18,2,0,0,0,0,0
1044,1768831001504,-10,17,0,0,0,0,0,0
1045,1768831001788,-10,19,1,0,0,0,0,0
1046,1768831002087,-10,18,0,0,0,0,0,0
1047,1768831002387,-10,19,1,0,0,0,0,0
1048,1768831002671,-9,17,2,0,0,0,0,0
1049,1768831002969,-12,18,2,0,0,0,0,0
1050,1768831003119,-9,18,3,0,0,0,0,0
1051,1768831003237,-11,19,0,0,0,0,0,0
1052,1768831003635,-10,18,2,0,0,0,0,0
1053,1768831003803,-10,17,1,0,0,0,0,0
1054,1768831003936,-10,17,1,0,0,0,0,0
1055,1768831004186,-11,18,1,0,0,0,0,0
1056,1768831004352,-10,17,0,0,0,0,0,0
1057,1768831004452,-12,18,1,0,0,0,0,0
1058,1768831004736,-11,17,1,0,0,0,0,0
1059,1768831004952,-11,17,0,0,0,0,0,0
1060,1768831005403,-9,17,2,0,0,0,0,0
1061,1768831005853,-11,17,0,0,0,0,0,0
1062,1768831006118,-9,17,2,0,0,0,0,0
1063,1768831006368,-10,17,1,0,0,0,0,0
1064,1768831006702,-9,18,3,0,0,0,0,0
1065,1768831006935,-11,17,2,0,0,0,0,0
1066,1768831007117,-10,18,2,0,0,0,0,0
1067,1768831007218,-12,18,1,0,0,0,0,0
1068,1768831007669,-8,18,1,0,0,0,0,0
1069,1768831007802,-10,18,1,0,0,0,0,0
1070,1768831007937,-10,18,1,0,0,0,0,0
1071,1768831008169,-11,19,1,0,0,0,0,0
1072,1768831008502,-11,18,1,0,0,0,0,0
1073,1768831008735,-11,18,1,0,0,0,0,0
1074,1768831009019,-11,17,1,0,0,0,0,0
1075,1768831009253,-10,18,2,0,0,0,0,0
1076,1768831009370,-10,19,2,0,0,0,0,0
1077,1768831009687,-11,17,0,0,0,0,0,0
1078,1768831009902,-11,18,1,0,0,0,0,0
1079,1768831010201,-11,17,1,0,0,0,0,0
1080,1768831010503,-12,18,2,0,0,0,0,0
1081,1768831010671,-10,18,2,0,0,0,0,0
1082,1768831011153,-9,17,1,0,0,0,0,0
1083,1768831011620,-10,18,2,0,0,0,0,0
1084,1768831011904,-9,20,2,0,0,0,0,0
1085,1768831012153,-10,18,1,0,0,0,0,0
1086,1768831012420,-10,19,1,0,0,0,0,0
1087,1768831012686,-11,19,1,0,0,0,0,0
1088,1768831012786,-9,18,0,0,0,0,0,0
1089,1768831013269,-11,17,1,0,0,0,0,0
1090,1768831013602,-11,17,2,0,0,0,0,0
1091,1768831013786,-10,18,1,0,0,0,0,0
1092,1768831014270,-11,18,1,0,0,0,0,0
1093,1768831014536,-10,19,1,0,0,0,0,0
1094,1768831014770,-11,17,1,0,0,0,0,0
1095,1768831015020,-11,17,1,0,0,0,0,0
1096,1768831015202,-11,17,2,0,0,0,0,0
1097,1768831015485,-10,18,0,0,0,0,0,0
1098,1768831015736,-10,19,2,0,0,0,0,0
1099,1768831015987,-9,17,1,0,0,0,0,0
1100,1768831016188,-11,17,2,0,0,0,0,0
1101,1768831016571,-10,18,2,0,0,0,0,0
1102,1768831016737,-11,18,5,0,0,0,0,0
1103,1768831017220,-11,18,0,0,0,0,0,0
1104,1768831017536,-8,18,2,0,0,0,0,0
1105,1768831017754,-9,18,2,0,0,0,0,0
1106,1768831017903,-9,18,2,0,0,0,0,0
1107,1768831018320,-9,16,2,0,0,0,0,0
1108,1768831018537,-10,17,2,0,0,0,0,0
1109,1768831018770,-10,20,1,0,0,0,0,0
1110,1768831019221,-8,18,0,0,0,0,0,0
1111,1768831019420,-11,18,1,0,0,0,0,0
1112,1768831019703,-12,17,1,0,0,0,0,0
1113,1768831020003,-11,18,1,0,0,0,0,0
1114,1768831020202,-9,17,1,0,0,0,0,0
1115,1768831020452,-10,19,1,0,0,0,0,0
1116,1768831020720,-10,18,1,0,0,0,0,0
1117,1768831021020,-10,18,2,0,0,0,0,0
1118,1768831021287,-11,18,1,0,0,0,0,0
1119,1768831021536,-12,18,1,0,0,0,0,0
1120,1768831021786,-9,18,1,0,0,0,0,0
1121,1768831021887,-9,19,1,0,0,0,0,0
1122,1768831022137,-10,17,1,0,0,0,0,0
1123,1768831022402,-13,18,1,0,0,0,0,0
1124,1768831022668,-9,17,-1,0,0,0,0,0
1125,1768831023120,-9,18,2,0,0,0,0,0
1126,1768831023470,-10,18,2,0,0,0,0,0
1127,1768831023803,-11,17,0,0,0,0,0,0
1128,1768831023954,-11,18,2,0,0,0,0,0
1129,1768831024520,-12,19,0,0,0,0,0,0
1130,1768831024670,-8,20,1,0,0,0,0,0
1131,1768831024737,-12,18,1,0,0,0,0,0
1132,1768831025187,-8,16,1,0,0,0,0,0
1133,1768831025519,-11,18,1,0,0,0,0,0
1134,1768831025602,-11,17,2,0,0,0,0,0
1135,1768831025670,-10,18,1,0,0,0,0,0
1136,1768831026001,-10,18,2,0,0,0,0,0
1137,1768831026536,-53,42,-27,0,0,0,0,0
1138,1768831026736,28,15,0,0,0,0,0,0
1139,1768831027020,9,5,-9,0,0,0,0,0
1140,1768831027270,-21,39,11,0,0,0,0,0
1141,1768831027737,-34,1,9,0,0,0,0,0
1142,1768831028170,41,41,-45,0,0,0,0,0
1143,1768831028237,-9,30,48,0,0,0,0,0
1144,1768831028304,-7,9,28,0,0,0,0,0
1145,1768831028651,0,0,-7,0,0,0,0,0
1146,1768831029119,-26,20,-10,0,0,0,0,0
1147,1768831029453,-85,84,10,0,0,0,0,0
1148,1768831029687,4,15,14,0,0,0,0,0
1149,1768831029937,22,13,-6,0,0,0,0,0
1150,1768831030301,12,-30,36,0,0,0,0,0
1151,1768831030601,48,-32,4,0,0,0,0,0
1152,1768831030851,-7,-36,0,0,0,0,0,0
1153,1768831031103,4,-42,3,0,0,0,0,0
1154,1768831031403,-37,33,-23,0,0,0,0,0
1155,1768831031571,-97,102,16,0,0,0,0,0
1156,1768831032086,-37,67,-15,0,0,0,0,0
1157,1768831032321,-126,59,-52,0,0,0,0,0
1158,1768831032636,82,75,94,0,0,0,0,0
1159,1768831032803,-67,32,-58,0,0,0,0,0
1160,1768831033137,-44,49,-49,0,0,0,0,0
1161,1768831033219,38,-203,-38,0,0,0,0,0
1162,1768831033304,-6,43,46,0,0,0,0,0
1163,1768831033603,6,50,-57,0,0,0,0,0
1164,1768831033686,34,-36,-29,0,0,0,0,0
1165,1768831033903,-1,-36,-228,0,0,0,0,0
1166,1768831034487,-14,166,44,0,0,0,0,0
1167,1768831034653,-47,154,0,0,0,0,0,0
1168,1768831034853,-14,167,-29,0,0,0,0,0
1169,1768831035137,-14,108,-21,0,0,0,0,0
1170,1768831035303,-4,126,0,0,0,0,0,0
1171,1768831035753,-43,-20,44,0,0,0,0,0
1172,1768831036137,3,-173,-30,0,0,0,0,0
1173,1768831036586,30,-193,40,0,0,0,0,0
1174,1768831037051,-38,-197,13,0,0,0,0,0
1175,1768831037401,-2,-280,21,0,0,0,0,0
1176,1768831037904,-30,-271,29,0,0,0,0,0
1177,1768831038270,-1,271,44,0,0,0,0,0
1178,1768831038520,-54,475,-3,0,0,0,0,0
1179,1768831038720,-30,663,-27,0,0,0,0,0
1180,1768831038820,-109,814,-26,0,0,0,0,0
1181,1768831039137,-58,607,5,0,0,0,0,0
1182,1768831039220,-87,649,-21,0,0,0,0,0
1183,1768831039570,-95,552,-35,0,0,0,0,0
1184,1768831039851,-54,483,-34,0,0,0,0,0
1185,1768831040153,-18,463,-24,0,0,0,0,0
1186,1768831040353,-6,445,-37,0,0,0,0,0
1187,1768831040602,-12,421,-24,0,0,0,0,0
1188,1768831040903,-17,324,-37,0,0,0,0,0
1189,1768831041370,-41,228,-21,0,0,0,0,0
1190,1768831041703,-33,131,-6,0,0,0,0,0
1191,1768831041886,-21,102,-7,0,0,0,0,0
1192,1768831042203,-30,26,10,0,0,0,0,0
1193,1768831042502,-19,18,-3,0,0,0,0,0
1194,1768831042670,-17,13,-1,0,0,0,0,0
1195,1768831042753,-9,21,0,0,0,0,0,0
1196,1768831043170,-11,14,1,0,0,0,0,0
1197,1768831043370,-11,18,1,0,0,0,0,0
1198,1768831043521,-8,16,2,0,0,0,0,0
1199,1768831043769,-12,20,2,0,0,0,0,0
1200,1768831044037,-13,17,1,0,0,0,0,0
1201,1768831044385,-9,14,1,0,0,0,0,0
1202,1768831044487,-8,14,2,0,0,0,0,0
1203,1768831044887,-11,19,1,0,0,0,0,0
1204,1768831045220,-10,17,1,0,0,0,0,0
1205,1768831045454,-9,19,1,0,0,0,0,0
1206,1768831045619,-10,17,1,0,0,0,0,0
1207,1768831045736,-11,17,0,0,0,0,0,0
1208,1768831046036,-9,17,2,0,0,0,0,0
1209,1768831046070,-10,17,2,0,0,0,0,0
1210,1768831046286,-10,17,2,0,0,0,0,0
1211,1768831046620,-8,17,2,0,0,0,0,0
1212,1768831046670,-10,18,1,0,0,0,0,0
1213,1768831047120,-11,17,1,0,0,0,0,0
1214,1768831047287,-10,19,2,0,0,0,0,0
1215,1768831047587,-10,18,1,0,0,0,0,0
1216,1768831047720,-8,18,1,0,0,0,0,0
1217,1768831047870,-9,17,2,0,0,0,0,0
1218,1768831048103,-10,18,2,0,0,0,0,0
1219,1768831048453,-10,17,1,0,0,0,0,0
1220,1768831048903,-10,18,1,0,0,0,0,0
1221,1768831049153,-9,18,2,0,0,0,0,0
1222,1768831049402,-9,17,1,0,0,0,0,0
1223,1768831049652,-9,19,1,0,0,0,0,0
1224,1768831049920,-9,19,3,0,0,0,0,0
1225,1768831050103,-8,19,3,0,0,0,0,0
1226,1768831050402,-9,16,7,0,0,0,0,0
1227,1768831050486,-8,16,1,0,0,0,0,0
1228,1768831050954,-10,18,2,0,0,0,0,0
1229,1768831051286,-9,17,1,0,0,0,0,0
1230,1768831051420,-11,19,1,0,0,0,0,0
1231,1768831051737,-8,18,1,0,0,0,0,0
1232,1768831051853,-9,17,1,0,0,0,0,0
1233,1768831052102,-11,18,1,0,0,0,0,0
1234,1768831052386,-10,17,1,0,0,0,0,0
1235,1768831052570,-11,17,2,0,0,0,0,0
1236,1768831052920,-10,17,2,0,0,0,0,0
1237,1768831053037,-11,18,1,0,0,0,0,0
1238,1768831053336,-12,20,1,0,0,0,0,0
1239,1768831053487,-9,18,1,0,0,0,0,0
1240,1768831053836,-11,18,1,0,0,0,0,0
1241,1768831054335,-11,18,1,0,0,0,0,0
1242,1768831054586,-9,18,1,0,0,0,0,0
1243,1768831054953,-10,17,1,0,0,0,0,0
1244,1768831055186,-7,19,1,0,0,0,0,0
1245,1768831055436,-9,18,1,0,0,0,0,0
1246,1768831055669,-11,18,1,0,0,0,0,0
1247,1768831056020,-9,18,1,0,0,0,0,0
1248,1768831056504,-9,18,1,0,0,0,0,0
1249,1768831056836,-8,17,2,0,0,0,0,0
1250,1768831057401,-9,16,4,0,0,0,0,0
1251,1768831057937,-3,-10,2,0,0,0,0,0
1252,1768831058086,-9,-14,3,0,0,0,0,0
1253,1768831058436,-4,-18,0,0,0,0,0,0
1254,1768831058920,-8,11,-4,0,0,0,0,0
1255,1768831059253,-9,17,8,0,0,0,0,0
1256,1768831059453,-9,19,2,0,0,0,0,0
1257,1768831059776,-13,24,3,0,0,0,0,0
1258,1768831059935,-12,35,-5,0,0,0,0,0
1259,1768831060186,-15,42,4,0,0,0,0,0
1260,1768831060486,-17,59,0,0,0,0,0,0
1261,1768831060702,-18,75,0,0,0,0,0,0
1262,1768831060953,-19,74,1,0,0,0,0,0
1263,1768831061035,-14,72,-5,0,0,0,0,0
1264,1768831061402,-11,68,-3,0,0,0,0,0
1265,1768831061584,-15,68,-4,0,0,0,0,0
1266,1768831061853,-14,58,-1,0,0,0,0,0
1267,1768831062103,-16,65,5,0,0,0,0,0
1268,1768831062186,-10,65,3,0,0,0,0,0
1269,1768831062403,-20,67,0,0,0,0,0,0
1270,1768831062619,-21,57,5,0,0,0,0,0
1271,1768831062936,-13,58,4,0,0,0,0,0
1272,1768831063119,-18,63,2,0,0,0,0,0
1273,1768831063453,-10,59,-2,0,0,0,0,0
1274,1768831063469,-15,72,0,0,0,0,0,0
1275,1768831063803,-13,80,253,0,0,0,0,0
1276,1768831064053,-27,95,-4,0,0,0,0,0
1277,1768831064336,-26,100,0,0,0,0,0,0
1278,1768831064602,-24,105,-6,0,0,0,0,0
1279,1768831064819,-28,96,3,0,0,0,0,0
1280,1768831065135,-21,94,-5,0,0,0,0,0
1281,1768831065285,-30,107,2,0,0,0,0,0
1282,1768831065635,-30,108,-14,0,0,0,0,0
1283,1768831065752,-29,111,2,0,0,0,0,0
1284,1768831065985,-27,112,-10,0,0,0,0,0
1285,1768831066452,-30,115,-12,0,0,0,0,0
1286,1768831066668,-30,117,-3,0,0,0,0,0
1287,1768831066918,-28,118,-2,0,0,0,0,0
1288,1768831067218,-22,128,-7,0,0,0,0,0
1289,1768831067285,-34,135,-6,0,0,0,0,0
1290,1768831067701,-19,125,2,0,0,0,0,0
1291,1768831067785,-21,114,-8,0,0,0,0,0
1292,1768831068153,-24,120,-5,0,0,0,0,0
1293,1768831068251,-28,113,-10,0,0,0,0,0
1294,1768831068502,-16,105,0,0,0,0,0,0
1295,1768831068984,-17,79,-1,0,0,0,0,0
1296,1768831069435,-7,47,2,0,0,0,0,0
1297,1768831069719,-6,25,-4,0,0,0,0,0
1298,1768831069803,-11,18,0,0,0,0,0,0
1299,1768831070235,-6,18,0,0,0,0,0,0
1300,1768831070519,-5,16,1,0,0,0,0,0
1301,1768831070762,-11,16,1,0,0,0,0,0
1302,1768831070903,-8,18,2,0,0,0,0,0
1303,1768831071169,-13,16,2,0,0,0,0,0
1304,1768831071550,-10,18,-1,0,0,0,0,0
1305,1768831071652,-9,19,1,0,0,0,0,0
1306,1768831072019,-11,18,0,0,0,0,0,0
1307,1768831072102,-9,18,0,0,0,0,0,0
1308,1768831072335,-11,17,1,0,0,0,0,0
1309,1768831072586,-11,17,1,0,0,0,0,0
1310,1768831072850,-7,17,1,0,0,0,0,0
1311,1768831073119,-11,18,2,0,0,0,0,0
1312,1768831073334,-32,-15,4,0,0,0,0,0
1313,1768831073701,-9,20,-3,0,0,0,0,0
1314,1768831074167,-5,190,-4,0,0,0,0,0
1315,1768831074550,-40,61,-14,0,0,0,0,0
1316,1768831074652,10,203,16,0,0,0,0,0
1317,1768831074968,-20,297,20,0,0,0,0,0
1318,1768831075036,5,329,7,0,0,0,0,0
1319,1768831075303,-14,368,9,0,0,0,0,0
1320,1768831075487,-45,413,-9,0,0,0,0,0
1321,1768831075651,-52,427,10,0,0,0,0,0
1322,1768831075970,-34,404,-26,0,0,0,0,0
1323,1768831076187,-53,360,-29,0,0,0,0,0
1324,1768831076672,-4,110,-16,0,0,0,0,0
1325,1768831076921,-19,81,-25,0,0,0,0,0
1326,1768831077203,-21,41,23,0,0,0,0,0
1327,1768831077403,-18,52,-4,0,0,0,0,0
1328,1768831077583,-21,30,-8,0,0,0,0,0
1329,1768831077801,26,3,-17,0,0,0,0,0
1330,1768831078068,-14,11,-4,0,0,0,0,0
1331,1768831078287,10,3,-23,0,0,0,0,0
1332,1768831078536,2,0,28,0,0,0,0,0
1333,1768831078703,8,6,4,0,0,0,0,0
1334,1768831078903,-21,-11,16,0,0,0,0,0
1335,1768831079303,-18,10,-12,0,0,0,0,0
1336,1768831079453,-38,27,4,0,0,0,0,0
1337,1768831079785,18,-6,-16,0,0,0,0,0
1338,1768831079903,-16,-9,16,0,0,0,0,0
1339,1768831080135,-17,8,-17,0,0,0,0,0
1340,1768831080353,-37,-5,-24,0,0,0,0,0
1341,1768831080587,5,18,-16,0,0,0,0,0
1342,1768831081037,7,-12,4,0,0,0,0,0
1343,1768831081136,-12,-37,5,0,0,0,0,0
1344,1768831081202,11,-21,10,0,0,0,0,0
1345,1768831081435,-17,-12,-2,0,0,0,0,0
1346,1768831081870,-25,26,-5,0,0,0,0,0
1347,1768831081969,-16,1,-3,0,0,0,0,0
1348,1768831082235,-34,13,-6,0,0,0,0,0
1349,1768831082469,56,-17,-13,0,0,0,0,0
1350,1768831082652,-71,69,-6,0,0,0,0,0
1351,1768831082984,42,39,22,0,0,0,0,0
1352,1768831083052,-3,61,6,0,0,0,0,0
1353,1768831083136,-15,-12,13,0,0,0,0,0
1354,1768831083601,-14,92,-7,0,0,0,0,0
1355,1768831083817,8,-18,2,0,0,0,0,0
1356,1768831084101,-4,16,10,0,0,0,0,0
1357,1768831084486,-12,30,-3,0,0,0,0,0
1358,1768831084686,-1,30,0,0,0,0,0,0
1359,1768831084834,-2,12,1,0,0,0,0,0
1360,1768831085118,-8,19,7,0,0,0,0,0
1361,1768831085352,-22,35,4,0,0,0,0,0
1362,1768831085684,-9,30,-2,0,0,0,0,0
1363,1768831085968,-8,22,8,0,0,0,0,0
1364,1768831086134,-5,22,2,0,0,0,0,0
1365,1768831086384,-9,17,0,0,0,0,0,0
1366,1768831086589,-21,80,-17,0,0,0,0,0
1367,1768831086852,-57,21,4,0,0,0,0,0
1368,1768831087153,-28,0,11,0,0,0,0,0
1369,1768831087452,-21,-18,1,0,0,0,0,0
1370,1768831087919,2,4,1,0,0,0,0,0
1371,1768831088235,-16,27,7,0,0,0,0,0
1372,1768831088401,-15,16,-12,0,0,0,0,0
1373,1768831088634,-6,20,1,0,0,0,0,0
1374,1768831089100,-12,19,-1,0,0,0,0,0
1375,1768831089284,-14,15,0,0,0,0,0,0
1376,1768831089601,-6,14,6,0,0,0,0,0
1377,1768831089785,-6,18,4,0,0,0,0,0
1378,1768831090034,-11,15,2,0,0,0,0,0
1379,1768831090320,-10,19,0,0,0,0,0,0
1380,1768831090536,-8,16,3,0,0,0,0,0
1381,1768831090703,-9,15,0,0,0,0,0,0
1382,1768831091018,-11,17,1,0,0,0,0,0
1383,1768831091203,-9,18,1,0,0,0,0,0
1384,1768831091570,-10,18,1,0,0,0,0,0
1385,1768831091702,-10,16,2,0,0,0,0,0
1386,1768831092101,-12,18,1,0,0,0,0,0
1387,1768831092169,-12,19,1,0,0,0,0,0
1388,1768831092436,-10,15,1,0,0,0,0,0
1389,1768831092807,-7,17,2,0,0,0,0,0
1390,1768831092953,-7,18,2,0,0,0,0,0
1391,1768831093201,-11,16,1,0,0,0,0,0
1392,1768831093417,-10,17,2,0,0,0,0,0
1393,1768831093817,-11,17,1,0,0,0,0,0
1394,1768831094101,-11,18,0,0,0,0,0,0
1395,1768831094268,-11,16,1,0,0,0,0,0
1396,1768831094535,-9,17,1,0,0,0,0,0
1397,1768831094719,-11,18,1,0,0,0,0,0
1398,1768831095119,-10,17,1,0,0,0,0,0
1399,1768831095601,-9,18,2,0,0,0,0,0
1400,1768831095819,-11,19,0,0,0,0,0,0
1401,1768831095918,-10,17,1,0,0,0,0,0
1402,1768831096168,-10,16,1,0,0,0,0,0
1403,1768831096369,-8,17,1,0,0,0,0,0
1404,1768831096702,-10,17,2,0,0,0,0,0
1405,1768831096868,-11,19,1,0,0,0,0,0
1406,1768831097085,-8,17,2,0,0,0,0,0
1407,1768831097317,-11,17,1,0,0,0,0,0
1408,1768831097568,-9,19,1,0,0,0,0,0
1409,1768831097867,-12,17,1,0,0,0,0,0
1410,1768831098016,-9,18,1,0,0,0,0,0
1411,1768831098404,-9,19,1,0,0,0,0,0
1412,1768831098486,-9,18,1,0,0,0,0,0
1413,1768831098753,-8,16,1,0,0,0,0,0
1414,1768831098968,-8,15,2,0,0,0,0,0
1415,1768831099268,-12,17,1,0,0,0,0,0
1416,1768831099755,-9,17,2,0,0,0,0,0
1417,1768831100103,-10,18,1,0,0,0,0,0
1418,1768831100221,-10,18,1,0,0,0,0,0
1419,1768831100419,-10,17,2,0,0,0,0,0
1420,1768831100685,-10,17,3,0,0,0,0,0
1421,1768831101001,-9,18,0,0,0,0,0,0
1422,1768831101451,-11,17,1,0,0,0,0,0
1423,1768831101634,-10,18,1,0,0,0,0,0
1424,1768831101851,-10,16,1,0,0,0,0,0
1425,1768831102069,-9,17,1,0,0,0,0,0
1426,1768831102334,-11,18,-1,0,0,0,0,0
1427,1768831102684,-9,18,1,0,0,0,0,0
1428,1768831102986,-12,17,2,0,0,0,0,0
1429,1768831103136,-11,18,1,0,0,0,0,0
1430,1768831103236,-12,17,1,0,0,0,0,0
1431,1768831103784,-9,17,2,0,0,0,0,0
1432,1768831103787,-9,18,3,0,0,0,0,0
1433,1768831104036,-8,16,2,0,0,0,0,0
1434,1768831104285,-10,17,0,0,0,0,0,0
1435,1768831104484,-9,17,1,0,0,0,0,0
1436,1768831104853,-11,18,1,0,0,0,0,0
1437,1768831105068,-10,16,2,0,0,0,0,0
1438,1768831105335,-9,19,2,0,0,0,0,0
1439,1768831105619,-10,17,1,0,0,0,0,0
1440,1768831105720,-10,18,2,0,0,0,0,0
1441,1768831106268,-9,16,1,0,0,0,0,0
1442,1768831106568,-9,17,1,0,0,0,0,0
1443,1768831106818,-10,19,1,0,0,0,0,0
1444,1768831107152,-9,17,0,0,0,0,0,0
1445,1768831107654,-9,18,1,0,0,0,0,0
1446,1768831107919,-9,15,1,0,0,0,0,0
1447,1768831108134,-8,18,1,0,0,0,0,0
1448,1768831108318,-9,17,2,0,0,0,0,0
1449,1768831108567,-10,18,1,0,0,0,0,0
1450,1768831109018,-11,17,1,0,0,0,0,0
1451,1768831109403,-8,17,1,0,0,0,0,0
1452,1768831109667,-10,16,1,0,0,0,0,0
1453,1768831109935,-10,17,1,0,0,0,0,0
1454,1768831110202,-10,18,1,0,0,0,0,0
1455,1768831110469,-11,18,1,0,0,0,0,0
1456,1768831110570,-10,18,1,0,0,0,0,0
1457,1768831110836,-9,19,1,0,0,0,0,0
1458,1768831111053,-9,18,0,0,0,0,0,0
1459,1768831111186,-9,16,2,0,0,0,0,0
1460,1768831111551,-8,18,2,0,0,0,0,0
1461,1768831112035,-10,18,2,0,0,0,0,0
1462,1768831112284,-10,17,0,0,0,0,0,0
1463,1768831112502,-10,17,1,0,0,0,0,0
1464,1768831112868,-11,15,1,0,0,0,0,0
1465,1768831113268,-9,18,0,0,0,0,0,0
1466,1768831113501,-9,19,1,0,0,0,0,0
1467,1768831113734,-11,16,1,0,0,0,0,0
1468,1768831113950,-9,17,2,0,0,0,0,0
1469,1768831114084,-12,17,0,0,0,0,0,0
1470,1768831114334,-6,18,2,0,0,0,0,0
1471,1768831114806,-10,18,2,0,0,0,0,0
1472,1768831115117,-11,17,1,0,0,0,0,0
1473,1768831115467,-11,18,1,0,0,0,0,0
1474,1768831115734,-9,17,1,0,0,0,0,0
1475,1768831116018,-9,20,2,0,0,0,0,0
1476,1768831116201,-11,17,1,0,0,0,0,0
1477,1768831116501,-8,20,2,0,0,0,0,0
1478,1768831165417,-10,18,2,0,0,0,0,0
1479,1768831165517,-9,17,0,0,0,0,0,0
1480,1768831165700,-12,17,1,0,0,0,0,0
1481,1768831165867,-10,19,3,0,0,0,0,0
1482,1768831166000,-8,19,1,0,0,0,0,0
1483,1768831166217,-10,19,1,0,0,0,0,0
1484,1768831166316,-9,17,1,0,0,0,0,0
1485,1768831166549,-9,19,1,0,0,0,0,0
1486,1768831166683,-10,18,2,0,0,0,0,0
1487,1768831167016,-9,18,2,0,0,0,0,0
1488,1768831167266,-10,19,1,0,0,0,0,0
1489,1768831167499,-9,19,1,0,0,0,0,0
1490,1768831167750,-10,18,-1,0,0,0,0,0
1491,1768831168149,-11,18,2,0,0,0,0,0
1492,1768831168399,-10,17,2,0,0,0,0,0
1493,1768831168666,-10,18,2,0,0,0,0,0
1494,1768831168866,-11,20,2,0,0,0,0,0
1495,1768831169150,-9,19,2,0,0,0,0,0
1496,1768831169583,-9,18,1,0,0,0,0,0
1497,1768831170016,-10,18,1,0,0,0,0,0
1498,1768831170483,-9,18,1,0,0,0,0,0
1499,1768831170900,-10,18,1,0,0,0,0,0
1500,1768831170967,-8,16,1,0,0,0,0,0
1501,1768831171250,-11,19,2,0,0,0,0,0
1502,1768831171333,-10,18,1,0,0,0,0,0
1503,1768831171750,-11,17,1,0,0,0,0,0
1504,1768831171816,-9,20,2,0,0,0,0,0
1505,1768831172199,-10,18,1,0,0,0,0,0
1506,1768831172300,-11,18,1,0,0,0,0,0
1507,1768831172583,-11,18,0,0,0,0,0,0
1508,1768831173066,-11,20,1,0,0,0,0,0
1509,1768831173516,-9,17,1,0,0,0,0,0
1510,1768831173867,-10,18,2,0,0,0,0,0
1511,1768831174348,-11,18,3,0,0,0,0,0
1512,1768831174348,-9,17,0,0,0,0,0,0
1513,1768831174549,-9,18,2,0,0,0,0,0
1514,1768831174733,-10,18,2,0,0,0,0,0
1515,1768831175084,-10,19,1,0,0,0,0,0
1516,1768831175183,-11,18,1,0,0,0,0,0
1517,1768831175649,-8,19,0,0,0,0,0,0
1518,1768831175869,-9,17,0,0,0,0,0,0
1519,1768831176034,-10,17,2,0,0,0,0,0
1520,1768831176352,-10,19,2,0,0,0,0,0
1521,1768831176699,-10,19,2,0,0,0,0,0
1522,1768831177167,-9,18,1,0,0,0,0,0
1523,1768831177516,-9,18,1,0,0,0,0,0
1524,1768831177999,-10,16,2,0,0,0,0,0
1525,1768831178468,-11,17,1,0,0,0,0,0
1526,1768831178718,-11,18,1,0,0,0,0,0
1527,1768831178833,-8,19,0,0,0,0,0,0
1528,1768831179216,-12,18,1,0,0,0,0,0
1529,1768831179299,-9,18,1,0,0,0,0,0
1530,1768831179600,-11,18,2,0,0,0,0,0
1531,1768831179849,-11,16,1,0,0,0,0,0
1532,1768831180032,-10,18,1,0,0,0,0,0
1533,1768831180183,-9,17,2,0,0,0,0,0
1534,1768831180633,-11,18,2,0,0,0,0,0
1535,1768831180916,-10,18,1,0,0,0,0,0
1536,1768831181149,-11,17,2,0,0,0,0,0
1537,1768831181483,-9,18,1,0,0,0,0,0
1538,1768831181950,-10,16,1,0,0,0,0,0
1539,1768831182299,-10,18,0,0,0,0,0,0
1540,1768831182600,-10,17,1,0,0,0,0,0
1541,1768831182749,-9,18,1,0,0,0,0,0
1542,1768831183216,-9,18,1,0,0,0,0,0
1543,1768831183432,-12,18,1,0,0,0,0,0
1544,1768831183700,-10,18,1,0,0,0,0,0
1545,1768831184066,-12,17,2,0,0,0,0,0
1546,1768831184199,-11,18,2,0,0,0,0,0
1547,1768831184516,-10,18,2,0,0,0,0,0
1548,1768831184666,-9,18,1,0,0,0,0,0
1549,1768831184866,-10,17,3,0,0,0,0,0
1550,1768831185151,-9,18,2,0,0,0,0,0
1551,1768831185402,-11,18,2,0,0,0,0,0
1552,1768831185417,-10,18,2,0,0,0,0,0
1553,1768831185733,-11,18,0,0,0,0,0,0
1554,1768831186032,-10,17,1,0,0,0,0,0
1555,1768831186183,-12,17,1,0,0,0,0,0
1556,1768831186250,-11,18,1,0,0,0,0,0
1557,1768831186601,-11,19,2,0,0,0,0,0
1558,1768831186633,-11,18,1,0,0,0,0,0
1559,1768831186699,-11,19,2,0,0,0,0,0
1560,1768831187033,-9,17,0,0,0,0,0,0
1561,1768831187116,-9,18,2,0,0,0,0,0
1562,1768831187467,-9,18,0,0,0,0,0,0
1563,1768831187584,-11,20,1,0,0,0,0,0
1564,1768831187683,-9,17,1,0,0,0,0,0
1565,1768831188083,-9,18,2,0,0,0,0,0
1566,1768831188300,-9,17,1,0,0,0,0,0
1567,1768831188433,-10,19,1,0,0,0,0,0
1568,1768831188667,-10,17,1,0,0,0,0,0
1569,1768831188834,-10,18,1,0,0,0,0,0
1570,1768831189117,-11,17,1,0,0,0,0,0
1571,1768831189249,-9,17,1,0,0,0,0,0
1572,1768831189350,-10,17,0,0,0,0,0,0
1573,1768831189651,-10,18,0,0,0,0,0,0
1574,1768831189867,-9,18,2,0,0,0,0,0
1575,1768831190116,-10,18,2,0,0,0,0,0
1576,1768831190151,-10,17,2,0,0,0,0,0
1577,1768831190267,-10,19,2,0,0,0,0,0
1578,1768831190700,-9,17,2,0,0,0,0,0
1579,1768831191000,-11,18,2,0,0,0,0,0
1580,1768831191117,-10,17,1,0,0,0,0,0
1581,1768831191233,-10,18,1,0,0,0,0,0
1582,1768831191632,-10,18,1,0,0,0,0,0
1583,1768831191850,-11,18,2,0,0,0,0,0
1584,1768831191984,-10,18,1,0,0,0,0,0
1585,1768831192083,-9,18,2,0,0,0,0,0
1586,1768831192500,-7,18,0,0,0,0,0,0
1587,1768831192734,-11,16,1,0,0,0,0,0
1588,1768831192833,-11,17,0,0,0,0,0,0
1589,1768831193117,-10,19,1,0,0,0,0,0
1590,1768831193349,-14,21,2,0,0,0,0,0
1591,1768831193701,-1,2,3,0,0,0,0,0
1592,1768831194000,-14,15,-4,0,0,0,0,0
1593,1768831194150,-8,16,6,0,0,0,0,0
1594,1768831194335,-6,16,2,0,0,0,0,0
1595,1768831194535,-11,15,0,0,0,0,0,0
1596,1768831194635,2,13,1,0,0,0,0,0
1597,1768831194900,-13,17,5,0,0,0,0,0
1598,1768831195166,-7,17,-254,0,0,0,0,0
1599,1768831195418,-9,15,14,0,0,0,0,0
1600,1768831195668,-7,5,4,0,0,0,0,0
1601,1768831195983,9,22,3,0,0,0,0,0
1602,1768831196318,-22,23,1,0,0,0,0,0
1603,1768831196485,-34,11,-5,0,0,0,0,0
1604,1768831196769,-26,17,2,0,0,0,0,0
1605,1768831196835,-3,11,9,0,0,0,0,0
1606,1768831197085,-32,10,5,0,0,0,0,0
1607,1768831197466,-5,24,2,0,0,0,0,0
1608,1768831197768,8,24,1,0,0,0,0,0
1609,1768831198033,-7,32,5,0,0,0,0,0
1610,1768831198300,-11,31,14,0,0,0,0,0
1611,1768831198783,-9,20,15,0,0,0,0,0
1612,1768831199083,-12,31,-2,0,0,0,0,0
1613,1768831199416,-33,58,2,0,0,0,0,0
1614,1768831199501,-28,61,4,0,0,0,0,0
1615,1768831199750,4,59,6,0,0,0,0,0
1616,1768831199983,13,36,-27,0,0,0,0,0
1617,1768831200318,-1,24,9,0,0,0,0,0
1618,1768831200401,7,37,-5,0,0,0,0,0
1619,1768831200649,-9,25,-30,0,0,0,0,0
1620,1768831200868,-19,34,31,0,0,0,0,0
1621,1768831201218,4,10,9,0,0,0,0,0
1622,1768831201750,-16,38,3,0,0,0,0,0
1623,1768831202067,7,52,24,0,0,0,0,0
1624,1768831202249,-20,20,-26,0,0,0,0,0
1625,1768831202584,-2,-32,-19,0,0,0,0,0
1626,1768831202767,-22,-14,-2,0,0,0,0,0
1627,1768831203367,4,-16,42,0,0,0,0,0
1628,1768831203534,-2,2,17,0,0,0,0,0
1629,1768831203749,-7,-17,3,0,0,0,0,0
1630,1768831203917,-12,23,24,0,0,0,0,0
1631,1768831204250,13,-6,5,0,0,0,0,0
1632,1768831204335,5,4,13,0,0,0,0,0
1633,1768831204434,8,9,46,0,0,0,0,0
1634,1768831204733,-9,15,3,0,0,0,0,0
1635,1768831205151,-11,42,3,0,0,0,0,0
1636,1768831205334,5,28,-21,0,0,0,0,0
1637,1768831205652,-29,48,10,0,0,0,0,0
1638,1768831205766,-43,65,-15,0,0,0,0,0
1639,1768831206018,2,35,9,0,0,0,0,0
1640,1768831206319,29,25,-28,0,0,0,0,0
1641,1768831206566,-30,38,27,0,0,0,0,0
1642,1768831206800,-34,44,-22,0,0,0,0,0
1643,1768831207050,13,11,-53,0,0,0,0,0
1644,1768831207300,-4,-15,-10,0,0,0,0,0
1645,1768831207584,-18,3,9,0,0,0,0,0
1646,1768831207901,-30,0,-6,0,0,0,0,0
1647,1768831207933,1,-19,10,0,0,0,0,0
1648,1768831208052,5,8,18,0,0,0,0,0
1649,1768831208483,-1,-8,-5,0,0,0,0,0
1650,1768831208699,41,-40,-27,0,0,0,0,0
1651,1768831208966,13,-19,10,0,0,0,0,0
1652,1768831209350,-36,9,-14,0,0,0,0,0
1653,1768831209883,-2,10,-14,0,0,0,0,0
1654,1768831210333,-10,6,27,0,0,0,0,0
1655,1768831210618,-59,26,-35,0,0,0,0,0
1656,1768831210851,0,8,4,0,0,0,0,0
1657,1768831211117,-37,4,-1,0,0,0,0,0
1658,1768831211532,8,25,-12,0,0,0,0,0
1659,1768831211636,-60,75,18,0,0,0,0,0
1660,1768831212216,-1,177,18,0,0,0,0,0
1661,1768831212502,-53,344,-48,0,0,0,0,0
1662,1768831212817,-92,611,19,0,0,0,0,0
1663,1768831213099,-126,583,-17,0,0,0,0,0
1664,1768831213567,-39,483,-20,0,0,0,0,0
1665,1768831214000,-54,453,-30,0,0,0,0,0
1666,1768831214199,-93,412,-29,0,0,0,0,0
1667,1768831214482,-35,267,-51,0,0,0,0,0
1668,1768831214683,-32,247,-23,0,0,0,0,0
1669,1768831214935,-27,221,2,0,0,0,0,0
1670,1768831215250,-22,72,3,0,0,0,0,0
1671,1768831215467,-12,56,-13,0,0,0,0,0
1672,1768831215734,-3,-14,5,0,0,0,0,0
1673,1768831216185,-13,16,5,0,0,0,0,0
1674,1768831216533,-12,16,2,0,0,0,0,0
1675,1768831217032,-9,14,0,0,0,0,0,0
1676,1768831217316,-13,18,3,0,0,0,0,0
1677,1768831217567,-10,17,4,0,0,0,0,0
1678,1768831217800,-13,15,2,0,0,0,0,0
1679,1768831218099,-15,20,2,0,0,0,0,0
1680,1768831218568,-10,19,2,0,0,0,0,0
1681,1768831218651,-9,19,1,0,0,0,0,0
1682,1768831218951,-7,18,3,0,0,0,0,0
1683,1768831219117,-8,18,-2,0,0,0,0,0
1684,1768831219449,-11,20,0,0,0,0,0,0
1685,1768831219900,-10,20,0,0,0,0,0,0
1686,1768831220267,-10,18,2,0,0,0,0,0
1687,1768831220733,-11,18,3,0,0,0,0,0
1688,1768831220884,-10,17,2,0,0,0,0,0
1689,1768831221118,-10,17,3,0,0,0,0,0
1690,1768831221418,-10,15,4,0,0,0,0,0
1691,1768831221584,-10,18,3,0,0,0,0,0
1692,1768831222034,-9,19,2,0,0,0,0,0
1693,1768831222499,-11,18,0,0,0,0,0,0
1694,1768831222951,-11,18,2,0,0,0,0,0
1695,1768831223284,-10,18,1,0,0,0,0,0
1696,1768831223434,-10,17,1,0,0,0,0,0
1697,1768831223734,-11,19,2,0,0,0,0,0
1698,1768831223934,-10,18,0,0,0,0,0,0
1699,1768831224134,-10,16,2,0,0,0,0,0
1700,1768831224584,-8,18,2,0,0,0,0,0
1701,1768831224818,-10,16,4,0,0,0,0,0
1702,1768831224868,-13,23,0,0,0,0,0,0
1703,1768831225117,-8,17,0,0,0,0,0,0
1704,1768831225568,-10,19,2,0,0,0,0,0
1705,1768831225765,-12,18,1,0,0,0,0,0
1706,1768831225950,-12,18,2,0,0,0,0,0
1707,1768831226398,-9,18,2,0,0,0,0,0
1708,1768831226966,-10,17,1,0,0,0,0,0
1709,1768831227184,-9,17,1,0,0,0,0,0
1710,1768831227517,-10,20,5,0,0,0,0,0
1711,1768831319633,-9,17,2,0,0,0,0,0
1712,1768831319749,-10,18,1,0,0,0,0,0
1713,1768831319917,-11,17,1,0,0,0,0,0
1714,1768831320114,-9,18,0,0,0,0,0,0
1715,1768831320231,-11,19,1,0,0,0,0,0
1716,1768831320432,-10,17,1,0,0,0,0,0
1717,1768831320547,-11,19,1,0,0,0,0,0
1718,1768831320784,-11,18,1,0,0,0,0,0
1719,1768831320916,-10,20,1,0,0,0,0,0
1720,1768831321447,-12,17,1,0,0,0,0,0
1721,1768831321817,-10,19,0,0,0,0,0,0
1722,1768831322017,-9,18,1,0,0,0,0,0
1723,1768831322199,-8,16,2,0,0,0,0,0
1724,1768831322699,-10,18,3,0,0,0,0,0
1725,1768831323082,-10,18,0,0,0,0,0,0
1726,1768831323281,-10,18,2,0,0,0,0,0
1727,1768831323531,-11,18,1,0,0,0,0,0
1728,1768831323731,-10,18,1,0,0,0,0,0
1729,1768831323981,-11,17,1,0,0,0,0,0
1730,1768831324551,-10,17,2,0,0,0,0,0
1731,1768831325067,-10,18,1,0,0,0,0,0
1732,1768831325233,-9,18,1,0,0,0,0,0
1733,1768831325300,-10,17,0,0,0,0,0,0
1734,1768831325799,-10,18,1,0,0,0,0,0
1735,1768831326350,-9,18,2,0,0,0,0,0
1736,1768831326516,-10,18,1,0,0,0,0,0
1737,1768831326767,-10,17,1,0,0,0,0,0
1738,1768831327066,-9,18,2,0,0,0,0,0
1739,1768831327566,-9,16,1,0,0,0,0,0
1740,1768831327734,-10,19,1,0,0,0,0,0
1741,1768831328032,-11,18,1,0,0,0,0,0
1742,1768831328283,-10,18,1,0,0,0,0,0
1743,1768831328767,-11,17,2,0,0,0,0,0
1744,1768831329249,-10,17,1,0,0,0,0,0
1745,1768831329317,-11,18,2,0,0,0,0,0
1746,1768831329533,-11,17,2,0,0,0,0,0
1747,1768831329683,-11,16,1,0,0,0,0,0
1748,1768831330016,-10,18,1,0,0,0,0,0
1749,1768831330050,-9,19,0,0,0,0,0,0
1750,1768831330297,-9,17,1,0,0,0,0,0
1751,1768831330466,-11,18,1,0,0,0,0,0
1752,1768831330717,-11,17,2,0,0,0,0,0
1753,1768831330900,-11,17,1,0,0,0,0,0
1754,1768831331232,-10,18,1,0,0,0,0,0
1755,1768831331500,-10,19,2,0,0,0,0,0
1756,1768831331933,-10,18,1,0,0,0,0,0
1757,1768831332437,-11,17,1,0,0,0,0,0
1758,1768831332666,-10,18,1,0,0,0,0,0
1759,1768831333016,-10,18,1,0,0,0,0,0
1760,1768831333250,-11,17,2,0,0,0,0,0
1761,1768831333282,-9,19,0,0,0,0,0,0
1762,1768831333598,-11,18,1,0,0,0,0,0
1763,1768831333765,-10,19,1,0,0,0,0,0
1764,1768831334015,-11,18,1,0,0,0,0,0
1765,1768831334348,-10,19,2,0,0,0,0,0
1766,1768831334515,-9,18,0,0,0,0,0,0
1767,1768831334781,-12,19,1,0,0,0,0,0
1768,1768831335082,-9,19,0,0,0,0,0,0
1769,1768831335266,-9,16,2,0,0,0,0,0
1770,1768831335599,-9,17,3,0,0,0,0,0
1771,1768831335831,-11,17,2,0,0,0,0,0
1772,1768831336132,-9,17,2,0,0,0,0,0
1773,1768831336398,-10,19,1,0,0,0,0,0
1774,1768831336667,-10,17,2,0,0,0,0,0
1775,1768831337133,-8,18,1,0,0,0,0,0
1776,1768831337316,-10,18,0,0,0,0,0,0
1777,1768831337850,-9,17,2,0,0,0,0,0
1778,1768831338083,-10,18,3,0,0,0,0,0
1779,1768831338384,-10,18,2,0,0,0,0,0
1780,1768831338449,-10,19,1,0,0,0,0,0
1781,1768831338700,-10,18,1,0,0,0,0,0
1782,1768831339015,-10,17,1,0,0,0,0,0
1783,1768831339232,-8,19,1,0,0,0,0,0
1784,1768831339547,-9,17,2,0,0,0,0,0
1785,1768831339815,-9,17,1,0,0,0,0,0
1786,1768831339981,-11,17,1,0,0,0,0,0
1787,1768831340216,-9,18,1,0,0,0,0,0
1788,1768831340516,-9,17,2,0,0,0,0,0
1789,1768831340750,-9,18,1,0,0,0,0,0
1790,1768831340932,-10,17,1,0,0,0,0,0
1791,1768831341266,-10,17,1,0,0,0,0,0
1792,1768831341564,-9,19,1,0,0,0,0,0
1793,1768831341817,-10,18,2,0,0,0,0,0
1794,1768831342082,-11,18,2,0,0,0,0,0
1795,1768831342350,-9,18,1,0,0,0,0,0
1796,1768831342381,-10,17,1,0,0,0,0,0
1797,1768831342600,-10,17,1,0,0,0,0,0
1798,1768831342882,-10,17,1,0,0,0,0,0
1799,1768831343114,-11,18,1,0,0,0,0,0
1800,1768831343182,-10,17,2,0,0,0,0,0
1801,1768831343465,-9,18,2,0,0,0,0,0
1802,1768831343733,-12,18,2,0,0,0,0,0
1803,1768831344249,-10,17,1,0,0,0,0,0
1804,1768831344481,-10,18,2,0,0,0,0,0
1805,1768831345032,-11,18,1,0,0,0,0,0
1806,1768831345250,-11,17,2,0,0,0,0,0
1807,1768831345749,-11,18,0,0,0,0,0,0
1808,1768831346248,-11,19,2,0,0,0,0,0
1809,1768831346516,-9,17,0,0,0,0,0,0
1810,1768831346999,-11,19,1,0,0,0,0,0
1811,1768831347483,-10,17,2,0,0,0,0,0
1812,1768831347783,-10,18,1,0,0,0,0,0
1813,1768831347983,-11,19,2,0,0,0,0,0
1814,1768831348216,-10,18,0,0,0,0,0,0
1815,1768831348399,-13,21,0,0,0,0,0,0
1816,1768831348800,-10,17,1,0,0,0,0,0
1817,1768831349050,-10,17,2,0,0,0,0,0
1818,1768831349283,-9,17,1,0,0,0,0,0
1819,1768831349501,-9,19,3,0,0,0,0,0
1820,1768831349667,-10,18,2,0,0,0,0,0
1821,1768831350150,-11,18,1,0,0,0,0,0
1822,1768831350566,-10,17,1,0,0,0,0,0
1823,1768831350781,-12,17,2,0,0,0,0,0
1824,1768831351015,-10,19,1,0,0,0,0,0
1825,1768831351467,-9,17,1,0,0,0,0,0
1826,1768831351817,-9,17,2,0,0,0,0,0
1827,1768831352016,-10,17,0,0,0,0,0,0
1828,1768831352249,-10,17,1,0,0,0,0,0
1829,1768831352584,-10,17,1,0,0,0,0,0
1830,1768831352766,-8,18,1,0,0,0,0,0
1831,1768831353083,-10,18,2,0,0,0,0,0
1832,1768831353249,-9,18,2,0,0,0,0,0
1833,1768831353449,-10,18,2,0,0,0,0,0
1834,1768831353817,-11,17,0,0,0,0,0,0
1835,1768831354016,-9,18,1,0,0,0,0,0
1836,1768831354516,-9,17,2,0,0,0,0,0
1837,1768831354733,-9,19,1,0,0,0,0,0
1838,1768831354816,-10,18,1,0,0,0,0,0
1839,1768831355083,-11,18,2,0,0,0,0,0
1840,1768831355250,-12,17,0,0,0,0,0,0
1841,1768831355765,-10,17,0,0,0,0,0,0
1842,1768831356014,-10,17,0,0,0,0,0,0
1843,1768831356298,-10,18,0,0,0,0,0,0
1844,1768831356464,-9,18,1,0,0,0,0,0
1845,1768831356864,-10,18,1,0,0,0,0,0
1846,1768831357299,-11,17,2,0,0,0,0,0
1847,1768831357533,-10,17,2,0,0,0,0,0
1848,1768831357683,-10,17,1,0,0,0,0,0
1849,1768831358065,-10,18,1,0,0,0,0,0
1850,1768831358281,-10,19,1,0,0,0,0,0
1851,1768831358467,-10,17,2,0,0,0,0,0
1852,1768831358749,-12,16,1,0,0,0,0,0
1853,1768831358917,-10,17,3,0,0,0,0,0
1854,1768831359299,-9,17,1,0,0,0,0,0
1855,1768831359565,-10,16,0,0,0,0,0,0
1856,1768831359733,-9,19,2,0,0,0,0,0
1857,1768831360217,-9,17,2,0,0,0,0,0
1858,1768831360467,-10,17,1,0,0,0,0,0
1859,1768831360683,-11,18,1,0,0,0,0,0
1860,1768831361116,-9,17,1,0,0,0,0,0
1861,1768831361249,-11,19,2,0,0,0,0,0
1862,1768831361466,-10,19,1,0,0,0,0,0
1863,1768831361830,-11,17,1,0,0,0,0,0
1864,1768831362032,-10,18,2,0,0,0,0,0
1865,1768831362366,-10,18,0,0,0,0,0,0
1866,1768831362534,-9,18,1,0,0,0,0,0
1867,1768831362832,-10,18,1,0,0,0,0,0
1868,1768831363083,-10,18,2,0,0,0,0,0
1869,1768831363282,-10,18,1,0,0,0,0,0
1870,1768831363782,-10,18,1,0,0,0,0,0
1871,1768831364282,-10,17,0,0,0,0,0,0
1872,1768831364532,-11,18,1,0,0,0,0,0
1873,1768831365049,-10,18,1,0,0,0,0,0
1874,1768831365435,-10,18,1,0,0,0,0,0
1875,1768831365780,-11,16,1,0,0,0,0,0
1876,1768831366165,-10,17,1,0,0,0,0,0
1877,1768831366381,-11,15,1,0,0,0,0,0
1878,1768831366582,-9,18,2,0,0,0,0,0
1879,1768831367031,-10,17,1,0,0,0,0,0
1880,1768831367382,-12,18,1,0,0,0,0,0
1881,1768831367799,-10,18,1,0,0,0,0,0
1882,1768831368249,-9,19,0,0,0,0,0,0
1883,1768831368633,-10,17,0,0,0,0,0,0
1884,1768831368999,-12,18,1,0,0,0,0,0
1885,1768831369349,-10,18,1,0,0,0,0,0
1886,1768831369849,-11,18,1,0,0,0,0,0
1887,1768831370016,-11,17,2,0,0,0,0,0
1888,1768831370249,-10,18,1,0,0,0,0,0
1889,1768831370583,-10,19,1,0,0,0,0,0
1890,1768831370948,-10,18,1,0,0,0,0,0
1891,1768831371282,-12,18,1,0,0,0,0,0
1892,1768831371617,-12,17,1,0,0,0,0,0
1893,1768831371866,-10,18,1,0,0,0,0,0
1894,1768831372033,-11,17,1,0,0,0,0,0
1895,1768831372347,-10,17,2,0,0,0,0,0
1896,1768831372416,-10,18,0,0,0,0,0,0
1897,1768831372780,-11,17,0,0,0,0,0,0
1898,1768831373081,-9,18,2,0,0,0,0,0
1899,1768831373416,-11,18,1,0,0,0,0,0
1900,1768831373780,-9,17,1,0,0,0,0,0
1901,1768831374065,-11,17,1,0,0,0,0,0
1902,1768831374365,-11,16,1,0,0,0,0,0
1903,1768831374416,-10,19,1,0,0,0,0,0
1904,1768831374683,-9,17,2,0,0,0,0,0
1905,1768831374966,-10,17,1,0,0,0,0,0
1906,1768831375182,-9,16,1,0,0,0,0,0
1907,1768831375484,-14,19,-2,0,0,0,0,0
1908,1768831375699,-10,16,1,0,0,0,0,0
1909,1768831376182,-10,16,2,0,0,0,0,0
1910,1768831376483,-12,18,1,0,0,0,0,0
1911,1768831377033,-11,18,2,0,0,0,0,0
1912,1768831377250,-10,19,1,0,0,0,0,0
1913,1768831377581,-9,16,0,0,0,0,0,0
1914,1768831377815,-10,17,1,0,0,0,0,0
1915,1768831378114,-11,19,1,0,0,0,0,0
1916,1768831378415,-10,17,2,0,0,0,0,0
1917,1768831378665,-9,15,2,0,0,0,0,0
1918,1768831379080,-8,18,1,0,0,0,0,0
1919,1768831379130,-6,21,2,0,0,0,0,0
1920,1768831379366,-6,17,0,0,0,0,0,0
1921,1768831379631,-9,15,0,0,0,0,0,0
1922,1768831379883,-8,19,3,0,0,0,0,0
1923,1768831379933,-12,17,1,0,0,0,0,0
1924,1768831380164,-9,18,1,0,0,0,0,0
1925,1768831380498,-8,16,3,0,0,0,0,0
1926,1768831380748,-11,17,0,0,0,0,0,0
1927,1768831381282,-12,17,3,0,0,0,0,0
1928,1768831381499,-9,15,1,0,0,0,0,0
1929,1768831381815,-8,18,-1,0,0,0,0,0
1930,1768831382065,-12,17,2,0,0,0,0,0
1931,1768831382366,-14,17,4,0,0,0,0,0
1932,1768831382583,-9,18,0,0,0,0,0,0
1933,1768831383015,-8,18,0,0,0,0,0,0
1934,1768831383248,-10,17,0,0,0,0,0,0
1935,1768831383550,-17,17,7,0,0,0,0,0
1936,1768831383814,-24,18,17,0,0,0,0,0
1937,1768831384330,-11,17,2,0,0,0,0,0
1938,1768831507629,-11,18,2,0,0,0,0,0
1939,1768831507765,-9,17,1,0,0,0,0,0
1940,1768831507931,-10,17,2,0,0,0,0,0
1941,1768831508113,-10,17,0,0,0,0,0,0
1942,1768831508231,-10,16,1,0,0,0,0,0
1943,1768831508448,-10,17,1,0,0,0,0,0
1944,1768831508547,-9,17,1,0,0,0,0,0
1945,1768831508782,-9,19,2,0,0,0,0,0
1946,1768831508913,-9,18,1,0,0,0,0,0
1947,1768831509429,-11,18,1,0,0,0,0,0
1948,1768831509945,-11,18,2,0,0,0,0,0
1949,1768831510248,-11,18,0,0,0,0,0,0
1950,1768831510698,-9,18,2,0,0,0,0,0
1951,1768831511146,-9,18,1,0,0,0,0,0
1952,1768831511278,-10,17,2,0,0,0,0,0
1953,1768831511547,-9,18,1,0,0,0,0,0
1954,1768831511730,-11,18,0,0,0,0,0,0
1955,1768831511997,-10,19,1,0,0,0,0,0
1956,1768831512180,-11,18,0,0,0,0,0,0
1957,1768831512531,-10,19,2,0,0,0,0,0
1958,1768831513047,-11,17,1,0,0,0,0,0
1959,1768831513229,-11,18,2,0,0,0,0,0
1960,1768831513431,-11,16,1,0,0,0,0,0
1961,1768831513781,-10,17,2,0,0,0,0,0
1962,1768831514298,-9,18,1,0,0,0,0,0
1963,1768831514464,-11,17,2,0,0,0,0,0
1964,1768831514731,-10,18,2,0,0,0,0,0
1965,1768831515014,-10,17,2,0,0,0,0,0
1966,1768831515514,-10,19,3,0,0,0,0,0
1967,1768831515682,-9,18,2,0,0,0,0,0
1968,1768831516013,-10,17,2,0,0,0,0,0
1969,1768831516229,-10,17,1,0,0,0,0,0
1970,1768831516715,-8,19,2,0,0,0,0,0
1971,1768831516898,-10,17,1,0,0,0,0,0
1972,1768831517229,-9,17,1,0,0,0,0,0
1973,1768831517515,-8,17,2,0,0,0,0,0
1974,1768831517697,-10,16,1,0,0,0,0,0
1975,1768831517964,-10,18,0,0,0,0,0,0
1976,1768831518465,-11,17,1,0,0,0,0,0
1977,1768831518714,-10,18,2,0,0,0,0,0
1978,1768831519181,-10,16,2,0,0,0,0,0
1979,1768831519448,-10,17,1,0,0,0,0,0
1980,1768831519797,-10,17,1,0,0,0,0,0
1981,1768831520213,-9,18,1,0,0,0,0,0
1982,1768831520464,-8,17,1,0,0,0,0,0
1983,1768831520514,-10,17,1,0,0,0,0,0
1984,1768831520813,-9,17,1,0,0,0,0,0
1985,1768831521164,-9,18,1,0,0,0,0,0
1986,1768831521725,-9,17,2,0,0,0,0,0
1987,1768831521782,-10,16,1,0,0,0,0,0
1988,1768831522181,-10,18,2,0,0,0,0,0
1989,1768831522364,-9,16,1,0,0,0,0,0
1990,1768831522481,-10,16,2,0,0,0,0,0
1991,1768831522697,-10,17,1,0,0,0,0,0
1992,1768831523047,-11,18,1,0,0,0,0,0
1993,1768831523596,-8,17,1,0,0,0,0,0
1994,1768831523829,-7,18,1,0,0,0,0,0
1995,1768831524146,-9,18,0,0,0,0,0,0
1996,1768831524396,-11,16,1,0,0,0,0,0
1997,1768831524546,-10,16,1,0,0,0,0,0
1998,1768831524880,-9,17,1,0,0,0,0,0
1999,1768831524946,-9,16,1,0,0,0,0,0
2000,1768831525112,-10,18,1,0,0,0,0,0
2001,1768831525280,-10,17,1,0,0,0,0,0
2002,1768831525430,-10,16,1,0,0,0,0,0
2003,1768831525681,-11,17,2,0,0,0,0,0
2004,1768831526148,-10,18,2,0,0,0,0,0
2005,1768831526347,-9,17,1,0,0,0,0,0
2006,1768831526714,-12,18,0,0,0,0,0,0
2007,1768831526912,-8,18,2,0,0,0,0,0
2008,1768831527095,-10,19,3,0,0,0,0,0
2009,1768831527412,-7,16,2,0,0,0,0,0
2010,1768831527548,-13,17,2,0,0,0,0,0
2011,1768831527947,-10,17,2,0,0,0,0,0
2012,1768831528398,-10,18,2,0,0,0,0,0
2013,1768831528847,-10,18,0,0,0,0,0,0
2014,1768831529197,-8,16,1,0,0,0,0,0
2015,1768831529646,-8,17,1,0,0,0,0,0
2016,1768831530080,-8,17,2,0,0,0,0,0
2017,1768831530497,-10,16,0,0,0,0,0,0
2018,1768831530648,-10,18,2,0,0,0,0,0
2019,1768831530897,-8,17,1,0,0,0,0,0
2020,1768831531229,-9,18,2,0,0,0,0,0
2021,1768831531747,-10,17,1,0,0,0,0,0
2022,1768831531930,-10,17,0,0,0,0,0,0
2023,1768831532165,-10,18,1,0,0,0,0,0
2024,1768831532657,-11,18,1,0,0,0,0,0
2025,1768831532678,-10,17,1,0,0,0,0,0
2026,1768831533031,-11,17,2,0,0,0,0,0
2027,1768831533199,-10,17,2,0,0,0,0,0
2028,1768831533449,-8,18,0,0,0,0,0,0
2029,1768831533465,-10,18,2,0,0,0,0,0
2030,1768831533764,-10,17,1,0,0,0,0,0
2031,1768831533946,-10,18,0,0,0,0,0,0
2032,1768831534331,-8,16,2,0,0,0,0,0
2033,1768831534547,-11,17,2,0,0,0,0,0
2034,1768831534748,-10,18,2,0,0,0,0,0
2035,1768831535214,-11,18,1,0,0,0,0,0
2036,1768831535731,-10,17,1,0,0,0,0,0
2037,1768831536097,-8,16,1,0,0,0,0,0
2038,1768831536232,-9,17,2,0,0,0,0,0
2039,1768831536464,-11,18,0,0,0,0,0,0
2040,1768831536880,-10,17,1,0,0,0,0,0
2041,1768831537064,-10,18,2,0,0,0,0,0
2042,1768831537330,-11,17,2,0,0,0,0,0
2043,1768831537496,-11,17,0,0,0,0,0,0
2044,1768831537731,-9,16,0,0,0,0,0,0
2045,1768831538112,-9,17,1,0,0,0,0,0
2046,1768831538279,-11,17,0,0,0,0,0,0
2047,1768831538544,-11,18,0,0,0,0,0,0
2048,1768831538764,-10,17,0,0,0,0,0,0
2049,1768831538997,-9,18,-1,0,0,0,0,0
2050,1768831539348,-13,17,1,0,0,0,0,0
2051,1768831539498,-9,16,2,0,0,0,0,0
2052,1768831539798,-11,17,2,0,0,0,0,0
2053,1768831539963,-10,18,1,0,0,0,0,0
2054,1768831540281,-9,17,0,0,0,0,0,0
2055,1768831540598,-10,17,1,0,0,0,0,0
2056,1768831540780,-9,18,2,0,0,0,0,0
2057,1768831541281,-11,17,2,0,0,0,0,0
2058,1768831541529,-10,18,1,0,0,0,0,0
2059,1768831541813,-8,18,0,0,0,0,0,0
2060,1768831541997,-9,17,2,0,0,0,0,0
2061,1768831542497,-9,17,2,0,0,0,0,0
2062,1768831542713,-12,17,0,0,0,0,0,0
2063,1768831543047,-9,17,0,0,0,0,0,0
2064,1768831543215,-11,18,1,0,0,0,0,0
2065,1768831543660,-10,17,2,0,0,0,0,0
2066,1768831543781,-10,17,1,0,0,0,0,0
2067,1768831544015,-8,17,1,0,0,0,0,0
2068,1768831544478,-9,17,2,0,0,0,0,0
2069,1768831544814,-11,18,0,0,0,0,0,0
2070,1768831545247,-9,17,1,0,0,0,0,0
2071,1768831545614,-9,17,1,0,0,0,0,0
2072,1768831545864,-10,16,1,0,0,0,0,0
2073,1768831546030,-10,17,0,0,0,0,0,0
2074,1768831546315,-9,17,1,0,0,0,0,0
2075,1768831546799,-9,16,0,0,0,0,0,0
2076,1768831547081,-10,16,0,0,0,0,0,0
2077,1768831547413,-10,17,2,0,0,0,0,0
2078,1768831547546,-11,17,1,0,0,0,0,0
2079,1768831547764,-9,17,2,0,0,0,0,0
2080,1768831548163,-10,16,1,0,0,0,0,0
2081,1768831548314,-9,17,0,0,0,0,0,0
2082,1768831548631,-8,17,1,0,0,0,0,0
2083,1768831548798,-9,18,1,0,0,0,0,0
2084,1768831549047,-9,16,2,0,0,0,0,0
2085,1768831549214,-10,16,1,0,0,0,0,0
2086,1768831549363,-8,17,0,0,0,0,0,0
2087,1768831549548,-9,16,1,0,0,0,0,0
2088,1768831549712,-8,18,2,0,0,0,0,0
2089,1768831549864,-9,15,2,0,0,0,0,0
2090,1768831550047,-9,17,2,0,0,0,0,0
2091,1768831550198,-8,17,1,0,0,0,0,0
2092,1768831550378,-10,16,0,0,0,0,0,0
2093,1768831550613,-9,18,2,0,0,0,0,0
2094,1768831550780,-12,18,1,0,0,0,0,0
2095,1768831550947,-7,17,2,0,0,0,0,0
2096,1768831551113,-9,16,2,0,0,0,0,0
2097,1768831551280,-9,18,1,0,0,0,0,0
2098,1768831551347,-11,17,6,0,0,0,0,0
2099,1768831551513,-11,19,0,0,0,0,0,0
2100,1768831551697,-10,17,-4,0,0,0,0,0
2101,1768831551864,-8,17,1,0,0,0,0,0
2102,1768831552031,-8,17,0,0,0,0,0,0
2103,1768831552180,-9,18,2,0,0,0,0,0
2104,1768831552345,-8,16,1,0,0,0,0,0
2105,1768831552513,-9,17,1,0,0,0,0,0
2106,1768831552681,-9,17,0,0,0,0,0,0
2107,1768831552846,-11,16,1,0,0,0,0,0
2108,1768831553096,-10,16,1,0,0,0,0,0
2109,1768831553261,-9,18,1,0,0,0,0,0
2110,1768831553412,-10,16,1,0,0,0,0,0
2111,1768831553597,-11,18,1,0,0,0,0,0
2112,1768831553748,-9,17,1,0,0,0,0,0
2113,1768831553830,-9,17,0,0,0,0,0,0
2114,1768831553996,-8,16,0,0,0,0,0,0
2115,1768831554148,-11,17,1,0,0,0,0,0
2116,1768831554329,-9,16,2,0,0,0,0,0
2117,1768831554719,-11,17,1,0,0,0,0,0
2118,1768831554719,-8,18,0,0,0,0,0,0
2119,1768831554795,-9,17,1,0,0,0,0,0
2120,1768831554964,-10,17,1,0,0,0,0,0
2121,1768831555130,-9,17,2,0,0,0,0,0
2122,1768831555529,-9,17,1,0,0,0,0,0
2123,1768831555729,-9,18,0,0,0,0,0,0
2124,1768831556113,-10,18,2,0,0,0,0,0
2125,1768831556264,-10,16,0,0,0,0,0,0
2126,1768831556448,-9,17,1,0,0,0,0,0
2127,1768831556614,-11,16,2,0,0,0,0,0
2128,1768831556767,-9,17,0,0,0,0,0,0
2129,1768831556997,-10,18,2,0,0,0,0,0
2130,1768831557181,-10,17,1,0,0,0,0,0
2131,1768831557346,-9,18,1,0,0,0,0,0
2132,1768831557514,-10,17,1,0,0,0,0,0
2133,1768831557680,-11,18,1,0,0,0,0,0
2134,1768831557729,-9,16,1,0,0,0,0,0
2135,1768831557895,-9,17,0,0,0,0,0,0
2136,1768831558062,-10,18,1,0,0,0,0,0
2137,1768831558228,-11,18,1,0,0,0,0,0
2138,1768831558396,-10,18,1,0,0,0,0,0
2139,1768831558697,-9,17,2,0,0,0,0,0
2140,1768831558846,-8,17,1,0,0,0,0,0
2141,1768831559029,-10,18,1,0,0,0,0,0
2142,1768831559197,-11,17,2,0,0,0,0,0
2143,1768831559431,-10,17,2,0,0,0,0,0
2144,1768831559595,-9,16,2,0,0,0,0,0
2145,1768831559747,-10,17,2,0,0,0,0,0
2146,1768831559931,-9,17,2,0,0,0,0,0
2147,1768831560095,-8,18,2,0,0,0,0,0
2148,1768831560179,-8,17,1,0,0,0,0,0
2149,1768831560331,-10,17,1,0,0,0,0,0
2150,1768831560496,-10,17,2,0,0,0,0,0
2151,1768831560663,-10,16,1,0,0,0,0,0
2152,1768831560814,-10,18,2,0,0,0,0,0
2153,1768831561130,-9,17,2,0,0,0,0,0
2154,1768831561297,-8,16,1,0,0,0,0,0
2155,1768831561463,-10,18,1,0,0,0,0,0
2156,1768831561879,-10,16,2,0,0,0,0,0
2157,1768831562047,-10,18,2,0,0,0,0,0
2158,1768831562214,-8,16,2,0,0,0,0,0
2159,1768831562380,-9,17,1,0,0,0,0,0
2160,1768831562548,-9,17,1,0,0,0,0,0
2161,1768831562613,-11,18,1,0,0,0,0,0
2162,1768831562780,-10,17,2,0,0,0,0,0
2163,1768831562963,-10,19,1,0,0,0,0,0
2164,1768831563113,-8,18,1,0,0,0,0,0
2165,1768831563296,-10,16,2,0,0,0,0,0
2166,1768831563430,-10,17,3,0,0,0,0,0
2167,1768831563595,-11,17,1,0,0,0,0,0
2168,1768831563763,-10,17,1,0,0,0,0,0
2169,1768831563914,-8,17,1,0,0,0,0,0
2170,1768831564079,-14,17,2,0,0,0,0,0
2171,1768831564348,-11,19,2,0,0,0,0,0
2172,1768831564512,-11,16,2,0,0,0,0,0
2173,1768831564680,-10,17,1,0,0,0,0,0
2174,1768831564848,-8,18,2,0,0,0,0,0
2175,1768831565096,-9,17,1,0,0,0,0,0
2176,1768831565280,-10,17,2,0,0,0,0,0
2177,1768831565623,-11,16,2,0,0,0,0,0
2178,1768831565627,-10,18,1,0,0,0,0,0
2179,1768831565763,-10,16,1,0,0,0,0,0
2180,1768831565847,-10,17,1,0,0,0,0,0
2181,1768831566014,-9,17,0,0,0,0,0,0
2182,1768831566080,-10,16,1,0,0,0,0,0
2183,1768831566247,-10,17,1,0,0,0,0,0
2184,1768831566414,-9,16,1,0,0,0,0,0
2185,1768831566663,-9,17,2,0,0,0,0,0
2186,1768831566998,-11,18,1,0,0,0,0,0
2187,1768831567180,-9,16,-1,0,0,0,0,0
2188,1768831567330,-10,16,1,0,0,0,0,0
2189,1768831567412,-10,16,0,0,0,0,0,0
2190,1768831567580,-9,18,2,0,0,0,0,0
2191,1768831567747,-8,19,0,0,0,0,0,0
2192,1768831567912,-8,17,2,0,0,0,0,0
2193,1768831568080,-10,17,2,0,0,0,0,0
2194,1768831568213,-11,16,2,0,0,0,0,0
2195,1768831568396,-8,18,0,0,0,0,0,0
2196,1768831568547,-9,17,1,0,0,0,0,0
2197,1768831568730,-10,17,2,0,0,0,0,0
2198,1768831568898,-9,17,1,0,0,0,0,0
2199,1768831569146,-10,17,1,0,0,0,0,0
2200,1768831569313,-8,17,1,0,0,0,0,0
2201,1768831569481,-11,18,1,0,0,0,0,0
2202,1768831569665,-9,17,2,0,0,0,0,0
2203,1768831569897,-8,17,1,0,0,0,0,0
2204,1768831570063,-8,18,1,0,0,0,0,0
2205,1768831570213,-9,17,1,0,0,0,0,0
2206,1768831570381,-10,17,2,0,0,0,0,0
2207,1768831570464,-10,17,2,0,0,0,0,0
2208,1768831570698,-10,16,2,0,0,0,0,0
2209,1768831570848,-9,17,1,0,0,0,0,0
2210,1768831571031,-11,17,1,0,0,0,0,0
2211,1768831571180,-10,17,2,0,0,0,0,0
2212,1768831571361,-9,17,2,0,0,0,0,0
2213,1768831571430,-10,15,1,0,0,0,0,0
2214,1768831571580,-10,16,2,0,0,0,0,0
2215,1768831571764,-10,19,2,0,0,0,0,0
2216,1768831571913,-9,17,2,0,0,0,0,0
2217,1768831572095,-9,18,1,0,0,0,0,0
2218,1768831572362,-11,17,1,0,0,0,0,0
2219,1768831572547,-9,18,0,0,0,0,0,0
2220,1768831572698,-9,17,2,0,0,0,0,0
2221,1768831572862,-10,16,2,0,0,0,0,0
2222,1768831573114,-9,16,2,0,0,0,0,0
2223,1768831573280,-9,16,1,0,0,0,0,0
2224,1768831573448,-10,18,1,0,0,0,0,0
2225,1768831573613,-11,17,1,0,0,0,0,0
2226,1768831573762,-10,18,1,0,0,0,0,0
2227,1768831573862,-9,18,3,0,0,0,0,0
2228,1768831574031,-11,16,1,0,0,0,0,0
2229,1768831574181,-9,16,2,0,0,0,0,0
2230,1768831574364,-9,18,2,0,0,0,0,0
2231,1768831574531,-10,17,2,0,0,0,0,0
2232,1768831574779,-8,18,2,0,0,0,0,0
2233,1768831574948,-9,18,2,0,0,0,0,0
2234,1768831575130,-11,17,1,0,0,0,0,0
2235,1768831575281,-11,19,2,0,0,0,0,0
2236,1768831575596,-9,17,2,0,0,0,0,0
2237,1768831575764,-10,16,3,0,0,0,0,0
2238,1768831575930,-9,17,2,0,0,0,0,0
2239,1768831576097,-11,17,1,0,0,0,0,0
2240,1768831576330,-9,17,2,0,0,0,0,0
2241,1768831576619,-10,17,2,0,0,0,0,0
2242,1768831576663,-7,17,1,0,0,0,0,0
2243,1768831576830,-11,17,1,0,0,0,0,0
2244,1768831576996,-9,17,1,0,0,0,0,0
2245,1768831577062,-10,17,1,0,0,0,0,0
2246,1768831577228,-9,17,0,0,0,0,0,0
2247,1768831577395,-10,16,1,0,0,0,0,0
2248,1768831577446,-11,17,1,0,0,0,0,0
2249,1768831577613,-10,17,1,0,0,0,0,0
2250,1768831577782,-8,17,1,0,0,0,0,0
2251,1768831578012,-9,16,0,0,0,0,0,0
2252,1768831578163,-11,18,1,0,0,0,0,0
2253,1768831578347,-10,17,2,0,0,0,0,0
2254,1768831578514,-10,16,2,0,0,0,0,0
2255,1768831578746,-8,16,1,0,0,0,0,0
2256,1768831578897,-11,18,2,0,0,0,0,0
2257,1768831579080,-9,18,1,0,0,0,0,0
2258,1768831579246,-10,17,2,0,0,0,0,0
2259,1768831579413,-9,18,2,0,0,0,0,0
2260,1768831579631,-9,17,1,0,0,0,0,0
2261,1768831579696,-10,17,2,0,0,0,0,0
2262,1768831579980,-9,18,2,0,0,0,0,0
2263,1768831580047,-11,17,1,0,0,0,0,0
2264,1768831580197,-9,17,2,0,0,0,0,0
2265,1768831580463,-8,17,2,0,0,0,0,0
2266,1768831580631,-11,17,1,0,0,0,0,0
2267,1768831580797,-8,16,3,0,0,0,0,0
2268,1768831580947,-10,16,2,0,0,0,0,0
2269,1768831581180,-7,16,2,0,0,0,0,0
2270,1768831581347,-11,17,3,0,0,0,0,0
2271,1768831581530,-8,15,2,0,0,0,0,0
2272,1768831581681,-10,18,0,0,0,0,0,0
2273,1768831581862,-10,17,1,0,0,0,0,0
2274,1768831581913,-10,17,1,0,0,0,0,0
2275,1768831581996,-9,18,1,0,0,0,0,0
2276,1768831582146,-9,17,2,0,0,0,0,0
2277,1768831582330,-10,18,2,0,0,0,0,0
2278,1768831582480,-9,17,1,0,0,0,0,0
2279,1768831582645,-10,16,2,0,0,0,0,0
2280,1768831583381,-10,15,1,0,0,0,0,0
2281,1768831583497,-8,18,2,0,0,0,0,0
2282,1768831583681,-9,16,1,0,0,0,0,0
2283,1768831583830,-7,18,1,0,0,0,0,0
2284,1768831583981,-9,17,0,0,0,0,0,0
2285,1768831584180,-9,15,1,0,0,0,0,0
2286,1768831584296,-10,18,2,0,0,0,0,0
2287,1768831584530,-10,16,1,0,0,0,0,0
2288,1768831584647,-8,16,1,0,0,0,0,0
2289,1768831585013,-10,15,1,0,0,0,0,0
2290,1768831585198,-11,17,1,0,0,0,0,0
2291,1768831585747,-9,16,1,0,0,0,0,0
2292,1768831586031,-9,17,0,0,0,0,0,0
2293,1768831586546,-9,17,3,0,0,0,0,0
2294,1768831586814,-11,16,0,0,0,0,0,0
2295,1768831586913,-10,19,2,0,0,0,0,0
2296,1768831587280,-11,18,2,0,0,0,0,0
2297,1768831587430,-10,16,1,0,0,0,0,0
2298,1768831587729,-9,17,1,0,0,0,0,0
2299,1768831587915,-9,17,1,0,0,0,0,0
2300,1768831588432,-9,17,2,0,0,0,0,0
2301,1768831588794,-10,16,1,0,0,0,0,0
2302,1768831589080,-10,16,1,0,0,0,0,0
2303,1768831589262,-9,17,1,0,0,0,0,0
2304,1768831589613,-9,16,2,0,0,0,0,0
2305,1768831589729,-8,16,0,0,0,0,0,0
2306,1768831590096,-9,18,1,0,0,0,0,0
2307,1768831590164,-11,17,2,0,0,0,0,0
2308,1768831590446,-8,16,0,0,0,0,0,0
2309,1768831590681,-10,17,1,0,0,0,0,0
2310,1768831590962,-9,16,1,0,0,0,0,0
2311,1768831591197,-10,17,1,0,0,0,0,0
2312,1768831591447,-9,16,1,0,0,0,0,0
2313,1768831591680,-7,18,1,0,0,0,0,0
2314,1768831591812,-10,17,0,0,0,0,0,0
2315,1768831592064,-9,17,2,0,0,0,0,0
2316,1768831592279,-9,16,3,0,0,0,0,0
2317,1768831592580,-11,19,1,0,0,0,0,0
2318,1768831592612,-8,17,2,0,0,0,0,0
2319,1768831592746,-10,18,2,0,0,0,0,0
2320,1768831593163,-10,17,1,0,0,0,0,0
2321,1768831593647,-10,17,1,0,0,0,0,0
2322,1768831593863,-10,16,1,0,0,0,0,0
2323,1768831594131,-10,17,2,0,0,0,0,0
2324,1768831594479,-10,17,1,0,0,0,0,0
2325,1768831594930,-10,17,2,0,0,0,0,0
2326,1768831595296,-9,16,1,0,0,0,0,0
2327,1768831595596,-11,17,1,0,0,0,0,0
2328,1768831595746,-10,16,2,0,0,0,0,0
2329,1768831596060,-10,17,1,0,0,0,0,0
2330,1768831596230,-11,17,1,0,0,0,0,0
2331,1768831596348,-10,16,1,0,0,0,0,0
2332,1768831596712,-12,17,0,0,0,0,0,0
2333,1768831596913,-10,16,2,0,0,0,0,0
2334,1768831597196,-10,17,0,0,0,0,0,0
2335,1768831597630,-10,17,3,0,0,0,0,0
2336,1768831597812,-10,17,1,0,0,0,0,0
2337,1768831598029,-9,17,2,0,0,0,0,0
2338,1768831598279,-10,15,2,0,0,0,0,0
2339,1768831598395,-8,16,1,0,0,0,0,0
2340,1768831598713,-11,17,2,0,0,0,0,0
2341,1768831598963,-10,17,1,0,0,0,0,0
2342,1768831599304,-9,16,2,0,0,0,0,0
2343,1768831599596,-10,16,2,0,0,0,0,0
2344,1768831599730,-10,18,3,0,0,0,0,0
2345,1768831600013,-10,17,1,0,0,0,0,0
2346,1768831600314,-10,17,2,0,0,0,0,0
2347,1768831600631,-8,17,1,0,0,0,0,0
2348,1768831600714,-10,18,2,0,0,0,0,0
2349,1768831601161,-11,17,1,0,0,0,0,0
2350,1768831601314,-9,15,1,0,0,0,0,0
2351,1768831601495,-9,16,1,0,0,0,0,0
2352,1768831601730,-8,17,1,0,0,0,0,0
2353,1768831602044,-10,16,3,0,0,0,0,0
2354,1768831602330,-9,17,1,0,0,0,0,0
2355,1768831602564,-10,16,0,0,0,0,0,0
2356,1768831602880,-10,17,1,0,0,0,0,0
2357,1768831603147,-10,17,1,0,0,0,0,0
2358,1768831603381,-9,16,1,0,0,0,0,0
2359,1768831603731,-9,16,1,0,0,0,0,0
2360,1768831603979,-10,18,2,0,0,0,0,0
2361,1768831604113,-11,17,0,0,0,0,0,0
2362,1768831604246,-8,17,2,0,0,0,0,0
2363,1768831604680,-10,18,1,0,0,0,0,0
2364,1768831604746,-10,17,1,0,0,0,0,0
2365,1768831604913,-9,17,1,0,0,0,0,0
2366,1768831605196,-10,18,2,0,0,0,0,0
2367,1768831605578,-8,17,2,0,0,0,0,0
2368,1768831605779,-9,17,0,0,0,0,0,0
2369,1768831606063,-9,16,2,0,0,0,0,0
2370,1768831606529,-11,16,2,0,0,0,0,0
2371,1768831606863,-9,18,1,0,0,0,0,0
2372,1768831607130,-10,18,2,0,0,0,0,0
2373,1768831607364,-10,19,0,0,0,0,0,0
2374,1768831607679,-9,15,2,0,0,0,0,0
2375,1768831607914,-9,17,1,0,0,0,0,0
2376,1768831608146,-10,16,2,0,0,0,0,0
2377,1768831608330,-9,16,1,0,0,0,0,0
2378,1768831608595,-10,16,1,0,0,0,0,0
2379,1768831608763,-9,17,1,0,0,0,0,0
2380,1768831608948,-8,17,1,0,0,0,0,0
2381,1768831609213,-9,17,2,0,0,0,0,0
2382,1768831609429,-8,16,1,0,0,0,0,0
2383,1768831609929,-12,16,3,0,0,0,0,0
2384,1768831610380,-10,15,2,0,0,0,0,0
2385,1768831610797,-10,20,-1,0,0,0,0,0
2386,1768831611510,-10,16,1,0,0,0,0,0
2387,1768831611896,-10,16,2,0,0,0,0,0
2388,1768831612029,-9,16,2,0,0,0,0,0
2389,1768831612348,-11,16,1,0,0,0,0,0
2390,1768831612478,-10,16,2,0,0,0,0,0
2391,1768831612812,-8,18,1,0,0,0,0,0
2392,1768831613030,-9,17,1,0,0,0,0,0
2393,1768831613195,-10,16,2,0,0,0,0,0
2394,1768831613564,-10,17,1,0,0,0,0,0
2395,1768831613645,-10,18,2,0,0,0,0,0
2396,1768831614063,-10,18,1,0,0,0,0,0
2397,1768831614162,-8,18,1,0,0,0,0,0
2398,1768831614546,-10,16,2,0,0,0,0,0
2399,1768831614913,-9,16,0,0,0,0,0,0
2400,1768831615264,-12,16,1,0,0,0,0,0
2401,1768831615513,-8,18,1,0,0,0,0,0
2402,1768831615578,-10,18,1,0,0,0,0,0
2403,1768831615830,-10,16,2,0,0,0,0,0
2404,1768831616046,-9,16,2,0,0,0,0,0
2405,1768831616294,-9,17,1,0,0,0,0,0
2406,1768831616612,-8,16,1,0,0,0,0,0
2407,1768831616845,-11,16,1,0,0,0,0,0
2408,1768831617079,-9,17,1,0,0,0,0,0
2409,1768831617445,-11,16,1,0,0,0,0,0
2410,1768831617730,-9,18,0,0,0,0,0,0
2411,1768831617912,-10,17,1,0,0,0,0,0
2412,1768831618011,-8,17,2,0,0,0,0,0
2413,1768831618414,-8,16,2,0,0,0,0,0
2414,1768831618512,-9,17,1,0,0,0,0,0
2415,1768831618763,-9,17,1,0,0,0,0,0
2416,1768831619012,-8,17,1,0,0,0,0,0
2417,1768831619245,-11,17,1,0,0,0,0,0
2418,1768831619562,-9,17,1,0,0,0,0,0
2419,1768831619580,-10,16,0,0,0,0,0,0
2420,1768831620044,-10,16,1,0,0,0,0,0
2421,1768831620364,-9,17,2,0,0,0,0,0
2422,1768831620513,-8,17,2,0,0,0,0,0
2423,1768831620830,-10,17,0,0,0,0,0,0
2424,1768831621013,-10,17,0,0,0,0,0,0
2425,1768831621329,-9,16,1,0,0,0,0,0
2426,1768831621678,-8,17,1,0,0,0,0,0
2427,1768831622146,-10,17,2,0,0,0,0,0
2428,1768831622346,-9,17,2,0,0,0,0,0
2429,1768831622613,-8,17,3,0,0,0,0,0
2430,1768831622911,-11,17,1,0,0,0,0,0
2431,1768831623162,-9,16,1,0,0,0,0,0
2432,1768831623461,-10,16,2,0,0,0,0,0
2433,1768831623862,-9,16,2,0,0,0,0,0
2434,1768831623929,-9,16,0,0,0,0,0,0
2435,1768831624227,-11,18,1,0,0,0,0,0
2436,1768831624412,-7,16,1,0,0,0,0,0
2437,1768831624578,-9,17,2,0,0,0,0,0
2438,1768831624811,-8,18,0,0,0,0,0,0
2439,1768831625248,-11,15,3,0,0,0,0,0
2440,1768831625630,-9,18,2,0,0,0,0,0
2441,1768831625795,-10,17,1,0,0,0,0,0
2442,1768831626097,-8,17,2,0,0,0,0,0
2443,1768831626328,-9,17,2,0,0,0,0,0
2444,1768831626512,-10,17,3,0,0,0,0,0
2445,1768831626827,-10,18,0,0,0,0,0,0
2446,1768831626929,-10,18,2,0,0,0,0,0
2447,1768831627330,-8,14,2,0,0,0,0,0
2448,1768831627429,-11,17,3,0,0,0,0,0
2449,1768831627795,-9,18,2,0,0,0,0,0
2450,1768831627930,-10,17,2,0,0,0,0,0
2451,1768831628147,-12,16,1,0,0,0,0,0
2452,1768831628614,-8,16,6,0,0,0,0,0
2453,1768831628981,-10,18,1,0,0,0,0,0
2454,1768831629096,-8,18,3,0,0,0,0,0
2455,1768831629529,-9,17,0,0,0,0,0,0
2456,1768831629914,-10,17,1,0,0,0,0,0
2457,1768831630211,-9,16,3,0,0,0,0,0
2458,1768831630377,-10,17,2,0,0,0,0,0
2459,1768831630645,-10,17,2,0,0,0,0,0
2460,1768831630745,-10,17,1,0,0,0,0,0
2461,1768831630979,-9,16,1,0,0,0,0,0
2462,1768831631198,-8,16,2,0,0,0,0,0
2463,1768831631447,-9,16,0,0,0,0,0,0
2464,1768831631612,-8,16,1,0,0,0,0,0
2465,1768831631714,-9,17,2,0,0,0,0,0
2466,1768831632299,-10,16,1,0,0,0,0,0
2467,1768831632578,-10,17,3,0,0,0,0,0
2468,1768831632796,-8,17,1,0,0,0,0,0
2469,1768831632930,-10,16,0,0,0,0,0,0
2470,1768831633197,-9,17,3,0,0,0,0,0
2471,1768831633314,-10,16,1,0,0,0,0,0
2472,1768831633479,-9,18,2,0,0,0,0,0
2473,1768831633747,-9,15,2,0,0,0,0,0
2474,1768831633847,-10,18,2,0,0,0,0,0
2475,1768831634180,-6,15,2,0,0,0,0,0
2476,1768831634464,-10,17,2,0,0,0,0,0
2477,1768831634896,-11,17,1,0,0,0,0,0
2478,1768831635078,-8,17,1,0,0,0,0,0
2479,1768831635147,-9,17,0,0,0,0,0,0
2480,1768831635463,-10,17,0,0,0,0,0,0
2481,1768831635563,-9,18,1,0,0,0,0,0
2482,1768831635729,-10,17,1,0,0,0,0,0
2483,1768831635960,-11,17,0,0,0,0,0,0
2484,1768831636129,-9,16,3,0,0,0,0,0
2485,1768831636330,-9,17,1,0,0,0,0,0
2486,1768831636429,-10,15,1,0,0,0,0,0
2487,1768831636761,-8,17,1,0,0,0,0,0
2488,1768831636828,-10,18,-1,0,0,0,0,0
2489,1768831636978,-9,17,2,0,0,0,0,0
2490,1768831637312,-8,17,2,0,0,0,0,0
2491,1768831637578,-10,16,0,0,0,0,0,0
2492,1768831637747,-10,16,2,0,0,0,0,0
2493,1768831637814,-8,17,2,0,0,0,0,0
2494,1768831638246,-10,17,1,0,0,0,0,0
2495,1768831638377,-8,15,2,0,0,0,0,0
2496,1768831638744,-10,17,2,0,0,0,0,0
2497,1768831638962,-9,16,1,0,0,0,0,0
2498,1768831639079,-9,17,1,0,0,0,0,0
2499,1768831639330,-9,18,1,0,0,0,0,0
2500,1768831639595,-11,15,1,0,0,0,0,0
2501,1768831639913,-9,16,1,0,0,0,0,0
2502,1768831640098,-10,17,0,0,0,0,0,0
2503,1768831640462,-11,17,1,0,0,0,0,0
2504,1768831640762,-9,16,2,0,0,0,0,0
2505,1768831640980,-10,16,2,0,0,0,0,0
2506,1768831641195,-10,16,3,0,0,0,0,0
2507,1768831641294,-10,16,2,0,0,0,0,0
2508,1768831641397,-10,15,2,0,0,0,0,0
2509,1768831641763,-10,17,1,0,0,0,0,0
2510,1768831641863,-7,16,1,0,0,0,0,0
2511,1768831642229,-9,18,2,0,0,0,0,0
2512,1768831642378,-8,15,1,0,0,0,0,0
2513,1768831642627,-8,14,1,0,0,0,0,0
2514,1768831642928,-9,19,1,0,0,0,0,0
2515,1768831643296,-10,15,2,0,0,0,0,0
2516,1768831643397,-8,17,1,0,0,0,0,0
2517,1768831643578,-11,17,0,0,0,0,0,0
2518,1768831643879,-8,16,1,0,0,0,0,0
2519,1768831644096,-10,17,2,0,0,0,0,0
2520,1768831644346,-9,16,1,0,0,0,0,0
2521,1768831644545,-10,17,1,0,0,0,0,0
2522,1768831644829,-10,17,1,0,0,0,0,0
2523,1768831645145,-9,16,1,0,0,0,0,0
2524,1768831645229,-10,17,1,0,0,0,0,0
2525,1768831645345,-9,17,1,0,0,0,0,0
2526,1768831645630,-8,18,1,0,0,0,0,0
2527,1768831645679,-11,17,1,0,0,0,0,0
2528,1768831645828,-10,16,2,0,0,0,0,0
2529,1768831646095,-10,16,1,0,0,0,0,0
2530,1768831646410,-10,15,1,0,0,0,0,0
2531,1768831646512,-9,19,1,0,0,0,0,0
2532,1768831646827,-9,17,2,0,0,0,0,0
2533,1768831646894,-11,19,1,0,0,0,0,0
2534,1768831647363,-9,16,1,0,0,0,0,0
2535,1768831647745,-9,17,2,0,0,0,0,0
2536,1768831647945,-10,15,2,0,0,0,0,0
2537,1768831648227,-8,17,1,0,0,0,0,0
2538,1768831648444,-11,18,1,0,0,0,0,0
2539,1768831648695,-7,18,-1,0,0,0,0,0
2540,1768831648862,-10,16,2,0,0,0,0,0
2541,1768831649079,-8,16,1,0,0,0,0,0
2542,1768831649330,-12,17,1,0,0,0,0,0
2543,1768831649595,-10,17,1,0,0,0,0,0
2544,1768831649829,-9,16,1,0,0,0,0,0
2545,1768831650044,-10,17,1,0,0,0,0,0
2546,1768831650195,-9,17,1,0,0,0,0,0
2547,1768831650563,-9,16,0,0,0,0,0,0
2548,1768831650629,-9,18,2,0,0,0,0,0
2549,1768831650912,-8,17,1,0,0,0,0,0
2550,1768831651080,-11,17,2,0,0,0,0,0
2551,1768831651411,-9,16,0,0,0,0,0,0
2552,1768831651528,-10,15,1,0,0,0,0,0
2553,1768831651862,-8,17,0,0,0,0,0,0
2554,1768831651895,-7,16,3,0,0,0,0,0
2555,1768831652129,-10,19,2,0,0,0,0,0
2556,1768831652313,-12,18,-1,0,0,0,0,0
2557,1768831652395,-9,16,2,0,0,0,0,0
2558,1768831652697,-9,16,2,0,0,0,0,0
2559,1768831652780,-7,16,1,0,0,0,0,0
2560,1768831652879,-8,16,0,0,0,0,0,0
2561,1768831653146,-9,17,1,0,0,0,0,0
2562,1768831653296,-9,17,2,0,0,0,0,0
2563,1768831653629,-11,17,1,0,0,0,0,0
2564,1768831653712,-11,17,0,0,0,0,0,0
2565,1768831654332,-7,15,1,0,0,0,0,0
2566,1768831654479,-9,17,1,0,0,0,0,0
2567,1768831654695,-10,18,1,0,0,0,0,0
2568,1768831654961,-10,17,2,0,0,0,0,0
2569,1768831655413,-9,15,1,0,0,0,0,0
2570,1768831655514,-10,17,2,0,0,0,0,0
2571,1768831655795,-8,17,1,0,0,0,0,0
2572,1768831656079,-10,16,3,0,0,0,0,0
2573,1768831656314,-8,17,0,0,0,0,0,0
2574,1768831656545,-9,17,2,0,0,0,0,0
2575,1768831656896,-9,17,2,0,0,0,0,0
2576,1768831657030,-9,17,1,0,0,0,0,0
2577,1768831657460,-9,17,1,0,0,0,0,0
2578,1768831657564,-11,16,1,0,0,0,0,0
2579,1768831657846,-8,17,1,0,0,0,0,0
2580,1768831658096,-10,17,2,0,0,0,0,0
2581,1768831658312,-9,15,1,0,0,0,0,0
2582,1768831658613,-8,17,2,0,0,0,0,0
2583,1768831658878,-11,16,1,0,0,0,0,0
2584,1768831659113,-10,17,1,0,0,0,0,0
2585,1768831659195,-10,16,2,0,0,0,0,0
2586,1768831659745,-9,17,2,0,0,0,0,0
2587,1768831659980,-8,17,1,0,0,0,0,0
2588,1768831660230,-9,16,1,0,0,0,0,0
2589,1768831660746,-9,16,1,0,0,0,0,0
2590,1768831660879,-11,17,2,0,0,0,0,0
2591,1768831661212,-9,16,1,0,0,0,0,0
2592,1768831661362,-10,16,1,0,0,0,0,0
2593,1768831661679,-10,16,0,0,0,0,0,0
2594,1768831661729,-10,16,2,0,0,0,0,0
2595,1768831661848,-8,18,1,0,0,0,0,0
2596,1768831662331,-10,17,1,0,0,0,0,0
2597,1768831662582,-8,16,1,0,0,0,0,0
2598,1768831662895,-10,16,2,0,0,0,0,0
2599,1768831663362,-11,17,0,0,0,0,0,0
2600,1768831663729,-10,17,1,0,0,0,0,0
2601,1768831663996,-8,18,0,0,0,0,0,0
2602,1768831664180,-10,15,2,0,0,0,0,0
2603,1768831664647,-11,16,2,0,0,0,0,0
2604,1768831664847,-8,16,1,0,0,0,0,0
2605,1768831665315,-10,18,0,0,0,0,0,0
2606,1768831665529,-8,17,2,0,0,0,0,0
2607,1768831665846,-10,17,1,0,0,0,0,0
2608,1768831666098,-11,17,2,0,0,0,0,0
2609,1768831666412,-10,16,1,0,0,0,0,0
2610,1768831666729,-9,16,2,0,0,0,0,0
2611,1768831667063,-11,17,2,0,0,0,0,0
2612,1768831667162,-9,16,1,0,0,0,0,0
2613,1768831667496,-10,15,1,0,0,0,0,0
2614,1768831667780,-8,17,3,0,0,0,0,0
2615,1768831668079,-9,16,1,0,0,0,0,0
2616,1768831668379,-11,18,1,0,0,0,0,0
2617,1768831668579,-10,16,2,0,0,0,0,0
2618,1768831668846,-10,17,2,0,0,0,0,0
2619,1768831669213,-10,17,2,0,0,0,0,0
2620,1768831669348,-10,17,2,0,0,0,0,0
2621,1768831669681,-10,16,1,0,0,0,0,0
2622,1768831669913,-9,17,1,0,0,0,0,0
2623,1768831670195,-11,17,2,0,0,0,0,0
2624,1768831670513,-9,16,1,0,0,0,0,0
2625,1768831670778,-11,16,1,0,0,0,0,0
2626,1768831671045,-8,16,1,0,0,0,0,0
2627,1768831671395,-9,16,2,0,0,0,0,0
2628,1768831671545,-11,16,1,0,0,0,0,0
2629,1768831671662,-9,17,1,0,0,0,0,0
2630,1768831671929,-11,15,1,0,0,0,0,0
2631,1768831672078,-7,18,1,0,0,0,0,0
2632,1768831672278,-11,17,2,0,0,0,0,0
2633,1768831672562,-8,16,0,0,0,0,0,0
2634,1768831672747,-11,16,1,0,0,0,0,0
2635,1768831672880,-25,31,50,0,0,0,0,0
2636,1768831673212,-62,21,7,0,0,0,0,0
2637,1768831673529,-3,9,17,0,0,0,0,0
2638,1768831673630,-19,-1,-5,0,0,0,0,0
2639,1768831673961,-7,28,-10,0,0,0,0,0
2640,1768831674063,-52,-96,30,0,0,0,0,0
2641,1768831674260,9,-56,-10,0,0,0,0,0
2642,1768831674514,-57,-45,16,0,0,0,0,0
2643,1768831674595,-11,-35,54,0,0,0,0,0
2644,1768831674913,-25,11,-43,0,0,0,0,0
2645,1768831674996,-34,26,-1,0,0,0,0,0
2646,1768831675245,-46,59,-7,0,0,0,0,0
2647,1768831675444,-4,65,40,0,0,0,0,0
2648,1768831675511,38,32,28,0,0,0,0,0
2649,1768831675811,-30,96,45,0,0,0,0,0
2650,1768831676326,12,77,-15,0,0,0,0,0
2651,1768831676326,-62,74,-39,0,0,0,0,0
2652,1768831676396,36,-42,-9,0,0,0,0,0
2653,1768831676677,-51,31,-6,0,0,0,0,0
2654,1768831676893,5,23,44,0,0,0,0,0
2655,1768831677110,-1,2,0,0,0,0,0,0
2656,1768831677311,21,101,38,0,0,0,0,0
2657,1768831677446,-13,122,-14,0,0,0,0,0
2658,1768831677731,9,15,250,0,0,0,0,0
2659,1768831677948,64,-73,-75,0,0,0,0,0
2660,1768831678228,40,-17,-44,0,0,0,0,0
2661,1768831678494,-30,-36,-3,0,0,0,0,0
2662,1768831678762,-14,-79,20,0,0,0,0,0
2663,1768831678962,-132,30,14,0,0,0,0,0
2664,1768831679194,67,37,-39,0,0,0,0,0
2665,1768831679630,14,67,29,0,0,0,0,0
2666,1768831679781,-54,-17,13,0,0,0,0,0
2667,1768831680127,13,21,-5,0,0,0,0,0
2668,1768831680293,-8,-12,-6,0,0,0,0,0
2669,1768831680810,-67,-68,5,0,0,0,0,0
2670,1768831681278,-18,-76,2,0,0,0,0,0
2671,1768831681462,-63,341,-7,0,0,0,0,0
2672,1768831681995,-83,785,-67,0,0,0,0,0
2673,1768831682529,231,-33,-2095,0,0,0,0,0
2674,1768831683109,99,-940,32,0,0,0,0,0
2675,1768831683628,-25,170,3,0,0,0,0,0
2676,1768831684079,-70,449,-15,0,0,0,0,0
2677,1768831684278,-72,604,-44,0,0,0,0,0
2678,1768831684362,-67,605,-66,0,0,0,0,0
2679,1768831684859,-57,428,-21,0,0,0,0,0
2680,1768831685345,-35,275,-2,0,0,0,0,0
2681,1768831685529,-26,125,-17,0,0,0,0,0
2682,1768831686046,-41,10,-7,0,0,0,0,0
2683,1768831686579,-14,31,4,0,0,0,0,0
2684,1768831687341,-6,16,-1,0,0,0,0,0
2685,1768831687712,-8,17,0,0,0,0,0,0
2686,1768831687880,-10,18,0,0,0,0,0,0
2687,1768831688196,-8,16,1,0,0,0,0,0
2688,1768831688379,-10,15,1,0,0,0,0,0
2689,1768831688629,-9,17,0,0,0,0,0,0
2690,1768831688946,-7,16,1,0,0,0,0,0
2691,1768831689445,-8,19,0,0,0,0,0,0
2692,1768831689611,-9,18,1,0,0,0,0,0
2693,1768831689944,-8,18,2,0,0,0,0,0
2694,1768831690112,-10,17,1,0,0,0,0,0
2695,1768831690628,-9,18,2,0,0,0,0,0
2696,1768831691061,-9,18,1,0,0,0,0,0
2697,1768831691245,-12,16,1,0,0,0,0,0
2698,1768831691529,-15,17,4,0,0,0,0,0
2699,1768831691745,-6,15,4,0,0,0,0,0
2700,1768831691962,-10,16,2,0,0,0,0,0
2701,1768831692046,-8,18,0,0,0,0,0,0
2702,1768831692527,-8,17,2,0,0,0,0,0
2703,1768831693043,-8,18,1,0,0,0,0,0
2704,1768831693561,-9,19,2,0,0,0,0,0
2705,1768831693661,-10,17,0,0,0,0,0,0
2706,1768831694278,-7,17,0,0,0,0,0,0
2707,1768831694679,-9,16,0,0,0,0,0,0
2708,1768831694845,-10,17,0,0,0,0,0,0
2709,1768831695196,-9,16,0,0,0,0,0,0
2710,1768831695347,-13,18,1,0,0,0,0,0
2711,1768831695878,-8,16,1,0,0,0,0,0
2712,1768831696063,-9,18,0,0,0,0,0,0
2713,1768831696362,-10,18,2,0,0,0,0,0
2714,1768831696611,-10,16,2,0,0,0,0,0
2715,1768831697144,-8,18,0,0,0,0,0,0
2716,1768831697328,-11,16,2,0,0,0,0,0
2717,1768831697726,-10,18,5,0,0,0,0,0
2718,1768831698305,-10,16,2,0,0,0,0,0
2719,1768831698411,-10,17,1,0,0,0,0,0
2720,1768831698494,-9,17,2,0,0,0,0,0
2721,1768831698995,-9,16,2,0,0,0,0,0
2722,1768831699546,-10,16,1,0,0,0,0,0
2723,1768831699729,-7,17,1,0,0,0,0,0
2724,1768831700260,-8,18,2,0,0,0,0,0
2725,1768831788145,-10,19,2,0,0,0,0,0
2726,1768831788275,-11,19,2,0,0,0,0,0
2727,1768831788444,-12,18,2,0,0,0,0,0
2728,1768831788611,-11,17,0,0,0,0,0,0
2729,1768831788728,-11,16,1,0,0,0,0,0
2730,1768831788944,-10,18,2,0,0,0,0,0
2731,1768831789044,-10,17,1,0,0,0,0,0
2732,1768831789280,-8,18,2,0,0,0,0,0
2733,1768831789411,-12,18,1,0,0,0,0,0
2734,1768831789744,-11,17,0,0,0,0,0,0
2735,1768831789944,-10,19,1,0,0,0,0,0
2736,1768831790212,-11,17,2,0,0,0,0,0
2737,1768831790512,-11,19,0,0,0,0,0,0
2738,1768831790592,-10,17,2,0,0,0,0,0
2739,1768831790676,-10,17,3,0,0,0,0,0
2740,1768831791012,-9,19,0,0,0,0,0,0
2741,1768831791093,-9,17,1,0,0,0,0,0
2742,1768831791160,-11,17,1,0,0,0,0,0
2743,1768831791495,-9,18,1,0,0,0,0,0
2744,1768831791711,-11,17,2,0,0,0,0,0
2745,1768831792027,-9,19,3,0,0,0,0,0
2746,1768831792361,-10,18,2,0,0,0,0,0
2747,1768831792413,-9,18,2,0,0,0,0,0
2748,1768831792493,-11,18,0,0,0,0,0,0
2749,1768831792828,-11,16,1,0,0,0,0,0
2750,1768831793126,-10,18,1,0,0,0,0,0
2751,1768831793576,-10,17,1,0,0,0,0,0
2752,1768831793779,-11,18,1,0,0,0,0,0
2753,1768831794112,-9,19,1,0,0,0,0,0
2754,1768831794260,-10,18,1,0,0,0,0,0
2755,1768831794577,-10,18,2,0,0,0,0,0
2756,1768831794709,-9,18,2,0,0,0,0,0
2757,1768831794927,-11,18,2,0,0,0,0,0
2758,1768831795259,-10,19,2,0,0,0,0,0
2759,1768831795410,-10,18,1,0,0,0,0,0
2760,1768831795810,-9,18,1,0,0,0,0,0
2761,1768831795893,-10,18,2,0,0,0,0,0
2762,1768831796128,-11,17,1,0,0,0,0,0
2763,1768831796392,-9,17,1,0,0,0,0,0
2764,1768831796812,-9,18,3,0,0,0,0,0
2765,1768831797143,-10,19,1,0,0,0,0,0
2766,1768831797525,-9,17,2,0,0,0,0,0
2767,1768831797928,-12,19,2,0,0,0,0,0
2768,1768831798442,-11,19,2,0,0,0,0,0
2769,1768831798644,-9,19,1,0,0,0,0,0
2770,1768831798810,-11,17,1,0,0,0,0,0
2771,1768831799276,-10,18,1,0,0,0,0,0
2772,1768831799492,-10,17,2,0,0,0,0,0
2773,1768831799743,-10,17,2,0,0,0,0,0
2774,1768831799977,-8,17,3,0,0,0,0,0
2775,1768831800375,-9,18,1,0,0,0,0,0
2776,1768831800509,-12,18,1,0,0,0,0,0
2777,1768831800761,-9,17,3,0,0,0,0,0
2778,1768831800993,-8,18,2,0,0,0,0,0
2779,1768831801275,-9,18,1,0,0,0,0,0
2780,1768831801343,-9,18,2,0,0,0,0,0
2781,1768831801576,-9,19,1,0,0,0,0,0
2782,1768831801811,-9,19,1,0,0,0,0,0
2783,1768831802025,-10,17,2,0,0,0,0,0
2784,1768831802310,-10,18,1,0,0,0,0,0
2785,1768831802679,-10,20,1,0,0,0,0,0
2786,1768831802760,-8,17,1,0,0,0,0,0
2787,1768831803243,-11,17,1,0,0,0,0,0
2788,1768831803710,-10,17,2,0,0,0,0,0
2789,1768831804143,-11,17,1,0,0,0,0,0
2790,1768831804310,-9,19,1,0,0,0,0,0
2791,1768831804478,-9,16,4,0,0,0,0,0
2792,1768831804712,-10,18,2,0,0,0,0,0
2793,1768831805044,-11,19,1,0,0,0,0,0
2794,1768831805392,-11,18,2,0,0,0,0,0
2795,1768831805494,-10,18,1,0,0,0,0,0
2796,1768831805778,-12,16,3,0,0,0,0,0
2797,1768831806026,-7,17,1,0,0,0,0,0
2798,1768831806176,-12,19,1,0,0,0,0,0
2799,1768831806359,-9,17,2,0,0,0,0,0
2800,1768831806644,-11,18,2,0,0,0,0,0
2801,1768831806878,-11,17,2,0,0,0,0,0
2802,1768831807110,-10,17,1,0,0,0,0,0
2803,1768831807244,-10,17,1,0,0,0,0,0
2804,1768831807827,-11,16,2,0,0,0,0,0
2805,1768831808060,-12,19,3,0,0,0,0,0
2806,1768831808309,-12,20,2,0,0,0,0,0
2807,1768831808625,-9,15,2,0,0,0,0,0
2808,1768831808709,-13,19,2,0,0,0,0,0
2809,1768831808909,-9,17,1,0,0,0,0,0
2810,1768831809158,-11,18,1,0,0,0,0,0
2811,1768831809492,-6,18,2,0,0,0,0,0
2812,1768831809610,-11,18,-1,0,0,0,0,0
2813,1768831809911,-9,19,2,0,0,0,0,0
2814,1768831810060,-10,18,1,0,0,0,0,0
2815,1768831810144,-10,18,1,0,0,0,0,0
2816,1768831810425,-9,18,1,0,0,0,0,0
2817,1768831810543,-8,18,1,0,0,0,0,0
2818,1768831810727,-9,17,0,0,0,0,0,0
2819,1768831810974,-9,0,3,0,0,0,0,0
2820,1768831811176,-14,23,5,0,0,0,0,0
2821,1768831811677,-13,-9,1,0,0,0,0,0
2822,1768831811760,-18,9,4,0,0,0,0,0
2823,1768831811943,-3,-10,3,0,0,0,0,0
2824,1768831812191,-3,2,3,0,0,0,0,0
2825,1768831812559,-15,6,3,0,0,0,0,0
2826,1768831813079,-5,18,-3,0,0,0,0,0
2827,1768831813427,-10,41,4,0,0,0,0,0
2828,1768831813725,-26,91,-5,0,0,0,0,0
2829,1768831813827,-7,96,-6,0,0,0,0,0
2830,1768831814061,-21,154,3,0,0,0,0,0
2831,1768831814341,-11,163,-5,0,0,0,0,0
2832,1768831814609,-36,215,2,0,0,0,0,0
2833,1768831814859,-28,207,-6,0,0,0,0,0
2834,1768831815127,-24607,228,-13,0,0,0,0,0
2835,1768831815542,-33,242,-8,0,0,0,0,0
2836,1768831815776,-44,263,-9,0,0,0,0,0
2837,1768831815809,-23,266,-10,0,0,0,0,0
2838,1768831816010,-56,282,-4,0,0,0,0,0
2839,1768831816409,-36,285,-5,0,0,0,0,0
2840,1768831816645,-38,304,-3,0,0,0,0,0
2841,1768831816694,-25,295,-13,0,0,0,0,0
2842,1768831816975,-42,300,-7,0,0,0,0,0
2843,1768831817309,-10,185,-2,0,0,0,0,0
2844,1768831817477,-29,188,-23,0,0,0,0,0
2845,1768831817777,-24,138,-3,0,0,0,0,0
2846,1768831818010,-4,148,8,0,0,0,0,0
2847,1768831818109,-28,93,2,0,0,0,0,0
2848,1768831818411,-33,96,-16,0,0,0,0,0
2849,1768831818527,-9,95,-1,0,0,0,0,0
2850,1768831818817,-31,93,-2,0,0,0,0,0
2851,1768831819027,-7,79,-5,0,0,0,0,0
2852,1768831819212,-1,71,-31,0,0,0,0,0
2853,1768831819444,-20,50,19,0,0,0,0,0
2854,1768831819659,-2,59,18,0,0,0,0,0
2855,1768831819928,-1,34,12,0,0,0,0,0
2856,1768831820343,-22,39,2,0,0,0,0,0
2857,1768831820478,-4,34,18,0,0,0,0,0
2858,1768831820810,-33,33,-4,0,0,0,0,0
2859,1768831821210,5,16,3,0,0,0,0,0
2860,1768831821378,6,32,16,0,0,0,0,0
2861,1768831821693,-2,40,3,0,0,0,0,0
2862,1768831821925,-17,50,-5,0,0,0,0,0
2863,1768831822127,-12,19,22,0,0,0,0,0
2864,1768831822426,14,7,4,0,0,0,0,0
2865,1768831822726,-7,-2,22,0,0,0,0,0
2866,1768831823226,6,-7,16,0,0,0,0,0
2867,1768831823477,-6,18,37,0,0,0,0,0
2868,1768831823575,-21,-4,-16,0,0,0,0,0
2869,1768831823978,-12,37,1,0,0,0,0,0
2870,1768831824075,-34,-18,10,0,0,0,0,0
2871,1768831824443,-46,43,20,0,0,0,0,0
2872,1768831824858,-32,-5,-49,0,0,0,0,0
2873,1768831825128,18,-8,21,0,0,0,0,0
2874,1768831825209,-34,9,27,0,0,0,0,0
2875,1768831825542,-7,-12,-38,0,0,0,0,0
2876,1768831825742,6,-2,27,0,0,0,0,0
2877,1768831826044,5,13,13,0,0,0,0,0
2878,1768831826210,-41,62,-24,0,0,0,0,0
2879,1768831826526,-20,10,-11,0,0,0,0,0
2880,1768831826843,-40,52,-25,0,0,0,0,0
2881,1768831827176,2,12,-27,0,0,0,0,0
2882,1768831827443,7,6,21,0,0,0,0,0
2883,1768831827727,12,8,4,0,0,0,0,0
2884,1768831827911,-27,38,16,0,0,0,0,0
2885,1768831828210,-12,22,14,0,0,0,0,0
2886,1768831828693,-17,6,9,0,0,0,0,0
2887,1768831828776,-14,18,16,0,0,0,0,0
2888,1768831829109,-6,0,17,0,0,0,0,0
2889,1768831829361,34,-9,-30,0,0,0,0,0
2890,1768831829492,-18,34,5,0,0,0,0,0
2891,1768831829912,3,7,7,0,0,0,0,0
2892,1768831830043,1,11,-21,0,0,0,0,0
2893,1768831830377,13,20,8,0,0,0,0,0
2894,1768831830628,-8,22,30,0,0,0,0,0
2895,1768831830727,-41,9,7,0,0,0,0,0
2896,1768831831277,1,-15,15,0,0,0,0,0
2897,1768831831627,-3,17,2,0,0,0,0,0
2898,1768831832111,-60,53,-8,0,0,0,0,0
2899,1768831832444,-11,25,1,0,0,0,0,0
2900,1768831832777,-4,32,-26,0,0,0,0,0
2901,1768831832995,220,33,1,0,0,0,0,0
2902,1768831833160,-44,48,12,0,0,0,0,0
2903,1768831833310,-28,53,-7,0,0,0,0,0
2904,1768831833709,-14,42,-5,0,0,0,0,0
2905,1768831833925,-6,39,2,0,0,0,0,0
2906,1768831834142,-31,53,-14,0,0,0,0,0
2907,1768831834428,-6,75,-23,0,0,0,0,0
2908,1768831834609,37,20,-4,0,0,0,0,0
2909,1768831834761,-5,34,-11,0,0,0,0,0
2910,1768831834994,-9,30,-11,0,0,0,0,0
2911,1768831835061,2,49,-1,0,0,0,0,0
2912,1768831835393,-31,56,1,0,0,0,0,0
2913,1768831835827,10,17,-15,0,0,0,0,0
2914,1768831836009,13,-36,16,0,0,0,0,0
2915,1768831836143,6,-59,27,0,0,0,0,0
2916,1768831836527,31,-195,-15,0,0,0,0,0
2917,1768831836976,44,-195,-10,0,0,0,0,0
2918,1768831837195,40,-182,29,0,0,0,0,0
2919,1768831837461,2,-101,9,0,0,0,0,0
2920,1768831837810,-39,73,24,0,0,0,0,0
2921,1768831838076,14,168,-22,0,0,0,0,0
2922,1768831838476,-45,373,-49,0,0,0,0,0
2923,1768831838559,-14,322,-43,0,0,0,0,0
2924,1768831838943,-11,314,11,0,0,0,0,0
2925,1768831839262,-44,276,-7,0,0,0,0,0
2926,1768831839592,-41,230,-6,0,0,0,0,0
2927,1768831839875,-38,226,6,0,0,0,0,0
2928,1768831839960,-21,194,-6,0,0,0,0,0
2929,1768831840127,-46,187,8,0,0,0,0,0
2930,1768831840361,-27,177,15,0,0,0,0,0
2931,1768831840576,-20,151,7,0,0,0,0,0
2932,1768831840844,-21,143,4,0,0,0,0,0
2933,1768831840874,-13,96,-8,0,0,0,0,0
2934,1768831841111,-24,96,11,0,0,0,0,0
2935,1768831841593,-21,38,-1,0,0,0,0,0
2936,1768831841745,-21,35,0,0,0,0,0,0
2937,1768831842093,-1,10,1,0,0,0,0,0
2938,1768831842210,-10,15,2,0,0,0,0,0
2939,1768831842543,-14,28,2,0,0,0,0,0
2940,1768831842893,-9,39,-1,0,0,0,0,0
2941,1768831843378,-15,57,2,0,0,0,0,0
2942,1768831843694,-17,86,2,0,0,0,0,0
2943,1768831843794,-15,92,-4,0,0,0,0,0
2944,1768831844162,-24,116,-1,0,0,0,0,0
2945,1768831844380,-17,135,4,0,0,0,0,0
2946,1768831844628,-31,154,-2,0,0,0,0,0
2947,1768831844993,-33,188,10,0,0,0,0,0
2948,1768831845228,-18,177,-14,0,0,0,0,0
2949,1768831845393,-28,198,-23,0,0,0,0,0
2950,1768831845562,-27,229,-7,0,0,0,0,0
2951,1768831845911,-16,238,-2,0,0,0,0,0
2952,1768831846310,-1,250,-12,0,0,0,0,0
2953,1768831846494,-43,269,-15,0,0,0,0,0
2954,1768831846843,-40,264,3,0,0,0,0,0
2955,1768831847076,-9,242,-28,0,0,0,0,0
2956,1768831847410,-22,261,-5,0,0,0,0,0
2957,1768831847525,-20,272,-14,0,0,0,0,0
2958,1768831847909,-36,266,-19,0,0,0,0,0
2959,1768831848260,-22,270,-8,0,0,0,0,0
2960,1768831848327,-36,262,-14,0,0,0,0,0
2961,1768831848393,-41,276,-18,0,0,0,0,0
2962,1768831848777,-34,296,-13,0,0,0,0,0
2963,1768831848841,-28,290,-6,0,0,0,0,0
2964,1768831849293,-13,260,-14,0,0,0,0,0
2965,1768831849526,-40,299,-24,0,0,0,0,0
2966,1768831849776,-39,265,11,0,0,0,0,0
2967,1768831849976,-19,276,32,0,0,0,0,0
2968,1768831850294,-44,273,-22,0,0,0,0,0
2969,1768831850843,-32,237,-10,0,0,0,0,0
2970,1768831850910,-20,224,-29,0,0,0,0,0
2971,1768831850959,-17,157,18,0,0,0,0,0
2972,1768831851292,-24,159,-13,0,0,0,0,0
2973,1768831851392,-25,114,-13,0,0,0,0,0
2974,1768831851845,-27,12,5,0,0,0,0,0
2975,1768831852091,-14,26,-1,0,0,0,0,0
2976,1768831852577,-7,19,-1,0,0,0,0,0
2977,1768831852927,-10,16,2,0,0,0,0,0
2978,1768831853210,-9,16,2,0,0,0,0,0
2979,1768831853460,-9,18,1,0,0,0,0,0
2980,1768831853743,-10,14,1,0,0,0,0,0
2981,1768831853993,-7,17,1,0,0,0,0,0
2982,1768831854226,-11,17,2,0,0,0,0,0
2983,1768831854293,-5,20,1,0,0,0,0,0
2984,1768831854743,-11,19,5,0,0,0,0,0
2985,1768831854960,-11,15,1,0,0,0,0,0
2986,1768831855143,-10,19,0,0,0,0,0,0
2987,1768831855443,-11,15,-4,0,0,0,0,0
2988,1768831855642,-24,25,1,0,0,0,0,0
2989,1768831855976,-11,14,3,0,0,0,0,0
2990,1768831856491,-10,18,1,0,0,0,0,0
2991,1768831856758,-9,16,0,0,0,0,0,0
2992,1768831856841,-10,20,2,0,0,0,0,0
2993,1768831857159,-12,19,3,0,0,0,0,0
2994,1768831857226,-10,29,1,0,0,0,0,0
2995,1768831857359,-11,28,1,0,0,0,0,0
2996,1768831857856,-8,37,-2,0,0,0,0,0
2997,1768831978915,-11,15,1,0,0,0,0,0
2998,1768831979048,-8,17,2,0,0,0,0,0
2999,1768831979218,-9,17,1,0,0,0,0,0
3000,1768831979387,-10,12,0,0,0,0,0,0
3001,1768831979515,-7,16,4,0,0,0,0,0
3002,1768831979748,-9,18,2,0,0,0,0,0
3003,1768831979830,-10,17,3,0,0,0,0,0
3004,1768831980077,-11,17,1,0,0,0,0,0
3005,1768831980201,-10,17,0,0,0,0,0,0
3006,1768831980533,-10,17,1,0,0,0,0,0
3007,1768831980759,-10,18,2,0,0,0,0,0
3008,1768831981021,-8,17,1,0,0,0,0,0
3009,1768831981328,-9,18,2,0,0,0,0,0
3010,1768831981828,-9,18,2,0,0,0,0,0
3011,1768831982111,-11,17,2,0,0,0,0,0
3012,1768831982443,-10,16,1,0,0,0,0,0
3013,1768831982710,-10,17,1,0,0,0,0,0
3014,1768831983093,-9,16,1,0,0,0,0,0
3015,1768831983242,-10,16,1,0,0,0,0,0
3016,1768831983460,-11,17,1,0,0,0,0,0
3017,1768831983910,-10,19,1,0,0,0,0,0
3018,1768831984159,-9,17,1,0,0,0,0,0
3019,1768831984427,-10,17,1,0,0,0,0,0
3020,1768831984676,-11,17,3,0,0,0,0,0
3021,1768831984777,-8,17,2,0,0,0,0,0
3022,1768831985243,-11,18,1,0,0,0,0,0
3023,1768831985627,-10,17,2,0,0,0,0,0
3024,1768831985894,-9,18,0,0,0,0,0,0
3025,1768831986060,-10,17,1,0,0,0,0,0
3026,1768831986361,-10,17,1,0,0,0,0,0
3027,1768831986760,-8,17,1,0,0,0,0,0
3028,1768831986930,-8,17,1,0,0,0,0,0
3029,1768831987094,-11,16,2,0,0,0,0,0
3030,1768831987445,-10,17,2,0,0,0,0,0
3031,1768831987660,-9,16,2,0,0,0,0,0
3032,1768831987778,-9,17,2,0,0,0,0,0
3033,1768831988027,-10,18,1,0,0,0,0,0
3034,1768831988400,-10,16,1,0,0,0,0,0
3035,1768831988894,-10,17,2,0,0,0,0,0
3036,1768831989145,-11,18,1,0,0,0,0,0
3037,1768831989227,-7,17,2,0,0,0,0,0
3038,1768831989530,-10,15,1,0,0,0,0,0
3039,1768831989730,-10,17,1,0,0,0,0,0
3040,1768831989879,-11,18,1,0,0,0,0,0
3041,1768831990244,-11,17,2,0,0,0,0,0
3042,1768831990362,-10,17,3,0,0,0,0,0
3043,1768831990564,-9,18,1,0,0,0,0,0
3044,1768831990728,-11,16,2,0,0,0,0,0
3045,1768831991169,-11,17,1,0,0,0,0,0
3046,1768831991512,-10,17,1,0,0,0,0,0
3047,1768831991801,-9,16,1,0,0,0,0,0
3048,1768831991936,-9,17,1,0,0,0,0,0
3049,1768831992276,-9,17,1,0,0,0,0,0
3050,1768831992342,-10,17,1,0,0,0,0,0
3051,1768831992429,-11,16,1,0,0,0,0,0
3052,1768831992757,-10,17,2,0,0,0,0,0
3053,1768831993026,-10,16,2,0,0,0,0,0
3054,1768831993162,-10,18,0,0,0,0,0,0
3055,1768831993431,-10,16,1,0,0,0,0,0
3056,1768831993686,-8,15,1,0,0,0,0,0
3057,1768831993780,-9,16,2,0,0,0,0,0
3058,1768831994045,-9,18,2,0,0,0,0,0
3059,1768831994283,-11,17,1,0,0,0,0,0
3060,1768831994397,-7,17,1,0,0,0,0,0
3061,1768831994858,-9,17,2,0,0,0,0,0
3062,1768831995010,-9,16,0,0,0,0,0,0
3063,1768831995304,-9,17,2,0,0,0,0,0
3064,1768831995583,-10,16,1,0,0,0,0,0
3065,1768831995915,-9,17,2,0,0,0,0,0
3066,1768831996015,-11,17,3,0,0,0,0,0
3067,1768831996259,-10,17,1,0,0,0,0,0
3068,1768831996515,-9,16,2,0,0,0,0,0
3069,1768831996755,-8,17,1,0,0,0,0,0
3070,1768831996845,-9,16,1,0,0,0,0,0
3071,1768831997216,-11,17,2,0,0,0,0,0
3072,1768831997433,-8,17,1,0,0,0,0,0
3073,1768831997561,-9,17,1,0,0,0,0,0
3074,1768831997878,-8,18,1,0,0,0,0,0
3075,1768831997994,-10,16,2,0,0,0,0,0
3076,1768831998212,-8,17,2,0,0,0,0,0
3077,1768831998294,-9,16,1,0,0,0,0,0
3078,1768831998445,-10,16,2,0,0,0,0,0
3079,1768831998753,-8,17,0,0,0,0,0,0
3080,1768831999078,-8,17,2,0,0,0,0,0
3081,1768831999512,-9,15,2,0,0,0,0,0
3082,1768831999627,-10,16,0,0,0,0,0,0
3083,1768831999843,-8,17,2,0,0,0,0,0
3084,1768831999928,-11,16,0,0,0,0,0,0
3085,1768832000276,-9,16,1,0,0,0,0,0
3086,1768832000526,-9,15,1,0,0,0,0,0
3087,1768832000794,-10,17,2,0,0,0,0,0
3088,1768832001130,-8,17,1,0,0,0,0,0
3089,1768832001413,-11,16,1,0,0,0,0,0
3090,1768832001544,-9,16,1,0,0,0,0,0
3091,1768832001676,-9,16,3,0,0,0,0,0
3092,1768832001978,-10,15,1,0,0,0,0,0
3093,1768832002011,-9,17,2,0,0,0,0,0
3094,1768832002242,-10,18,2,0,0,0,0,0
3095,1768832002628,-8,15,2,0,0,0,0,0
3096,1768832002843,-9,16,2,0,0,0,0,0
3097,1768832002961,-8,19,0,0,0,0,0,0
3098,1768832003061,-7,17,1,0,0,0,0,0
3099,1768832003476,-8,16,2,0,0,0,0,0
3100,1768832003660,-11,17,2,0,0,0,0,0
3101,1768832003826,-10,18,2,0,0,0,0,0
3102,1768832004078,-10,17,1,0,0,0,0,0
3103,1768832004343,-8,17,2,0,0,0,0,0
3104,1768832004526,-9,18,2,0,0,0,0,0
3105,1768832004660,-10,15,2,0,0,0,0,0
3106,1768832004859,-8,18,1,0,0,0,0,0
3107,1768832005226,-8,15,3,0,0,0,0,0
3108,1768832005510,-9,17,1,0,0,0,0,0
3109,1768832005831,-10,17,2,0,0,0,0,0
3110,1768832005944,-8,18,1,0,0,0,0,0
3111,1768832005978,-9,16,1,0,0,0,0,0
3112,1768832006193,-10,16,1,0,0,0,0,0
3113,1768832006492,-9,16,0,0,0,0,0,0
3114,1768832006643,-10,16,0,0,0,0,0,0
3115,1768832006878,-10,15,1,0,0,0,0,0
3116,1768832007177,-8,16,1,0,0,0,0,0
3117,1768832007445,-10,15,2,0,0,0,0,0
3118,1768832007694,-9,16,1,0,0,0,0,0
3119,1768832007959,-9,16,2,0,0,0,0,0
3120,1768832008412,-10,18,1,0,0,0,0,0
3121,1768832008877,-10,16,2,0,0,0,0,0
3122,1768832009346,-9,17,1,0,0,0,0,0
3123,1768832009559,-9,17,1,0,0,0,0,0
3124,1768832009609,-9,17,2,0,0,0,0,0
3125,1768832009859,-10,16,1,0,0,0,0,0
3126,1768832010109,-11,16,0,0,0,0,0,0
3127,1768832010394,-9,16,1,0,0,0,0,0
3128,1768832010495,-9,15,2,0,0,0,0,0
3129,1768832010759,-11,17,1,0,0,0,0,0
3130,1768832010842,-8,15,0,0,0,0,0,0
3131,1768832011143,-8,18,2,0,0,0,0,0
3132,1768832011361,-9,16,2,0,0,0,0,0
3133,1768832011628,-10,17,1,0,0,0,0,0
3134,1768832011976,-10,17,2,0,0,0,0,0
3135,1768832012194,-9,16,2,0,0,0,0,0
3136,1768832012360,-9,16,0,0,0,0,0,0
3137,1768832012393,-9,16,3,0,0,0,0,0
3138,1768832012726,-10,16,1,0,0,0,0,0
3139,1768832012876,-9,17,2,0,0,0,0,0
3140,1768832013177,-9,16,1,0,0,0,0,0
3141,1768832013446,-9,17,1,0,0,0,0,0
3142,1768832013542,-8,17,0,0,0,0,0,0
3143,1768832013778,-10,16,1,0,0,0,0,0
3144,1768832014026,-9,17,1,0,0,0,0,0
3145,1768832014309,-9,16,0,0,0,0,0,0
3146,1768832014379,-8,17,1,0,0,0,0,0
3147,1768832014709,-8,16,2,0,0,0,0,0
3148,1768832014859,-10,15,2,0,0,0,0,0
3149,1768832014926,-10,17,1,0,0,0,0,0
3150,1768832015212,-7,16,0,0,0,0,0,0
3151,1768832015278,-10,15,1,0,0,0,0,0
3152,1768832015445,-9,15,1,0,0,0,0,0
3153,1768832015611,-8,17,1,0,0,0,0,0
3154,1768832015777,-9,16,1,0,0,0,0,0
3155,1768832015844,-9,17,2,0,0,0,0,0
3156,1768832016009,-9,17,1,0,0,0,0,0
3157,1768832016043,-8,18,1,0,0,0,0,0
3158,1768832016109,-9,18,1,0,0,0,0,0
3159,1768832016161,-11,17,0,0,0,0,0,0
3160,1768832016326,-8,17,0,0,0,0,0,0
3161,1768832016509,-9,17,2,0,0,0,0,0
3162,1768832016823,-9,17,1,0,0,0,0,0
3163,1768832016823,-10,16,1,0,0,0,0,0
3164,1768832016895,-11,17,2,0,0,0,0,0
3165,1768832017061,-8,17,1,0,0,0,0,0
3166,1768832017126,-9,17,1,0,0,0,0,0
3167,1768832017193,-10,18,1,0,0,0,0,0
3168,1768832017362,-9,16,2,0,0,0,0,0
3169,1768832017426,-9,16,1,0,0,0,0,0
3170,1768832017576,-10,18,0,0,0,0,0,0
3171,1768832017762,-9,16,1,0,0,0,0,0
3172,1768832017916,-8,16,0,0,0,0,0,0
3173,1768832017995,-9,16,2,0,0,0,0,0
3174,1768832018149,-10,17,3,0,0,0,0,0
3175,1768832018276,-9,16,2,0,0,0,0,0
3176,1768832018328,-10,17,3,0,0,0,0,0
3177,1768832018493,-10,17,0,0,0,0,0,0
3178,1768832018677,-9,16,1,0,0,0,0,0
3179,1768832018728,-10,17,3,0,0,0,0,0
3180,1768832018911,-9,16,2,0,0,0,0,0
3181,1768832018976,-9,16,1,0,0,0,0,0
3182,1768832019128,-11,16,1,0,0,0,0,0
3183,1768832019309,-9,16,1,0,0,0,0,0
3184,1768832019459,-10,17,1,0,0,0,0,0
3185,1768832019626,-8,16,2,0,0,0,0,0
3186,1768832019692,-10,17,1,0,0,0,0,0
3187,1768832019845,-9,18,2,0,0,0,0,0
3188,1768832019909,-10,17,2,0,0,0,0,0
3189,1768832020078,-8,16,0,0,0,0,0,0
3190,1768832020259,-9,16,2,0,0,0,0,0
3191,1768832020577,-9,19,1,0,0,0,0,0
3192,1768832020728,-9,16,1,0,0,0,0,0
3193,1768832020793,-9,17,0,0,0,0,0,0
3194,1768832020959,-10,16,1,0,0,0,0,0
3195,1768832021144,-9,16,2,0,0,0,0,0
3196,1768832021310,-9,17,1,0,0,0,0,0
