index,date,GYRO_X,GYRO_Y,GYRO_Z
0,1782589765926,0.070000000000000007,-0.48999999999999999,0.070000000000000007
1,1782589765926,0.20999999999999999,-0.69999999999999996,0.070000000000000007
2,1782589765926,0.14000000000000001,-0.48999999999999999,0
3,1782589765926,0.14000000000000001,-0.28000000000000003,0
4,1782589765926,0.14000000000000001,-0.69999999999999996,0
5,1782589765926,0.14000000000000001,-0.56000000000000005,0
6,1782589765926,0.14000000000000001,-0.48999999999999999,0
7,1782589765926,0.20999999999999999,-0.48999999999999999,0
8,1782589765926,0.20999999999999999,-0.48999999999999999,0
9,1782589765926,0.20999999999999999,-0.48999999999999999,0
10,1782589765926,0.14000000000000001,-0.56000000000000005,0
11,1782589765926,0.14000000000000001,-0.56000000000000005,0
12,1782589765926,0.14000000000000001,-0.56000000000000005,0
13,1782589765926,0.14000000000000001,-0.48999999999999999,0
14,1782589765926,0.14000000000000001,-0.56000000000000005,0
15,1782589765926,0.20999999999999999,-0.48999999999999999,0
16,1782589765927,0.20999999999999999,-0.48999999999999999,0
17,1782589765927,0.20999999999999999,-0.48999999999999999,0
18,1782589765927,0.20999999999999999,-0.48999999999999999,0
19,1782589765927,0.20999999999999999,-0.56000000000000005,0
20,1782589765927,0.20999999999999999,-0.56000000000000005,0
21,1782589765927,0.14000000000000001,-0.56000000000000005,-0.070000000000000007
22,1782589765927,0.14000000000000001,-0.56000000000000005,-0.070000000000000007
23,1782589765927,0.14000000000000001,-0.56000000000000005,-0.070000000000000007
24,1782589765927,0.14000000000000001,-0.48999999999999999,0
25,1782589765927,0.14000000000000001,-0.48999999999999999,0
26,1782589765927,0.14000000000000001,-0.48999999999999999,0
27,1782589765928,0.14000000000000001,-0.48999999999999999,0
28,1782589765928,0.20999999999999999,-0.56000000000000005,0
29,1782589766190,0.20999999999999999,-0.56000000000000005,0
30,1782589766190,0.20999999999999999,-0.56000000000000005,0
31,1782589766190,0.20999999999999999,-0.56000000000000005,0.070000000000000007
32,1782589766223,0.20999999999999999,-0.56000000000000005,0
33,1782589766323,0.20999999999999999,-0.56000000000000005,0
34,1782589766390,0.28000000000000003,-0.56000000000000005,0.070000000000000007
35,1782589766439,0.20999999999999999,-0.56000000000000005,0
36,1782589766490,0.20999999999999999,-0.56000000000000005,-0.070000000000000007
37,1782589766540,0.20999999999999999,-0.56000000000000005,-0.070000000000000007
38,1782589766590,0.20999999999999999,-0.56000000000000005,-0.070000000000000007
39,1782589766640,0.20999999999999999,-0.56000000000000005,0
40,1782589766690,0.20999999999999999,-0.56000000000000005,0
41,1782589766773,0.20999999999999999,-0.56000000000000005,0
42,1782589766773,0.20999999999999999,-0.56000000000000005,0
43,1782589766839,0.20999999999999999,-0.56000000000000005,0
44,1782589766873,0.20999999999999999,-0.48999999999999999,0
45,1782589766939,0.28000000000000003,-0.48999999999999999,0
46,1782589766989,0.28000000000000003,-0.48999999999999999,0
47,1782589767073,0.20999999999999999,-0.48999999999999999,0
48,1782589767139,0.20999999999999999,-0.48999999999999999,0
49,1782589767189,0.20999999999999999,-0.48999999999999999,0
50,1782589767394,0.20999999999999999,-0.48999999999999999,-0.070000000000000007
51,1782589767456,0.20999999999999999,-0.48999999999999999,-0.070000000000000007
52,1782589767523,0.20999999999999999,-0.48999999999999999,-0.070000000000000007
53,1782589767606,0.20999999999999999,-0.48999999999999999,-0.070000000000000007
54,1782589767740,0.28000000000000003,-0.48999999999999999,0
55,1782589767823,0.14000000000000001,-0.48999999999999999,0
56,1782589767872,0.14000000000000001,-0.48999999999999999,0
57,1782589767938,0.20999999999999999,-0.48999999999999999,0.070000000000000007
58,1782589767956,0.20999999999999999,-0.48999999999999999,0.070000000000000007
59,1782589768006,0.20999999999999999,-0.48999999999999999,0
60,1782589768056,0.20999999999999999,-0.48999999999999999,0
61,1782589768224,0.14000000000000001,-0.48999999999999999,0
62,1782589768238,0.14000000000000001,-0.48999999999999999,0
63,1782589768256,0.14000000000000001,-0.48999999999999999,0
64,1782589768305,0.20999999999999999,-0.48999999999999999,0
65,1782589768372,0.20999999999999999,-0.48999999999999999,0
66,1782589768423,0.20999999999999999,-0.48999999999999999,0
67,1782589768456,0.20999999999999999,-0.48999999999999999,0
68,1782589768523,0.20999999999999999,-0.48999999999999999,0
69,1782589768623,0.20999999999999999,-0.48999999999999999,0
70,1782589768638,0.20999999999999999,-0.48999999999999999,0
71,1782589768655,0.28000000000000003,-0.48999999999999999,0
72,1782589768689,0.28000000000000003,-0.56000000000000005,0
73,1782589768722,0.28000000000000003,-0.56000000000000005,0
74,1782589768755,0.20999999999999999,-0.56000000000000005,0
75,1782589768788,0.20999999999999999,-0.56000000000000005,0
76,1782589768822,0.20999999999999999,-0.56000000000000005,0
77,1782589768838,0.20999999999999999,-0.56000000000000005,0
78,1782589768872,0.28000000000000003,-0.56000000000000005,0.070000000000000007
79,1782589768905,0.20999999999999999,-0.48999999999999999,0
80,1782589768954,0.14000000000000001,-0.48999999999999999,0
81,1782589769005,0.14000000000000001,-0.48999999999999999,0.070000000000000007
82,1782589769071,0.14000000000000001,-0.48999999999999999,0.070000000000000007
83,1782589769106,0.28000000000000003,-0.56000000000000005,0
84,1782589769238,0.28000000000000003,-0.56000000000000005,0
85,1782589769305,0.28000000000000003,-0.48999999999999999,0
86,1782589769337,0.20999999999999999,-0.48999999999999999,0
87,1782589769388,0.28000000000000003,-0.48999999999999999,0
88,1782589769405,0.28000000000000003,-0.48999999999999999,0
89,1782589769439,0.28000000000000003,-0.48999999999999999,0
90,1782589769654,0.28000000000000003,-0.48999999999999999,0
91,1782589769738,0.28000000000000003,-0.48999999999999999,0
92,1782589769754,0.28000000000000003,-0.48999999999999999,0
93,1782589769787,0.28000000000000003,-0.48999999999999999,0
94,1782589769821,0.20999999999999999,-0.48999999999999999,0
95,1782589769854,0.20999999999999999,-0.48999999999999999,0
96,1782589769954,0.20999999999999999,-0.63,0
97,1782589769971,0.20999999999999999,-0.63,0
98,1782589770003,0.20999999999999999,-0.63,0
99,1782589770038,0.28000000000000003,-0.56000000000000005,0
100,1782589770137,0.28000000000000003,-0.48999999999999999,0
101,1782589770203,0.20999999999999999,-0.56000000000000005,0
102,1782589770237,0.20999999999999999,-0.56000000000000005,0
103,1782589770353,0.20999999999999999,-0.56000000000000005,0
104,1782589770437,0.20999999999999999,-0.56000000000000005,0
105,1782589770453,0.20999999999999999,-0.56000000000000005,0
106,1782589770503,0.14000000000000001,-0.63,0
107,1782589770537,0.14000000000000001,-0.41999999999999998,0
108,1782589770720,0.20999999999999999,-0.63,0
109,1782589770770,0.20999999999999999,-0.48999999999999999,0
110,1782589770853,0.28000000000000003,-0.48999999999999999,0
111,1782589770903,0.14000000000000001,-0.48999999999999999,0
112,1782589771003,0.14000000000000001,-0.48999999999999999,0
113,1782589771053,0.20999999999999999,-0.48999999999999999,0.070000000000000007
114,1782589771119,0.20999999999999999,-0.48999999999999999,0.070000000000000007
115,1782589771219,0.20999999999999999,-0.48999999999999999,0.070000000000000007
116,1782589771252,0.20999999999999999,-0.48999999999999999,0
117,1782589771320,0.20999999999999999,-0.48999999999999999,0
118,1782589771402,0.28000000000000003,-0.48999999999999999,0
119,1782589771469,0.20999999999999999,-0.48999999999999999,0
120,1782589771536,0.28000000000000003,-0.48999999999999999,0.070000000000000007
121,1782589771569,0.28000000000000003,-0.56000000000000005,0
122,1782589771602,0.20999999999999999,-0.48999999999999999,0
123,1782589771619,0.28000000000000003,-0.48999999999999999,0
124,1782589771686,0.20999999999999999,-0.48999999999999999,0.070000000000000007
125,1782589771735,0.28000000000000003,-0.48999999999999999,0.070000000000000007
126,1782589771786,0.28000000000000003,-0.48999999999999999,0.070000000000000007
127,1782589771852,0.20999999999999999,-0.48999999999999999,0.070000000000000007
128,1782589772002,0.14000000000000001,-0.56000000000000005,0
129,1782589772052,0.14000000000000001,-0.56000000000000005,0
130,1782589772102,0.14000000000000001,-0.48999999999999999,0
131,1782589772185,0.20999999999999999,-0.48999999999999999,0
132,1782589772219,0.20999999999999999,-0.48999999999999999,0
133,1782589772285,0.20999999999999999,-0.41999999999999998,0
134,1782589772335,0.20999999999999999,-0.56000000000000005,0
135,1782589772401,0.14000000000000001,-0.56000000000000005,0
136,1782589772468,0.20999999999999999,-0.48999999999999999,0.070000000000000007
137,1782589772602,0.20999999999999999,-0.48999999999999999,0
138,1782589772651,0.14000000000000001,-0.48999999999999999,0
139,1782589772701,0.20999999999999999,-0.48999999999999999,0
140,1782589772718,0.20999999999999999,-0.48999999999999999,0
141,1782589772734,0.20999999999999999,-0.48999999999999999,0
142,1782589772867,0.20999999999999999,-0.48999999999999999,0
143,1782589772984,0.20999999999999999,-0.48999999999999999,0
144,1782589773018,0.20999999999999999,-0.48999999999999999,0
145,1782589773051,0.20999999999999999,-0.48999999999999999,0
146,1782589773068,0.20999999999999999,-0.48999999999999999,0
147,1782589773085,0.20999999999999999,-0.48999999999999999,0
148,1782589773118,0.20999999999999999,-0.48999999999999999,0
149,1782589773234,0.20999999999999999,-0.48999999999999999,0
150,1782589773301,0.14000000000000001,-0.56000000000000005,0
151,1782589773368,0.14000000000000001,-0.48999999999999999,0
152,1782589773401,0.20999999999999999,-0.48999999999999999,0
153,1782589773483,0.20999999999999999,-0.48999999999999999,0
154,1782589773517,0.20999999999999999,-0.48999999999999999,0
155,1782589773534,0.20999999999999999,-0.48999999999999999,0
156,1782589773601,0.28000000000000003,-0.56000000000000005,0.070000000000000007
157,1782589773667,0.20999999999999999,-0.56000000000000005,0
158,1782589773701,0.20999999999999999,-0.48999999999999999,0.070000000000000007
159,1782589773734,0.20999999999999999,-0.56000000000000005,0.070000000000000007
160,1782589773767,0.20999999999999999,-0.48999999999999999,0.070000000000000007
161,1782589773784,0.20999999999999999,-0.48999999999999999,0
162,1782589773801,0.20999999999999999,-0.48999999999999999,0.070000000000000007
163,1782589773850,0.20999999999999999,-0.48999999999999999,0
164,1782589773901,0.20999999999999999,-0.48999999999999999,0
165,1782589773901,0.20999999999999999,-0.41999999999999998,0
166,1782589774067,0.20999999999999999,-0.56000000000000005,0
167,1782589774100,0.28000000000000003,-0.56000000000000005,0
168,1782589774184,0.14000000000000001,-0.48999999999999999,0
169,1782589774216,0.14000000000000001,-0.48999999999999999,0
170,1782589774233,0.14000000000000001,-0.48999999999999999,0
171,1782589774266,0.14000000000000001,-0.56000000000000005,0
172,1782589774283,0.14000000000000001,-0.56000000000000005,0
173,1782589774383,0.14000000000000001,-0.56000000000000005,0
174,1782589774500,0.20999999999999999,-0.48999999999999999,0
175,1782589774550,0.20999999999999999,-0.48999999999999999,0
176,1782589774583,0.20999999999999999,-0.56000000000000005,0.070000000000000007
177,1782589774600,0.20999999999999999,-0.56000000000000005,0.070000000000000007
178,1782589774617,0.20999999999999999,-0.56000000000000005,0.070000000000000007
179,1782589774650,0.20999999999999999,-0.56000000000000005,0.070000000000000007
180,1782589774716,0.20999999999999999,-0.56000000000000005,0
181,1782589774733,0.20999999999999999,-0.56000000000000005,0
182,1782589774800,0.20999999999999999,-0.56000000000000005,0
183,1782589774849,0.20999999999999999,-0.56000000000000005,0
184,1782589774966,0.20999999999999999,-0.56000000000000005,0
185,1782589774983,0.28000000000000003,-0.48999999999999999,0
186,1782589775083,0.20999999999999999,-0.48999999999999999,0
187,1782589775199,0.14000000000000001,-0.48999999999999999,0
188,1782589775232,0.14000000000000001,-0.48999999999999999,0
189,1782589775316,0.20999999999999999,-0.56000000000000005,0
190,1782589775365,0.20999999999999999,-0.56000000000000005,0
191,1782589775416,0.20999999999999999,-0.56000000000000005,0
192,1782589775449,0.20999999999999999,-0.56000000000000005,0
193,1782589775516,0.20999999999999999,-0.48999999999999999,0
194,1782589775549,0.20999999999999999,-0.48999999999999999,0
195,1782589775615,0.20999999999999999,-0.48999999999999999,0
196,1782589775699,0.28000000000000003,-0.48999999999999999,0
197,1782589775815,0.20999999999999999,-0.48999999999999999,0
198,1782589775866,0.20999999999999999,-0.48999999999999999,0
199,1782589775949,0.20999999999999999,-0.48999999999999999,0
200,1782589776049,0.20999999999999999,-0.56000000000000005,0
201,1782589776099,0.20999999999999999,-0.56000000000000005,0
202,1782589776132,0.20999999999999999,-0.48999999999999999,0
203,1782589776231,0.20999999999999999,-0.48999999999999999,0
204,1782589776282,0.20999999999999999,-0.48999999999999999,0
205,1782589776331,0.20999999999999999,-0.48999999999999999,0
206,1782589776382,0.20999999999999999,-0.48999999999999999,0
207,1782589776465,0.20999999999999999,-0.48999999999999999,-0.070000000000000007
208,1782589776614,0.20999999999999999,-0.48999999999999999,0
209,1782589776649,0.20999999999999999,-0.48999999999999999,0
210,1782589776715,0.20999999999999999,-0.48999999999999999,0
211,1782589776814,0.20999999999999999,-0.48999999999999999,0
212,1782589777181,0.28000000000000003,-0.48999999999999999,0.070000000000000007
213,1782589777181,0.28000000000000003,-0.56000000000000005,0.070000000000000007
214,1782589777181,0.20999999999999999,-0.48999999999999999,0
215,1782589777198,0.20999999999999999,-0.48999999999999999,0
216,1782589777247,0.20999999999999999,-0.41999999999999998,0
217,1782589777332,0.28000000000000003,-0.48999999999999999,0
218,1782589777397,0.20999999999999999,-0.56000000000000005,0
219,1782589777464,0.20999999999999999,-0.48999999999999999,0
220,1782589777548,0.28000000000000003,-0.56000000000000005,0
221,1782589777598,0.14000000000000001,-0.56000000000000005,0
222,1782589777664,0.14000000000000001,-0.56000000000000005,0
223,1782589777714,0.14000000000000001,-0.56000000000000005,0
224,1782589777764,0.20999999999999999,-0.48999999999999999,0
225,1782589777814,0.20999999999999999,-0.48999999999999999,0
226,1782589777831,0.20999999999999999,-0.56000000000000005,0
227,1782589777847,0.20999999999999999,-0.56000000000000005,0
228,1782589777865,0.20999999999999999,-0.56000000000000005,0
229,1782589777913,0.20999999999999999,-0.56000000000000005,0
230,1782589777981,0.20999999999999999,-0.56000000000000005,0
231,1782589778113,0.20999999999999999,-0.48999999999999999,0
232,1782589778148,0.14000000000000001,-0.48999999999999999,0
233,1782589778181,0.20999999999999999,-0.48999999999999999,0
234,1782589778214,0.20999999999999999,-0.48999999999999999,0
235,1782589778247,0.20999999999999999,-0.48999999999999999,0
236,1782589778280,0.20999999999999999,-0.48999999999999999,0
237,1782589778346,0.20999999999999999,-0.56000000000000005,0
238,1782589778346,0.28000000000000003,-0.48999999999999999,0
239,1782589778413,0.20999999999999999,-0.48999999999999999,-0.070000000000000007
240,1782589778464,0.20999999999999999,-0.48999999999999999,0
241,1782589778514,0.20999999999999999,-0.48999999999999999,0
242,1782589778531,0.20999999999999999,-0.48999999999999999,0
243,1782589778613,0.20999999999999999,-0.56000000000000005,0
244,1782589778647,0.20999999999999999,-0.48999999999999999,0
245,1782589778663,0.14000000000000001,-0.56000000000000005,0
246,1782589778697,0.20999999999999999,-0.48999999999999999,0
247,1782589778713,0.20999999999999999,-0.48999999999999999,0
248,1782589778763,0.20999999999999999,-0.48999999999999999,0
249,1782589778797,0.20999999999999999,-0.48999999999999999,0
250,1782589778864,0.20999999999999999,-0.48999999999999999,0
251,1782589778929,0.20999999999999999,-0.48999999999999999,0
252,1782589778997,0.20999999999999999,-0.48999999999999999,0
253,1782589779014,0.14000000000000001,-0.56000000000000005,0
254,1782589779047,0.14000000000000001,-0.56000000000000005,0
255,1782589779063,0.14000000000000001,-0.48999999999999999,-0.070000000000000007
256,1782589779081,0.20999999999999999,-0.56000000000000005,0
257,1782589779130,0.20999999999999999,-0.48999999999999999,-0.070000000000000007
258,1782589779179,0.28000000000000003,-0.48999999999999999,-0.070000000000000007
259,1782589779246,0.28000000000000003,-0.48999999999999999,0
260,1782589779313,0.14000000000000001,-0.41999999999999998,0
261,1782589779346,0.14000000000000001,-0.41999999999999998,0
262,1782589779379,0.14000000000000001,-0.41999999999999998,0
263,1782589779396,0.20999999999999999,-0.48999999999999999,0
264,1782589779412,0.20999999999999999,-0.48999999999999999,0
265,1782589779496,0.20999999999999999,-0.48999999999999999,0
266,1782589779646,0.14000000000000001,-0.56000000000000005,0
267,1782589779679,0.14000000000000001,-0.56000000000000005,0
268,1782589779729,0.14000000000000001,-0.56000000000000005,0
269,1782589779746,0.14000000000000001,-0.56000000000000005,0
270,1782589779762,0.14000000000000001,-0.56000000000000005,0
271,1782589779795,0.20999999999999999,-0.56000000000000005,0
272,1782589779829,0.20999999999999999,-0.56000000000000005,0.070000000000000007
273,1782589779929,0.20999999999999999,-0.56000000000000005,0
274,1782589779996,0.20999999999999999,-0.56000000000000005,0
275,1782589780012,0.20999999999999999,-0.56000000000000005,0
276,1782589780029,0.20999999999999999,-0.56000000000000005,0
277,1782589780061,0.20999999999999999,-0.56000000000000005,0
278,1782589780079,0.20999999999999999,-0.48999999999999999,-0.070000000000000007
279,1782589780278,0.28000000000000003,-0.48999999999999999,0
280,1782589780295,0.28000000000000003,-0.41999999999999998,-0.070000000000000007
281,1782589780328,0.20999999999999999,-0.41999999999999998,-0.070000000000000007
282,1782589780345,0.14000000000000001,-0.41999999999999998,-0.070000000000000007
283,1782589780378,0.14000000000000001,-0.41999999999999998,-0.070000000000000007
284,1782589780461,0.070000000000000007,-0.48999999999999999,-0.070000000000000007
285,1782589780511,0.14000000000000001,-0.48999999999999999,-0.070000000000000007
286,1782589780579,0.070000000000000007,-0.48999999999999999,0
287,1782589780644,0.14000000000000001,-0.56000000000000005,0
288,1782589780661,0.14000000000000001,-0.56000000000000005,0.070000000000000007
289,1782589780696,0.28000000000000003,-0.48999999999999999,-0.14000000000000001
290,1782589780745,0.28000000000000003,-0.48999999999999999,-0.14000000000000001
291,1782589780811,0.28000000000000003,-0.48999999999999999,-0.14000000000000001
292,1782589780861,0.41999999999999998,-0.48999999999999999,-0.14000000000000001
293,1782589780894,0.41999999999999998,-0.48999999999999999,-0.070000000000000007
294,1782589780944,0.41999999999999998,-0.48999999999999999,0.070000000000000007
295,1782589781028,0.83999999999999997,-0.97999999999999998,0.14000000000000001
296,1782589781061,0.83999999999999997,-0.91000000000000003,0.34999999999999998
297,1782589781094,0.28000000000000003,-0.91000000000000003,0.41999999999999998
298,1782589781111,-0.69999999999999996,-0.63,0.41999999999999998
299,1782589781127,-0.69999999999999996,-0.56000000000000005,0.41999999999999998
300,1782589781162,-0.69999999999999996,-0.56000000000000005,0.14000000000000001
301,1782589781195,-0.48999999999999999,-0.28000000000000003,-0.14000000000000001
302,1782589781261,-0.48999999999999999,-0.20999999999999999,-0.28000000000000003
303,1782589781294,-0.48999999999999999,-0.14000000000000001,-0.41999999999999998
304,1782589781377,0.20999999999999999,-0.48999999999999999,-0.14000000000000001
305,1782589781427,0.41999999999999998,-0.48999999999999999,-0.14000000000000001
306,1782589781478,0.41999999999999998,-0.48999999999999999,-0.070000000000000007
307,1782589781527,0.41999999999999998,-0.56000000000000005,0.070000000000000007
308,1782589781595,0.20999999999999999,-0.56000000000000005,0.070000000000000007
309,1782589781627,0.28000000000000003,-0.48999999999999999,0
310,1782589781660,0.28000000000000003,-0.48999999999999999,0
311,1782589781677,0.28000000000000003,-0.63,0.14000000000000001
312,1782589781727,0.28000000000000003,-0.63,0.14000000000000001
313,1782589781777,0.20999999999999999,-0.63,0.14000000000000001
314,1782589781810,0.28000000000000003,-0.63,0.14000000000000001
315,1782589781877,0.28000000000000003,-0.63,0.070000000000000007
316,1782589781910,0.28000000000000003,-0.34999999999999998,0
317,1782589781944,0.28000000000000003,-0.41999999999999998,0.070000000000000007
318,1782589781977,0.28000000000000003,-0.48999999999999999,0.070000000000000007
319,1782589782010,0.28000000000000003,-0.48999999999999999,0.070000000000000007
320,1782589782194,0.28000000000000003,-0.63,0.070000000000000007
321,1782589782227,0.20999999999999999,-0.34999999999999998,-0.070000000000000007
322,1782589782260,0.14000000000000001,-0.48999999999999999,-0.14000000000000001
323,1782589782293,0.14000000000000001,-0.48999999999999999,-0.14000000000000001
324,1782589782327,0.14000000000000001,-0.48999999999999999,-0.070000000000000007
325,1782589782393,0.14000000000000001,-0.63,-0.070000000000000007
326,1782589782443,0.14000000000000001,-0.63,-0.070000000000000007
327,1782589782493,0.20999999999999999,-0.63,0
328,1782589782526,0.20999999999999999,-0.63,0.070000000000000007
329,1782589782610,0.14000000000000001,-0.41999999999999998,-0.070000000000000007
330,1782589782693,0.14000000000000001,-0.41999999999999998,-0.070000000000000007
331,1782589782743,0.14000000000000001,-0.41999999999999998,-0.070000000000000007
332,1782589782793,0.20999999999999999,-0.48999999999999999,-0.070000000000000007
333,1782589782827,0.34999999999999998,-0.48999999999999999,0.070000000000000007
334,1782589782876,0.20999999999999999,-0.56000000000000005,0
335,1782589782926,0.20999999999999999,-0.48999999999999999,0
336,1782589782976,0.20999999999999999,-0.48999999999999999,0
337,1782589783026,0.20999999999999999,-0.48999999999999999,0
338,1782589783075,0.20999999999999999,-0.48999999999999999,0
339,1782589783176,0.20999999999999999,-0.56000000000000005,0.070000000000000007
340,1782589783226,0.20999999999999999,-0.56000000000000005,0.14000000000000001
341,1782589783276,0.20999999999999999,-0.56000000000000005,0.14000000000000001
342,1782589783325,0.20999999999999999,-0.56000000000000005,0.14000000000000001
343,1782589783376,0.20999999999999999,-0.48999999999999999,0.070000000000000007
344,1782589783442,0.20999999999999999,-0.48999999999999999,0
345,1782589783493,0.20999999999999999,-0.48999999999999999,0
346,1782589783559,0.20999999999999999,-0.48999999999999999,0.070000000000000007
347,1782589783609,0.20999999999999999,-0.48999999999999999,0.070000000000000007
348,1782589783659,0.28000000000000003,-0.48999999999999999,0.070000000000000007
349,1782589783709,0.20999999999999999,-0.48999999999999999,0.070000000000000007
350,1782589783743,0.20999999999999999,-0.48999999999999999,0.070000000000000007
351,1782589783776,0.20999999999999999,-0.48999999999999999,0
352,1782589783859,0.20999999999999999,-0.48999999999999999,0.070000000000000007
353,1782589783942,0.20999999999999999,-0.48999999999999999,0.070000000000000007
354,1782589783975,0.20999999999999999,-0.56000000000000005,0.070000000000000007
355,1782589784009,0.14000000000000001,-0.56000000000000005,0.070000000000000007
356,1782589784042,0.20999999999999999,-0.56000000000000005,0.070000000000000007
357,1782589784093,0.20999999999999999,-0.48999999999999999,0
358,1782589784208,0.20999999999999999,-0.56000000000000005,0
359,1782589784259,0.20999999999999999,-0.56000000000000005,0
360,1782589784308,0.20999999999999999,-0.56000000000000005,0
361,1782589784325,0.20999999999999999,-0.56000000000000005,0
362,1782589784375,0.20999999999999999,-0.48999999999999999,0
363,1782589784425,0.20999999999999999,-0.48999999999999999,0
364,1782589784475,0.20999999999999999,-0.48999999999999999,0
365,1782589784508,0.20999999999999999,-0.48999999999999999,0
366,1782589784525,0.14000000000000001,-0.48999999999999999,0
367,1782589784558,0.14000000000000001,-0.48999999999999999,0
368,1782589784591,0.14000000000000001,-0.56000000000000005,0
369,1782589784708,0.20999999999999999,-0.48999999999999999,0
370,1782589784774,0.20999999999999999,-0.56000000000000005,0
371,1782589784824,0.20999999999999999,-0.48999999999999999,0
372,1782589784841,0.14000000000000001,-0.48999999999999999,0
373,1782589784874,0.14000000000000001,-0.56000000000000005,0
374,1782589784891,0.20999999999999999,-0.56000000000000005,0
375,1782589784941,0.20999999999999999,-0.48999999999999999,0
376,1782589784991,0.20999999999999999,-0.48999999999999999,0
377,1782589785041,0.20999999999999999,-0.56000000000000005,0
378,1782589785091,0.20999999999999999,-0.48999999999999999,0
379,1782589785141,0.20999999999999999,-0.48999999999999999,0
380,1782589785174,0.20999999999999999,-0.48999999999999999,0
381,1782589785207,0.20999999999999999,-0.48999999999999999,0
382,1782589785274,0.20999999999999999,-0.48999999999999999,0
383,1782589785324,0.20999999999999999,-0.48999999999999999,0
384,1782589785374,0.20999999999999999,-0.48999999999999999,0.070000000000000007
385,1782589785424,0.20999999999999999,-0.48999999999999999,0
386,1782589785474,0.20999999999999999,-0.48999999999999999,0
387,1782589785491,0.20999999999999999,-0.41999999999999998,0
388,1782589785541,0.20999999999999999,-0.41999999999999998,0
389,1782589785674,0.20999999999999999,-0.48999999999999999,0
390,1782589785723,0.20999999999999999,-0.48999999999999999,0
391,1782589785774,0.20999999999999999,-0.48999999999999999,0
392,1782589785824,0.20999999999999999,-0.48999999999999999,0.070000000000000007
393,1782589785858,0.20999999999999999,-0.48999999999999999,0
394,1782589785923,0.20999999999999999,-0.48999999999999999,0
395,1782589785973,0.20999999999999999,-0.56000000000000005,0
396,1782589786023,0.20999999999999999,-0.56000000000000005,0
397,1782589786056,0.20999999999999999,-0.56000000000000005,0
398,1782589786073,0.20999999999999999,-0.56000000000000005,0
399,1782589786090,0.14000000000000001,-0.56000000000000005,0
400,1782589786123,0.20999999999999999,-0.56000000000000005,0
401,1782589786207,0.20999999999999999,-0.56000000000000005,0
402,1782589786257,0.20999999999999999,-0.48999999999999999,0
403,1782589786274,0.20999999999999999,-0.48999999999999999,0
404,1782589786290,0.20999999999999999,-0.48999999999999999,0
405,1782589786306,0.20999999999999999,-0.48999999999999999,0
406,1782589786440,0.20999999999999999,-0.48999999999999999,0
407,1782589786490,0.20999999999999999,-0.48999999999999999,0
408,1782589786539,0.20999999999999999,-0.48999999999999999,0
409,1782589786556,0.14000000000000001,-0.48999999999999999,0
410,1782589786590,0.14000000000000001,-0.48999999999999999,0
411,1782589786606,0.20999999999999999,-0.48999999999999999,0
412,1782589786640,0.14000000000000001,-0.48999999999999999,0
413,1782589786689,0.20999999999999999,-0.48999999999999999,0
414,1782589786724,0.14000000000000001,-0.48999999999999999,0
415,1782589786790,0.14000000000000001,-0.48999999999999999,0
416,1782589786856,0.28000000000000003,-0.48999999999999999,0
417,1782589786923,0.28000000000000003,-0.48999999999999999,0
418,1782589786973,0.14000000000000001,-0.48999999999999999,0
419,1782589787039,0.14000000000000001,-0.48999999999999999,0
420,1782589787089,0.14000000000000001,-0.48999999999999999,0
421,1782589787155,0.14000000000000001,-0.48999999999999999,0
422,1782589787189,0.14000000000000001,-0.48999999999999999,0
423,1782589787222,0.14000000000000001,-0.41999999999999998,0
424,1782589787289,0.14000000000000001,-0.48999999999999999,0
425,1782589787355,0.14000000000000001,-0.48999999999999999,0.070000000000000007
426,1782589787406,0.14000000000000001,-0.48999999999999999,0.070000000000000007
427,1782589787456,0.14000000000000001,-0.48999999999999999,0.070000000000000007
428,1782589787522,0.28000000000000003,-0.48999999999999999,-0.070000000000000007
429,1782589787638,0.20999999999999999,-0.48999999999999999,-0.070000000000000007
430,1782589787705,0.20999999999999999,-0.48999999999999999,-0.070000000000000007
431,1782589787739,0.20999999999999999,-0.48999999999999999,0
432,1782589787772,0.20999999999999999,-0.56000000000000005,0
433,1782589787789,0.20999999999999999,-0.56000000000000005,0
434,1782589787838,0.20999999999999999,-0.56000000000000005,0
435,1782589787889,0.20999999999999999,-0.48999999999999999,0
436,1782589788172,0.20999999999999999,-0.56000000000000005,0
437,1782589788175,0.14000000000000001,-0.48999999999999999,0
438,1782589788188,0.14000000000000001,-0.48999999999999999,0
439,1782589788189,0.20999999999999999,-0.48999999999999999,0
440,1782589788205,0.20999999999999999,-0.48999999999999999,0
441,1782589788254,0.20999999999999999,-0.56000000000000005,0
442,1782589788322,0.20999999999999999,-0.48999999999999999,0
443,1782589788388,0.14000000000000001,-0.48999999999999999,-0.070000000000000007
444,1782589788455,0.14000000000000001,-0.48999999999999999,0
445,1782589788522,0.20999999999999999,-0.48999999999999999,0
446,1782589788571,0.20999999999999999,-0.48999999999999999,0
447,1782589788606,0.20999999999999999,-0.48999999999999999,0
448,1782589788671,0.20999999999999999,-0.56000000000000005,0
449,1782589788704,0.20999999999999999,-0.56000000000000005,0
450,1782589788888,0.20999999999999999,-0.48999999999999999,0
451,1782589788938,0.20999999999999999,-0.56000000000000005,0
452,1782589788989,0.20999999999999999,-0.48999999999999999,0
453,1782589789038,0.20999999999999999,-0.48999999999999999,0
454,1782589789088,0.20999999999999999,-0.48999999999999999,0
455,1782589789139,0.20999999999999999,-0.48999999999999999,0
456,1782589789237,0.20999999999999999,-0.48999999999999999,0
457,1782589789288,0.14000000000000001,-0.48999999999999999,0
458,1782589789387,0.14000000000000001,-0.48999999999999999,0
459,1782589789454,0.20999999999999999,-0.48999999999999999,0.070000000000000007
460,1782589789505,0.14000000000000001,-0.56000000000000005,0
461,1782589789555,0.14000000000000001,-0.56000000000000005,0
462,1782589789587,0.20999999999999999,-0.56000000000000005,0
463,1782589789605,0.20999999999999999,-0.48999999999999999,0
464,1782589789721,0.20999999999999999,-0.48999999999999999,0
465,1782589789805,0.20999999999999999,-0.56000000000000005,0
466,1782589789821,0.20999999999999999,-0.56000000000000005,0
467,1782589789854,0.20999999999999999,-0.56000000000000005,0
468,1782589789872,0.20999999999999999,-0.56000000000000005,0
469,1782589789888,0.20999999999999999,-0.48999999999999999,0
470,1782589789937,0.28000000000000003,-0.48999999999999999,0
471,1782589789987,0.28000000000000003,-0.48999999999999999,0
472,1782589790037,0.20999999999999999,-0.56000000000000005,0
473,1782589790104,0.28000000000000003,-0.56000000000000005,0
474,1782589790137,0.20999999999999999,-0.56000000000000005,0
475,1782589790171,0.28000000000000003,-0.56000000000000005,0
476,1782589790204,0.28000000000000003,-0.56000000000000005,0
477,1782589790270,0.28000000000000003,-0.56000000000000005,0
478,1782589790353,0.14000000000000001,-0.56000000000000005,0
479,1782589790437,0.14000000000000001,-0.56000000000000005,0
480,1782589790470,0.20999999999999999,-0.56000000000000005,0
481,1782589790503,0.20999999999999999,-0.56000000000000005,0
482,1782589790536,0.20999999999999999,-0.56000000000000005,0
483,1782589790619,0.14000000000000001,-0.48999999999999999,-0.070000000000000007
484,1782589790686,0.14000000000000001,-0.48999999999999999,-0.070000000000000007
485,1782589790719,0.14000000000000001,-0.48999999999999999,0
486,1782589790786,0.14000000000000001,-0.48999999999999999,0
487,1782589790819,0.14000000000000001,-0.48999999999999999,0
488,1782589790836,0.070000000000000007,-0.48999999999999999,0
489,1782589790869,0.070000000000000007,-0.48999999999999999,0
490,1782589790903,0.070000000000000007,-0.48999999999999999,0
491,1782589790952,0.14000000000000001,-0.48999999999999999,0.070000000000000007
492,1782589790970,0.20999999999999999,-0.56000000000000005,0
493,1782589790986,0.20999999999999999,-0.48999999999999999,-0.070000000000000007
494,1782589791019,0.20999999999999999,-0.41999999999999998,-0.070000000000000007
495,1782589791103,0.28000000000000003,-0.41999999999999998,-0.070000000000000007
496,1782589791202,0.28000000000000003,-0.41999999999999998,-0.070000000000000007
497,1782589791236,0.28000000000000003,-0.56000000000000005,0.070000000000000007
498,1782589791252,0.28000000000000003,-0.56000000000000005,0.070000000000000007
499,1782589791269,0.28000000000000003,-0.56000000000000005,0.070000000000000007
500,1782589791303,0.28000000000000003,-0.56000000000000005,0.070000000000000007
501,1782589791335,0.28000000000000003,-0.56000000000000005,0.070000000000000007
502,1782589791435,0.28000000000000003,-0.56000000000000005,0.070000000000000007
503,1782589791535,0.14000000000000001,-0.48999999999999999,0
504,1782589791669,0.14000000000000001,-0.48999999999999999,-0.070000000000000007
505,1782589791686,0.20999999999999999,-0.48999999999999999,-0.070000000000000007
506,1782589791719,0.20999999999999999,-0.48999999999999999,-0.070000000000000007
507,1782589791852,0.20999999999999999,-0.56000000000000005,0.070000000000000007
508,1782589791902,0.20999999999999999,-0.48999999999999999,0.070000000000000007
509,1782589791952,0.20999999999999999,-0.56000000000000005,0
510,1782589791985,0.20999999999999999,-0.48999999999999999,0
511,1782589792001,0.20999999999999999,-0.48999999999999999,0
512,1782589792051,0.20999999999999999,-0.48999999999999999,0
513,1782589792118,0.20999999999999999,-0.48999999999999999,-0.070000000000000007
514,1782589792185,0.20999999999999999,-0.48999999999999999,-0.070000000000000007
515,1782589792302,0.20999999999999999,-0.56000000000000005,-0.070000000000000007
516,1782589792435,0.070000000000000007,-0.48999999999999999,-0.070000000000000007
517,1782589792551,0.14000000000000001,-0.56000000000000005,-0.070000000000000007
518,1782589792601,0.14000000000000001,-0.56000000000000005,0
519,1782589792635,0.14000000000000001,-0.56000000000000005,0
520,1782589792684,0.20999999999999999,-0.48999999999999999,0
521,1782589792767,0.20999999999999999,-0.48999999999999999,0
522,1782589792818,0.20999999999999999,-0.48999999999999999,0
523,1782589792884,0.20999999999999999,-0.48999999999999999,0
524,1782589792951,0.20999999999999999,-0.56000000000000005,0
525,1782589793001,0.14000000000000001,-0.56000000000000005,0
526,1782589793085,0.14000000000000001,-0.56000000000000005,0
527,1782589793184,0.20999999999999999,-0.48999999999999999,0
528,1782589793250,0.14000000000000001,-0.48999999999999999,0
529,1782589793301,0.14000000000000001,-0.48999999999999999,0.070000000000000007
530,1782589793350,0.14000000000000001,-0.48999999999999999,0.070000000000000007
531,1782589793418,0.14000000000000001,-0.48999999999999999,0
532,1782589793450,0.14000000000000001,-0.48999999999999999,0
533,1782589793484,0.14000000000000001,-0.56000000000000005,0
534,1782589793501,0.14000000000000001,-0.56000000000000005,0
535,1782589793534,0.20999999999999999,-0.56000000000000005,0
536,1782589793567,0.20999999999999999,-0.48999999999999999,0
537,1782589793617,0.20999999999999999,-0.48999999999999999,-0.070000000000000007
538,1782589793650,0.20999999999999999,-0.48999999999999999,-0.070000000000000007
539,1782589793668,0.20999999999999999,-0.48999999999999999,-0.070000000000000007
540,1782589793700,0.20999999999999999,-0.48999999999999999,0
541,1782589793800,0.14000000000000001,-0.48999999999999999,-0.070000000000000007
542,1782589793833,0.20999999999999999,-0.48999999999999999,0
543,1782589793883,0.20999999999999999,-0.56000000000000005,0
544,1782589794000,0.20999999999999999,-0.56000000000000005,0
545,1782589794017,0.20999999999999999,-0.56000000000000005,0.070000000000000007
546,1782589794066,0.20999999999999999,-0.56000000000000005,0.070000000000000007
547,1782589794100,0.20999999999999999,-0.56000000000000005,0
548,1782589794150,0.14000000000000001,-0.48999999999999999,0.070000000000000007
549,1782589794183,0.20999999999999999,-0.48999999999999999,0
550,1782589794250,0.20999999999999999,-0.48999999999999999,0
551,1782589794283,0.20999999999999999,-0.48999999999999999,0
552,1782589794317,0.20999999999999999,-0.48999999999999999,0
553,1782589794333,0.20999999999999999,-0.56000000000000005,0
554,1782589794350,0.28000000000000003,-0.56000000000000005,0
555,1782589794384,0.28000000000000003,-0.56000000000000005,0
556,1782589794450,0.20999999999999999,-0.48999999999999999,0
557,1782589794483,0.28000000000000003,-0.56000000000000005,0
558,1782589794600,0.28000000000000003,-0.56000000000000005,0
559,1782589794649,0.28000000000000003,-0.56000000000000005,0
560,1782589794667,0.28000000000000003,-0.48999999999999999,0
561,1782589794733,0.070000000000000007,-0.56000000000000005,-0.14000000000000001
562,1782589794767,0.14000000000000001,-0.48999999999999999,0
563,1782589794833,0.14000000000000001,-0.48999999999999999,0.14000000000000001
564,1782589794867,0.14000000000000001,-0.48999999999999999,0.20999999999999999
565,1782589794933,0.28000000000000003,-0.48999999999999999,0.20999999999999999
566,1782589795016,0.20999999999999999,-0.48999999999999999,-0.14000000000000001
567,1782589795099,0.20999999999999999,-0.48999999999999999,-0.14000000000000001
568,1782589795166,0.20999999999999999,-0.48999999999999999,-0.14000000000000001
569,1782589795199,0.20999999999999999,-0.48999999999999999,-0.14000000000000001
570,1782589795283,0.20999999999999999,-0.41999999999999998,0
571,1782589795366,0.20999999999999999,-0.41999999999999998,0.070000000000000007
572,1782589795449,0.14000000000000001,-0.41999999999999998,0.070000000000000007
573,1782589795515,0.14000000000000001,-0.48999999999999999,0.070000000000000007
574,1782589795515,0.14000000000000001,-0.69999999999999996,-0.14000000000000001
575,1782589795582,0.20999999999999999,-0.77000000000000002,-0.070000000000000007
576,1782589795632,0.20999999999999999,-0.69999999999999996,-0.070000000000000007
577,1782589795682,0.14000000000000001,-0.69999999999999996,0
578,1782589795732,0,-0.69999999999999996,0.070000000000000007
579,1782589795799,0.20999999999999999,-0.56000000000000005,0.070000000000000007
580,1782589795848,0.070000000000000007,-0.41999999999999998,0.070000000000000007
581,1782589795915,0.14000000000000001,-0.63,-0.20999999999999999
582,1782589795999,0.14000000000000001,-0.56000000000000005,-0.20999999999999999
583,1782589796065,0.20999999999999999,-0.63,0
584,1782589796149,5.04,2.1000000000000001,-8.6099999999999994
585,1782589796248,0.41999999999999998,5.5300000000000002,-10.57
586,1782589796315,-1.3999999999999999,5.5300000000000002,-10.57
587,1782589796365,-2.6600000000000001,-0.28000000000000003,-11.9
588,1782589796382,-0.63,-0.28000000000000003,-11.9
589,1782589796398,0.77000000000000002,-0.28000000000000003,-11.9
590,1782589796431,2.2400000000000002,-0.28000000000000003,-10.5
591,1782589796448,2.6600000000000001,0.14000000000000001,-10.5
592,1782589796699,0.14000000000000001,-1.96,-4.6900000000000004
593,1782589796731,0.14000000000000001,-1.26,-4.6900000000000004
594,1782589796748,0.14000000000000001,0.20999999999999999,-3.29
595,1782589796781,0.14000000000000001,0.63,-1.54
596,1782589796814,0.14000000000000001,1.54,0.91000000000000003
597,1782589796964,-1.8200000000000001,-0.63,-2.0299999999999998
598,1782589797014,0.91000000000000003,-0.63,-2.0299999999999998
599,1782589797064,0.91000000000000003,0.48999999999999999,-1.47
600,1782589797248,-0.69999999999999996,0.69999999999999996,3.3599999999999999
601,1782589797298,0.20999999999999999,1.05,2.1000000000000001
602,1782589797347,1.75,2.1699999999999999,1.54
603,1782589797397,-1.6100000000000001,-3.6400000000000001,-0.91000000000000003
604,1782589797430,1.8899999999999999,-5.9500000000000002,-0.97999999999999998
605,1782589797547,3.5699999999999998,-5.9500000000000002,-0.91000000000000003
606,1782589797630,4.1299999999999999,1.54,-0.91000000000000003
607,1782589797664,6.6500000000000004,0.56000000000000005,1.1899999999999999
608,1782589797714,8.5399999999999991,4.2000000000000002,0.91000000000000003
609,1782589797747,12.109999999999999,8.6799999999999997,-0.28000000000000003
610,1782589797797,12.74,8.9600000000000009,-1.47
611,1782589797847,12.74,8.9600000000000009,-1.8899999999999999
612,1782589797864,12.109999999999999,8.9600000000000009,-3.0800000000000001
613,1782589797981,4.4800000000000004,8.4700000000000006,-2.1000000000000001
614,1782589798046,4.6200000000000001,8.4700000000000006,-3.1499999999999999
615,1782589798081,4.6200000000000001,7.5599999999999996,-4.4100000000000001
616,1782589798130,4.6200000000000001,5.3899999999999997,-5.3200000000000003
617,1782589798180,0.77000000000000002,-2.4500000000000002,-7.9100000000000001
618,1782589798214,-5.3200000000000003,-11.69,-7.9100000000000001
619,1782589798230,-5.3200000000000003,-11.69,-7.9100000000000001
620,1782589798247,6.6500000000000004,0.69999999999999996,5.8799999999999999
621,1782589798280,3.29,2.4500000000000002,4.8300000000000001
622,1782589798314,2.5899999999999999,2.4500000000000002,4.8300000000000001
623,1782589798363,0.34999999999999998,2.4500000000000002,4.8300000000000001
624,1782589798396,-0.48999999999999999,2.4500000000000002,4.8300000000000001
625,1782589798430,-0.48999999999999999,-0.28000000000000003,5.1100000000000003
626,1782589798480,0.34999999999999998,-0.28000000000000003,5.3899999999999997
627,1782589798496,-3.29,-3.71,2.1000000000000001
628,1782589798547,-1.05,0.14000000000000001,1.8899999999999999
629,1782589798596,5.1799999999999997,0.14000000000000001,2.1000000000000001
630,1782589798696,5.1799999999999997,1.96,2.0299999999999998
631,1782589798729,5.1799999999999997,3.3599999999999999,1.8899999999999999
632,1782589798796,3.9900000000000002,-2.1699999999999999,1.8200000000000001
633,1782589798862,3.9900000000000002,-2.1699999999999999,2.1000000000000001
634,1782589798929,3.9900000000000002,-2.9399999999999999,2.5899999999999999
635,1782589799201,0.14000000000000001,-0.97999999999999998,2.73
636,1782589799213,1.6100000000000001,-0.83999999999999997,0.20999999999999999
637,1782589799213,1.1899999999999999,-3.7799999999999998,0.20999999999999999
638,1782589799262,-3.0800000000000001,-3.0099999999999998,-1.05
639,1782589799329,-3.3599999999999999,-2.52,-1.26
640,1782589799379,-3.9900000000000002,-3.0099999999999998,-0.97999999999999998
641,1782589799395,-3.9900000000000002,-3.0099999999999998,-0.97999999999999998
642,1782589799429,-3.3599999999999999,-2.52,-0.91000000000000003
643,1782589799478,-4.6900000000000004,-0.69999999999999996,-0.69999999999999996
644,1782589799595,0,5.1799999999999997,-0.20999999999999999
645,1782589799630,-1.6799999999999999,1.3999999999999999,-0.20999999999999999
646,1782589799679,-3.3599999999999999,-1.6799999999999999,-0.20999999999999999
647,1782589799729,-3.3599999999999999,1.3300000000000001,-0.34999999999999998
648,1782589799761,2.5899999999999999,-2.1000000000000001,-5.9500000000000002
649,1782589799846,-0.28000000000000003,-2.3100000000000001,-5.9500000000000002
650,1782589799945,-1.3300000000000001,-2.1000000000000001,-5.8799999999999999
651,1782589799996,-1.3300000000000001,0.070000000000000007,-5.8799999999999999
652,1782589800046,1.3999999999999999,-3.3599999999999999,-3.0099999999999998
653,1782589800061,1.1899999999999999,-3.2200000000000002,-3.0800000000000001
654,1782589800095,1.3999999999999999,-3.2200000000000002,-3.0800000000000001
655,1782589800113,1.1899999999999999,-3.3599999999999999,-3.0800000000000001
656,1782589800162,1.6799999999999999,-0.28000000000000003,-3.0800000000000001
657,1782589800362,0.14000000000000001,0.69999999999999996,-3.5
658,1782589800429,0.14000000000000001,2.8700000000000001,-3.6400000000000001
659,1782589800445,-0.97999999999999998,2.8700000000000001,-3.8500000000000001
660,1782589800478,-0.97999999999999998,2.73,-3.7799999999999998
661,1782589800496,-0.83999999999999997,2.73,-3.9900000000000002
662,1782589800512,-0.83999999999999997,2.73,-3.9900000000000002
663,1782589800561,-0.83999999999999997,1.47,-3.9199999999999999
664,1782589800611,0.48999999999999999,1.47,-3.7799999999999998
665,1782589800678,0.14000000000000001,-0.41999999999999998,-3.0099999999999998
666,1782589800729,0.14000000000000001,0.34999999999999998,-3.0099999999999998
667,1782589800795,0.20999999999999999,0.83999999999999997,-2.8700000000000001
668,1782589800878,-1.1200000000000001,-1.1899999999999999,-2.1699999999999999
669,1782589800894,-1.1200000000000001,2.8700000000000001,-2.5899999999999999
670,1782589800928,-1.1200000000000001,2.8700000000000001,-2.5899999999999999
671,1782589800995,-1.1200000000000001,3.7799999999999998,-2.7999999999999998
672,1782589801029,0.41999999999999998,3.7799999999999998,-4.3399999999999999
673,1782589801077,1.6799999999999999,3.8500000000000001,-4.3399999999999999
674,1782589801161,-1.8200000000000001,3.1499999999999999,0.28000000000000003
675,1782589801244,-3.1499999999999999,2.73,0.28000000000000003
676,1782589801294,-3.5699999999999998,-1.75,-0.41999999999999998
677,1782589801344,-3.5699999999999998,-1.75,-0.56000000000000005
678,1782589801444,-1.1200000000000001,-2.8700000000000001,1.6100000000000001
679,1782589801477,-1.96,-2.8700000000000001,2.1000000000000001
680,1782589801543,-1.96,-1.6100000000000001,2.2400000000000002
681,1782589801593,-1.1200000000000001,-1.6100000000000001,2.3799999999999999
682,1782589801693,2.1000000000000001,1.26,3.3599999999999999
683,1782589801743,0.69999999999999996,1.75,3.3599999999999999
684,1782589801810,0.69999999999999996,1.26,4.0599999999999996
685,1782589801860,-0.20999999999999999,0.41999999999999998,4.4100000000000001
686,1782589801910,-2.1000000000000001,-0.63,4.4800000000000004
687,1782589801993,4.6200000000000001,1.8899999999999999,4.5499999999999998
688,1782589802027,4.6200000000000001,3.5,4.4100000000000001
689,1782589802127,4.6200000000000001,3.5,4.5499999999999998
690,1782589802226,2.5899999999999999,-0.20999999999999999,7.21
691,1782589802309,2.5899999999999999,-0.20999999999999999,6.8600000000000003
692,1782589802360,2.5899999999999999,-1.05,6.6500000000000004
693,1782589802377,1.1200000000000001,-3.1499999999999999,5.5300000000000002
694,1782589802393,0,-2.1699999999999999,5.5300000000000002
695,1782589802443,0.63,3.6400000000000001,4.9000000000000004
696,1782589802493,-0.69999999999999996,-0.97999999999999998,5.1100000000000003
697,1782589802543,-0.69999999999999996,5.5300000000000002,5.1799999999999997
698,1782589802659,-1.6100000000000001,5.5300000000000002,5.5999999999999996
699,1782589802709,-0.34999999999999998,4.2000000000000002,4.4800000000000004
700,1782589802759,-1.1899999999999999,7.1399999999999997,4.2699999999999996
701,1782589802809,-1.75,7.1399999999999997,3.2200000000000002
702,1782589802842,-1.8899999999999999,0.97999999999999998,2.52
703,1782589802910,-1.8899999999999999,0.97999999999999998,2.4500000000000002
704,1782589802992,-1.75,-1.54,2.4500000000000002
705,1782589803042,0.69999999999999996,-0.070000000000000007,1.96
706,1782589803109,0.28000000000000003,1.75,1.6100000000000001
707,1782589803142,0,1.75,1.54
708,1782589803226,-4.1299999999999999,2.52,0.56000000000000005
709,1782589803259,-4.1299999999999999,2.52,-0.20999999999999999
710,1782589803293,-4.1299999999999999,2.1699999999999999,-1.6799999999999999
711,1782589803392,-0.28000000000000003,5.1100000000000003,-6.8600000000000003
712,1782589803442,0.20999999999999999,4.6900000000000004,-6.79
713,1782589803492,0.63,4.6900000000000004,-6.7199999999999998
714,1782589803592,1.75,2.5899999999999999,-7.2800000000000002
715,1782589803642,2.3799999999999999,2.5899999999999999,-7.1399999999999997
716,1782589803758,4.2699999999999996,2.5899999999999999,-6.7199999999999998
717,1782589803808,3.1499999999999999,0.83999999999999997,-5.3200000000000003
718,1782589803825,3.1499999999999999,0.77000000000000002,-5.25
719,1782589803858,3.1499999999999999,0.77000000000000002,-4.9699999999999998
720,1782589803875,3.0800000000000001,-0.63,-4.7599999999999998
721,1782589803908,2.5899999999999999,-1.26,-4.0599999999999996
722,1782589803976,-0.56000000000000005,-1.8899999999999999,-3.4300000000000002
723,1782589804208,-1.6799999999999999,-1.3999999999999999,-3.0099999999999998
724,1782589804242,-1.1899999999999999,-2.3799999999999999,-3.3599999999999999
725,1782589804275,-0.20999999999999999,-1.3999999999999999,-3.7799999999999998
726,1782589804293,-1.1899999999999999,-0.20999999999999999,-4.0599999999999996
727,1782589804308,-1.1899999999999999,-2.3799999999999999,-4.4100000000000001
728,1782589804325,-0.63,0.20999999999999999,-4.3399999999999999
729,1782589804409,-0.56000000000000005,-0.20999999999999999,-4.2699999999999996
730,1782589804508,-0.20999999999999999,-0.20999999999999999,-4.1299999999999999
731,1782589804558,0.14000000000000001,-0.69999999999999996,-4.0599999999999996
732,1782589804625,1.26,1.1899999999999999,-1.1899999999999999
733,1782589804691,1.26,1.54,-1.1200000000000001
734,1782589804757,0.77000000000000002,1.1899999999999999,-1.05
735,1782589804825,0.20999999999999999,-4.6200000000000001,0.97999999999999998
736,1782589804858,-1.26,-4.6200000000000001,0.97999999999999998
737,1782589804908,-1.47,-4.2699999999999996,0.97999999999999998
738,1782589804958,-1.6799999999999999,-3.7799999999999998,0.91000000000000003
739,1782589805007,-1.6799999999999999,-1.96,0.69999999999999996
740,1782589805141,-1.6100000000000001,0.41999999999999998,-0.28000000000000003
741,1782589805207,-1.6100000000000001,2.6600000000000001,-0.34999999999999998
742,1782589805241,2.5899999999999999,0.83999999999999997,-0.41999999999999998
743,1782589805258,2.5899999999999999,0.41999999999999998,-0.41999999999999998
744,1782589805274,2.5899999999999999,0.41999999999999998,-0.56000000000000005
745,1782589805308,0.69999999999999996,-0.20999999999999999,-0.56000000000000005
746,1782589805374,-3.1499999999999999,-0.77000000000000002,-0.56000000000000005
747,1782589805474,-0.20999999999999999,0.41999999999999998,0.070000000000000007
748,1782589805524,-0.20999999999999999,0.41999999999999998,-0.28000000000000003
749,1782589805574,0.69999999999999996,1.3999999999999999,-0.41999999999999998
750,1782589805624,1.3999999999999999,1.3999999999999999,-0.41999999999999998
751,1782589805673,1.3999999999999999,-0.83999999999999997,-0.28000000000000003
752,1782589805724,0.28000000000000003,-2.7999999999999998,0.14000000000000001
753,1782589805740,-0.34999999999999998,2.8700000000000001,0.14000000000000001
754,1782589805808,-1.6799999999999999,4.1299999999999999,0.070000000000000007
755,1782589805890,-0.83999999999999997,4.1299999999999999,-0.20999999999999999
756,1782589805957,-0.83999999999999997,2.2400000000000002,-0.070000000000000007
757,1782589806008,0.97999999999999998,-2.1699999999999999,-0.34999999999999998
758,1782589806074,0.97999999999999998,-0.83999999999999997,-0.34999999999999998
759,1782589806108,1.05,-0.83999999999999997,-0.34999999999999998
760,1782589806173,0.63,1.1200000000000001,-0.34999999999999998
761,1782589806207,0.69999999999999996,1.1200000000000001,-0.63
762,1782589806240,0.91000000000000003,-1.3300000000000001,-0.91000000000000003
763,1782589806307,0.56000000000000005,-1.3999999999999999,-0.91000000000000003
764,1782589806374,0.34999999999999998,-1.8899999999999999,-0.48999999999999999
765,1782589806440,-0.14000000000000001,-1.8899999999999999,-0.41999999999999998
766,1782589806457,-0.48999999999999999,-2.1699999999999999,-0.28000000000000003
767,1782589806540,0.070000000000000007,-0.91000000000000003,0.56000000000000005
768,1782589806606,0.070000000000000007,-0.56000000000000005,0.56000000000000005
769,1782589806639,0.20999999999999999,-0.56000000000000005,0.56000000000000005
770,1782589806707,1.26,-0.56000000000000005,0.56000000000000005
771,1782589806740,1.26,0.83999999999999997,0.28000000000000003
772,1782589806824,-0.69999999999999996,2.1000000000000001,-0.070000000000000007
773,1782589806857,-0.69999999999999996,2.1000000000000001,-0.070000000000000007
774,1782589806923,-0.070000000000000007,2.1000000000000001,-0.070000000000000007
775,1782589807006,-0.69999999999999996,-0.14000000000000001,-0.14000000000000001
776,1782589807023,-0.070000000000000007,1.1899999999999999,-0.14000000000000001
777,1782589807107,-0.63,-1.47,-0.20999999999999999
778,1782589807172,-0.63,-0.69999999999999996,-0.20999999999999999
779,1782589807240,0.41999999999999998,1.1899999999999999,-0.14000000000000001
780,1782589807306,1.1200000000000001,-0.28000000000000003,-0.34999999999999998
781,1782589807356,1.1899999999999999,-1.54,-0.48999999999999999
782,1782589807372,1.3300000000000001,-1.75,-0.34999999999999998
783,1782589807423,1.8899999999999999,-1.26,-0.34999999999999998
784,1782589807539,1.3300000000000001,-1.75,-0.77000000000000002
785,1782589807572,0,0.83999999999999997,-0.20999999999999999
786,1782589807622,-0.070000000000000007,0.83999999999999997,-0.28000000000000003
787,1782589807672,-0.63,0.34999999999999998,-0.41999999999999998
788,1782589807722,-0.63,0.34999999999999998,-0.48999999999999999
789,1782589807823,-0.63,0.34999999999999998,-0.48999999999999999
790,1782589807856,-0.63,0.070000000000000007,-0.48999999999999999
791,1782589807890,0.69999999999999996,3.5699999999999998,-0.34999999999999998
792,1782589807922,0.69999999999999996,3.6400000000000001,-0.34999999999999998
793,1782589807939,0.69999999999999996,3.6400000000000001,-0.34999999999999998
794,1782589807955,0.69999999999999996,4.9000000000000004,-0.56000000000000005
795,1782589807988,0.56000000000000005,4.9000000000000004,-0.56000000000000005
796,1782589808022,0.56000000000000005,-0.97999999999999998,-0.48999999999999999
797,1782589808088,1.05,-0.97999999999999998,-0.48999999999999999
798,1782589808122,1.05,-4.9000000000000004,-0.56000000000000005
799,1782589808238,1.1200000000000001,-0.41999999999999998,-0.48999999999999999
800,1782589808271,1.1200000000000001,-0.41999999999999998,-0.41999999999999998
801,1782589808288,0.69999999999999996,-0.97999999999999998,-0.41999999999999998
802,1782589808321,0.69999999999999996,-2.73,-0.41999999999999998
803,1782589808355,-0.070000000000000007,-1.6100000000000001,-0.28000000000000003
804,1782589808388,-0.28000000000000003,-1.6100000000000001,-0.28000000000000003
805,1782589808438,0.69999999999999996,1.1200000000000001,0.20999999999999999
806,1782589808521,0.69999999999999996,1.1200000000000001,0.20999999999999999
807,1782589808605,0.69999999999999996,1.05,0.28000000000000003
808,1782589808671,0.63,1.05,0.28000000000000003
809,1782589808705,0.63,-0.14000000000000001,-0.63
810,1782589808738,0.83999999999999997,-0.14000000000000001,-0.63
811,1782589808838,0.83999999999999997,-0.14000000000000001,-0.48999999999999999
812,1782589808904,0.83999999999999997,-0.14000000000000001,-0.34999999999999998
813,1782589808970,0.34999999999999998,-3.0099999999999998,0.070000000000000007
814,1782589809037,0.34999999999999998,-3.29,0.070000000000000007
815,1782589809071,0.83999999999999997,-3.0099999999999998,0.070000000000000007
816,1782589809138,0.97999999999999998,-2.52,0.14000000000000001
817,1782589809221,0.97999999999999998,-0.91000000000000003,-0.34999999999999998
818,1782589809237,0.83999999999999997,-0.28000000000000003,-0.34999999999999998
819,1782589809254,0.83999999999999997,0.91000000000000003,0
820,1782589809354,0.56000000000000005,0.91000000000000003,0.14000000000000001
821,1782589809420,0.56000000000000005,0.97999999999999998,0.28000000000000003
822,1782589809454,0.56000000000000005,0.97999999999999998,0.34999999999999998
823,1782589809554,0.14000000000000001,-0.63,-0.070000000000000007
824,1782589809620,-0.070000000000000007,-0.69999999999999996,-0.070000000000000007
825,1782589809637,-0.070000000000000007,-0.69999999999999996,-0.20999999999999999
826,1782589809654,-0.14000000000000001,-0.69999999999999996,-0.20999999999999999
827,1782589809687,-0.14000000000000001,-0.69999999999999996,-0.20999999999999999
828,1782589809704,-0.070000000000000007,-0.69999999999999996,-0.28000000000000003
829,1782589809771,-0.83999999999999997,-0.34999999999999998,-0.20999999999999999
830,1782589809904,-0.83999999999999997,-0.34999999999999998,-0.20999999999999999
831,1782589809953,-0.28000000000000003,1.26,-0.20999999999999999
832,1782589810239,-0.28000000000000003,-0.34999999999999998,-0.20999999999999999
833,1782589810239,-0.20999999999999999,0.56000000000000005,-0.28000000000000003
834,1782589810253,-0.20999999999999999,0.91000000000000003,-0.34999999999999998
835,1782589810253,-0.14000000000000001,0.91000000000000003,-0.48999999999999999
836,1782589810253,0.41999999999999998,0.56000000000000005,-0.48999999999999999
837,1782589810270,0.41999999999999998,0.20999999999999999,-0.48999999999999999
838,1782589810336,0.20999999999999999,0.20999999999999999,-0.14000000000000001
839,1782589810353,0.20999999999999999,0.070000000000000007,-0.14000000000000001
840,1782589810386,0.41999999999999998,-0.77000000000000002,-0.070000000000000007
841,1782589810403,0.41999999999999998,-0.83999999999999997,0
842,1782589810420,-0.48999999999999999,1.47,0.14000000000000001
843,1782589810453,-0.91000000000000003,1.6100000000000001,0.14000000000000001
844,1782589810487,-0.97999999999999998,1.47,0.14000000000000001
845,1782589810653,0.070000000000000007,1.05,-0.070000000000000007
846,1782589810736,-0.070000000000000007,0.97999999999999998,-0.070000000000000007
847,1782589810869,-0.070000000000000007,-0.48999999999999999,-0.20999999999999999
848,1782589810919,0.14000000000000001,0.28000000000000003,0
849,1782589810969,-0.34999999999999998,0.69999999999999996,0.48999999999999999
850,1782589811003,-0.48999999999999999,1.3300000000000001,0.48999999999999999
851,1782589811186,0.28000000000000003,1.26,-0.070000000000000007
852,1782589811236,0.28000000000000003,0.20999999999999999,-0.14000000000000001
853,1782589811286,0.28000000000000003,-0.77000000000000002,-0.14000000000000001
854,1782589811336,0.28000000000000003,-1.1200000000000001,-0.14000000000000001
855,1782589811437,1.05,-1.05,0.20999999999999999
856,1782589811454,0.97999999999999998,-1.05,0.20999999999999999
857,1782589811537,0.97999999999999998,-1.1899999999999999,0.28000000000000003
858,1782589811636,0.97999999999999998,-1.1899999999999999,0.34999999999999998
859,1782589811702,0.34999999999999998,-0.91000000000000003,0
860,1782589811786,-0.070000000000000007,-0.91000000000000003,0
861,1782589811852,-0.28000000000000003,-0.56000000000000005,0.14000000000000001
862,1782589811869,-0.070000000000000007,-0.56000000000000005,0.14000000000000001
863,1782589811886,-0.070000000000000007,-0.56000000000000005,0.14000000000000001
864,1782589811936,-0.56000000000000005,-0.69999999999999996,0.28000000000000003
865,1782589811986,-0.56000000000000005,-0.69999999999999996,0.20999999999999999
866,1782589812036,-0.28000000000000003,-0.97999999999999998,0.070000000000000007
867,1782589812135,-0.28000000000000003,-0.97999999999999998,-0.070000000000000007
868,1782589812169,0.20999999999999999,0.14000000000000001,-0.14000000000000001
869,1782589812235,0.56000000000000005,0.41999999999999998,0.14000000000000001
870,1782589812285,0.56000000000000005,0.14000000000000001,0.20999999999999999
871,1782589812335,0.56000000000000005,-1.1899999999999999,0.20999999999999999
872,1782589812501,0.63,-0.48999999999999999,0.20999999999999999
873,1782589812534,0.63,-0.48999999999999999,0.20999999999999999
874,1782589812568,0.48999999999999999,-0.28000000000000003,0.20999999999999999
875,1782589812601,-0.070000000000000007,-0.28000000000000003,0.14000000000000001
876,1782589812668,-0.070000000000000007,-0.28000000000000003,0.14000000000000001
877,1782589812701,-0.070000000000000007,-0.070000000000000007,-0.070000000000000007
878,1782589812751,0.41999999999999998,-0.28000000000000003,-0.28000000000000003
879,1782589812817,0.41999999999999998,-0.28000000000000003,-0.28000000000000003
880,1782589812867,0.77000000000000002,-0.28000000000000003,-0.20999999999999999
881,1782589812917,0.56000000000000005,-0.070000000000000007,0
882,1782589812968,0.56000000000000005,-0.070000000000000007,0
883,1782589813035,0.69999999999999996,-0.28000000000000003,-0.070000000000000007
884,1782589813151,-0.14000000000000001,-0.34999999999999998,0.14000000000000001
885,1782589813217,-0.20999999999999999,-0.34999999999999998,0.14000000000000001
886,1782589813267,-0.20999999999999999,0.070000000000000007,0.070000000000000007
887,1782589813367,-0.20999999999999999,-0.14000000000000001,0.070000000000000007
888,1782589813401,-0.20999999999999999,-0.14000000000000001,0.070000000000000007
889,1782589813434,0.20999999999999999,0.20999999999999999,0
890,1782589813467,0.20999999999999999,0.20999999999999999,0
891,1782589813484,0.28000000000000003,0.20999999999999999,0
892,1782589813500,0.20999999999999999,0.20999999999999999,0
893,1782589813534,0.28000000000000003,-0.77000000000000002,0
894,1782589813635,0.20999999999999999,-0.77000000000000002,0
895,1782589813734,0.20999999999999999,-0.83999999999999997,0
896,1782589813833,0.48999999999999999,-1.05,0.14000000000000001
897,1782589813885,0.41999999999999998,-1.05,0.14000000000000001
898,1782589814016,0,-0.34999999999999998,0.14000000000000001
899,1782589814084,0.070000000000000007,-0.14000000000000001,-0.070000000000000007
900,1782589814117,0.070000000000000007,-0.14000000000000001,-0.070000000000000007
901,1782589814133,0.070000000000000007,-0.14000000000000001,-0.14000000000000001
902,1782589814251,0.070000000000000007,-0.20999999999999999,-0.14000000000000001
903,1782589814283,-0.14000000000000001,-0.69999999999999996,0.070000000000000007
904,1782589814366,0,-0.56000000000000005,0.070000000000000007
905,1782589814467,0.070000000000000007,-0.56000000000000005,-0.20999999999999999
906,1782589814484,0.070000000000000007,-0.56000000000000005,-0.28000000000000003
907,1782589814516,0.070000000000000007,-0.56000000000000005,-0.41999999999999998
908,1782589814550,0.14000000000000001,-0.69999999999999996,-0.070000000000000007
909,1782589814617,0.28000000000000003,-0.69999999999999996,-0.070000000000000007
910,1782589814700,0.34999999999999998,-0.69999999999999996,-0.070000000000000007
911,1782589814766,0.34999999999999998,-0.56000000000000005,-0.070000000000000007
912,1782589814816,0.28000000000000003,-0.41999999999999998,0
913,1782589814899,0.20999999999999999,-0.34999999999999998,0
914,1782589814965,0.28000000000000003,-0.34999999999999998,-0.070000000000000007
915,1782589815032,0.28000000000000003,-0.41999999999999998,-0.070000000000000007
916,1782589815082,0.28000000000000003,-0.41999999999999998,-0.070000000000000007
917,1782589815132,0.14000000000000001,-0.48999999999999999,0
918,1782589815199,0.14000000000000001,-0.48999999999999999,0
919,1782589815233,0.14000000000000001,-0.48999999999999999,0
920,1782589815299,0.14000000000000001,-0.48999999999999999,0
921,1782589815332,0.28000000000000003,-0.48999999999999999,0
922,1782589815349,0.28000000000000003,-0.48999999999999999,0
923,1782589815382,0.28000000000000003,-0.48999999999999999,0
924,1782589815499,0.28000000000000003,-0.48999999999999999,-0.070000000000000007
925,1782589815582,0.28000000000000003,-0.48999999999999999,0
926,1782589815715,0.20999999999999999,-0.41999999999999998,0.070000000000000007
927,1782589815799,0.20999999999999999,-0.41999999999999998,0.070000000000000007
928,1782589815865,0.20999999999999999,-0.41999999999999998,0.070000000000000007
929,1782589815932,0.14000000000000001,-0.48999999999999999,0.070000000000000007
930,1782589815965,0.20999999999999999,-0.48999999999999999,0.070000000000000007
931,1782589815982,0.20999999999999999,-0.48999999999999999,0.070000000000000007
932,1782589815999,0.20999999999999999,-0.56000000000000005,0
933,1782589816098,0.28000000000000003,-0.56000000000000005,0.070000000000000007
934,1782589816148,0.28000000000000003,-0.56000000000000005,0.070000000000000007
935,1782589816232,0.14000000000000001,-0.41999999999999998,0
936,1782589816298,0.070000000000000007,-0.34999999999999998,0
937,1782589816331,0.070000000000000007,-0.41999999999999998,0
938,1782589816365,0.070000000000000007,-0.41999999999999998,0.070000000000000007
939,1782589816414,0.070000000000000007,-0.41999999999999998,0.070000000000000007
940,1782589816514,0.20999999999999999,-0.48999999999999999,0.070000000000000007
941,1782589816564,0.14000000000000001,-0.48999999999999999,-0.070000000000000007
942,1782589816614,0.20999999999999999,-0.48999999999999999,-0.070000000000000007
943,1782589816764,0.28000000000000003,-0.48999999999999999,0
944,1782589816847,0.28000000000000003,-0.48999999999999999,0
945,1782589816898,0.34999999999999998,-0.48999999999999999,0
946,1782589816948,0.20999999999999999,-0.28000000000000003,-0.14000000000000001
947,1782589816964,0.20999999999999999,-0.28000000000000003,-0.070000000000000007
948,1782589816981,0.28000000000000003,-0.28000000000000003,-0.070000000000000007
949,1782589817014,0.28000000000000003,-0.34999999999999998,0.070000000000000007
950,1782589817031,0.28000000000000003,-0.48999999999999999,0.14000000000000001
951,1782589817264,0.28000000000000003,-0.69999999999999996,-0.070000000000000007
952,1782589817347,0.34999999999999998,-0.63,-0.20999999999999999
953,1782589817397,0.34999999999999998,-0.63,-0.20999999999999999
954,1782589817430,0.28000000000000003,-0.56000000000000005,-0.20999999999999999
955,1782589817480,0.28000000000000003,-0.48999999999999999,-0.20999999999999999
956,1782589817530,0.20999999999999999,-0.63,0.14000000000000001
957,1782589817563,0.20999999999999999,-0.63,0.14000000000000001
958,1782589817580,0.20999999999999999,-0.56000000000000005,0.14000000000000001
959,1782589817597,0.20999999999999999,-0.56000000000000005,0.14000000000000001
960,1782589817614,0.20999999999999999,-0.48999999999999999,0.14000000000000001
961,1782589817664,0.20999999999999999,-0.48999999999999999,0.070000000000000007
962,1782589817714,0.20999999999999999,-0.41999999999999998,-0.070000000000000007
963,1782589817763,0.20999999999999999,-0.41999999999999998,-0.070000000000000007
964,1782589817780,0.20999999999999999,-0.48999999999999999,-0.070000000000000007
965,1782589817830,0.20999999999999999,-0.48999999999999999,0.070000000000000007
966,1782589817913,0.14000000000000001,-0.48999999999999999,0.070000000000000007
967,1782589817946,0.14000000000000001,-0.48999999999999999,0.070000000000000007
968,1782589818031,0.14000000000000001,-0.34999999999999998,0.070000000000000007
969,1782589818080,0.070000000000000007,-0.34999999999999998,0.070000000000000007
970,1782589818129,0.070000000000000007,-0.34999999999999998,0.070000000000000007
971,1782589818196,0.14000000000000001,-0.41999999999999998,0
972,1782589818330,0.20999999999999999,-0.41999999999999998,0
973,1782589818379,0.28000000000000003,-0.41999999999999998,0
974,1782589818430,0.28000000000000003,-0.41999999999999998,0
975,1782589818496,0.28000000000000003,-0.41999999999999998,-0.070000000000000007
976,1782589818530,0.28000000000000003,-0.34999999999999998,-0.070000000000000007
977,1782589818546,0.28000000000000003,-0.48999999999999999,0
978,1782589818563,0.34999999999999998,-0.48999999999999999,0
979,1782589818613,0.34999999999999998,-0.48999999999999999,0
980,1782589818679,0.34999999999999998,-0.48999999999999999,0
981,1782589818729,0.34999999999999998,-0.48999999999999999,0
982,1782589818846,0.20999999999999999,-0.34999999999999998,0
983,1782589818912,0.28000000000000003,-0.48999999999999999,0
984,1782589818945,0.28000000000000003,-0.56000000000000005,0
985,1782589818996,0.28000000000000003,-0.63,0
986,1782589819096,0.20999999999999999,-0.56000000000000005,-0.14000000000000001
987,1782589819146,0.14000000000000001,-0.41999999999999998,-0.14000000000000001
988,1782589819212,0.14000000000000001,-0.34999999999999998,-0.20999999999999999
989,1782589819279,0.20999999999999999,-0.28000000000000003,-0.20999999999999999
990,1782589819362,0.20999999999999999,-0.48999999999999999,0.070000000000000007
991,1782589819462,0.20999999999999999,-0.48999999999999999,0.070000000000000007
992,1782589819512,0.20999999999999999,-0.56000000000000005,0.070000000000000007
993,1782589819579,0.20999999999999999,-0.56000000000000005,0.070000000000000007
994,1782589819612,0.28000000000000003,-0.34999999999999998,0.14000000000000001
995,1782589819728,0.20999999999999999,-0.41999999999999998,0.070000000000000007
996,1782589819795,0.20999999999999999,-0.41999999999999998,0
997,1782589819862,0.28000000000000003,-0.41999999999999998,0
998,1782589819912,0.14000000000000001,-0.41999999999999998,0
999,1782589819962,0.14000000000000001,-0.34999999999999998,0.070000000000000007
1000,1782589820011,0.20999999999999999,-0.34999999999999998,0.070000000000000007
1001,1782589820078,0.20999999999999999,-0.34999999999999998,0.070000000000000007
1002,1782589820128,0.20999999999999999,-0.34999999999999998,0.070000000000000007
1003,1782589820178,0.20999999999999999,-0.41999999999999998,0.070000000000000007
1004,1782589820278,0.20999999999999999,-0.48999999999999999,0
1005,1782589820345,0.14000000000000001,-0.41999999999999998,0
1006,1782589820378,0.14000000000000001,-0.34999999999999998,0
1007,1782589820445,0.14000000000000001,-0.34999999999999998,0
1008,1782589820544,0.14000000000000001,-0.56000000000000005,0
1009,1782589820561,0.14000000000000001,-0.48999999999999999,0
1010,1782589820628,0.14000000000000001,-0.48999999999999999,0
1011,1782589820761,0.28000000000000003,-0.28000000000000003,0
1012,1782589820844,0.28000000000000003,-0.28000000000000003,0.070000000000000007
1013,1782589820911,0.28000000000000003,-0.34999999999999998,0
1014,1782589820928,0.28000000000000003,-0.34999999999999998,0
1015,1782589820961,0.28000000000000003,-0.63,0.070000000000000007
1016,1782589820961,0.28000000000000003,-0.69999999999999996,0.14000000000000001
1017,1782589821238,0.20999999999999999,-0.69999999999999996,-0.14000000000000001
1018,1782589821244,0.20999999999999999,-0.63,-0.20999999999999999
1019,1782589821294,0.20999999999999999,-0.41999999999999998,0.070000000000000007
1020,1782589821343,0.14000000000000001,-0.48999999999999999,0.070000000000000007
1021,1782589821394,0.20999999999999999,-0.63,0.070000000000000007
1022,1782589821443,0.20999999999999999,-0.63,0.14000000000000001
1023,1782589821477,0.20999999999999999,-0.48999999999999999,0.070000000000000007
1024,1782589821494,0.20999999999999999,-0.48999999999999999,0.070000000000000007
1025,1782589821560,0.14000000000000001,-0.48999999999999999,0.070000000000000007
1026,1782589821610,0.14000000000000001,-0.48999999999999999,0
1027,1782589821677,0.14000000000000001,-0.41999999999999998,0
1028,1782589821743,0.28000000000000003,-0.41999999999999998,0.070000000000000007
1029,1782589821810,0.20999999999999999,-0.41999999999999998,0.070000000000000007
1030,1782589821877,0.20999999999999999,-0.34999999999999998,0.070000000000000007
1031,1782589821893,0.20999999999999999,-0.41999999999999998,0.070000000000000007
1032,1782589821944,0.20999999999999999,-0.41999999999999998,0
1033,1782589821993,0.14000000000000001,-0.63,-0.070000000000000007
1034,1782589822027,0.20999999999999999,-0.56000000000000005,-0.070000000000000007
1035,1782589822093,0.20999999999999999,-0.63,-0.14000000000000001
1036,1782589822177,0.20999999999999999,-0.48999999999999999,-0.070000000000000007
1037,1782589822227,0.20999999999999999,-0.48999999999999999,-0.070000000000000007
1038,1782589822293,0.20999999999999999,-0.41999999999999998,0
1039,1782589822326,0.20999999999999999,-0.63,-0.070000000000000007
1040,1782589822376,0.20999999999999999,-0.63,-0.070000000000000007
1041,1782589822426,0.20999999999999999,-0.63,-0.070000000000000007
1042,1782589822478,0.20999999999999999,-0.63,-0.070000000000000007
1043,1782589822510,0.20999999999999999,-0.63,-0.070000000000000007
1044,1782589822526,0.20999999999999999,-0.48999999999999999,-0.070000000000000007
1045,1782589822543,0.20999999999999999,-0.48999999999999999,-0.070000000000000007
1046,1782589822576,0.20999999999999999,-0.48999999999999999,0
1047,1782589822626,0.20999999999999999,-0.56000000000000005,0.14000000000000001
1048,1782589822710,0.28000000000000003,-0.41999999999999998,0.14000000000000001
1049,1782589822827,0.28000000000000003,-0.56000000000000005,0.14000000000000001
1050,1782589822860,0.20999999999999999,-0.56000000000000005,-0.070000000000000007
1051,1782589822927,0.28000000000000003,-0.56000000000000005,-0.070000000000000007
1052,1782589822977,0.28000000000000003,-0.56000000000000005,-0.070000000000000007
1053,1782589823093,0.34999999999999998,-0.48999999999999999,-0.070000000000000007
1054,1782589823093,0.20999999999999999,-0.41999999999999998,0.14000000000000001
1055,1782589823125,0.20999999999999999,-0.41999999999999998,0.14000000000000001
1056,1782589823225,0.20999999999999999,-0.41999999999999998,0.14000000000000001
1057,1782589823259,0.34999999999999998,-0.48999999999999999,0.070000000000000007
1058,1782589823375,0,-0.070000000000000007,0.20999999999999999
1059,1782589823475,0.070000000000000007,-0.070000000000000007,0.20999999999999999
1060,1782589823492,0.070000000000000007,-0.070000000000000007,0.28000000000000003
1061,1782589823525,0.070000000000000007,-0.070000000000000007,0.28000000000000003
1062,1782589823559,0.20999999999999999,-0.20999999999999999,0.28000000000000003
1063,1782589823642,0.20999999999999999,-0.77000000000000002,0.20999999999999999
1064,1782589823708,0.20999999999999999,-0.77000000000000002,0
1065,1782589823825,0.34999999999999998,-0.63,-0.070000000000000007
1066,1782589823875,0.20999999999999999,-0.41999999999999998,-0.14000000000000001
1067,1782589823925,0.20999999999999999,-0.63,-0.20999999999999999
1068,1782589823975,0.14000000000000001,-0.63,-0.14000000000000001
1069,1782589824042,0.14000000000000001,-0.69999999999999996,-0.14000000000000001
1070,1782589824141,0.14000000000000001,-0.56000000000000005,0
1071,1782589824158,0.14000000000000001,-0.48999999999999999,0.070000000000000007
1072,1782589824175,0.14000000000000001,-0.48999999999999999,0.070000000000000007
1073,1782589824308,0.070000000000000007,-0.48999999999999999,0
1074,1782589824391,0.20999999999999999,-0.41999999999999998,0
1075,1782589824441,0.20999999999999999,-0.48999999999999999,0
1076,1782589824525,0.20999999999999999,-0.48999999999999999,0
1077,1782589824592,0.20999999999999999,-0.56000000000000005,0
1078,1782589824624,0.20999999999999999,-0.48999999999999999,0
1079,1782589824658,0.20999999999999999,-0.48999999999999999,0
1080,1782589824708,0.14000000000000001,-0.48999999999999999,0
1081,1782589824757,0.14000000000000001,-0.48999999999999999,0
1082,1782589824791,0.14000000000000001,-0.48999999999999999,0
1083,1782589824808,0.20999999999999999,-0.48999999999999999,0
1084,1782589824825,0.20999999999999999,-0.48999999999999999,0
1085,1782589824858,0.20999999999999999,-0.48999999999999999,0
1086,1782589824891,0.20999999999999999,-0.56000000000000005,0
1087,1782589824941,0.20999999999999999,-0.56000000000000005,0
1088,1782589824957,0.14000000000000001,-0.48999999999999999,0
1089,1782589825041,0.14000000000000001,-0.48999999999999999,0
1090,1782589825058,0.14000000000000001,-0.48999999999999999,0
1091,1782589825107,0.14000000000000001,-0.48999999999999999,0
1092,1782589825140,0.14000000000000001,-0.48999999999999999,0
1093,1782589825190,0.14000000000000001,-0.48999999999999999,0
1094,1782589825241,0.20999999999999999,-0.63,0
1095,1782589825307,0.20999999999999999,-0.63,0
1096,1782589825375,0.20999999999999999,-0.56000000000000005,0
1097,1782589825490,0.14000000000000001,-0.48999999999999999,0
1098,1782589825557,0.14000000000000001,-0.56000000000000005,0
1099,1782589825607,0.14000000000000001,-0.56000000000000005,0
1100,1782589825723,0.14000000000000001,-0.56000000000000005,0
1101,1782589825723,0.20999999999999999,-0.48999999999999999,0.070000000000000007
1102,1782589825773,0.20999999999999999,-0.48999999999999999,0.070000000000000007
1103,1782589825856,0.28000000000000003,-0.56000000000000005,0.070000000000000007
1104,1782589825906,0.28000000000000003,-0.56000000000000005,0.070000000000000007
1105,1782589825957,0.20999999999999999,-0.56000000000000005,0.070000000000000007
1106,1782589825974,0.20999999999999999,-0.41999999999999998,0.070000000000000007
1107,1782589826074,0.20999999999999999,-0.48999999999999999,0.070000000000000007
1108,1782589826140,0.20999999999999999,-0.48999999999999999,0
1109,1782589826173,0.20999999999999999,-0.48999999999999999,0
1110,1782589826190,0.20999999999999999,-0.56000000000000005,0
1111,1782589826206,0.20999999999999999,-0.56000000000000005,0
1112,1782589826273,0.20999999999999999,-0.56000000000000005,0
1113,1782589826307,0.20999999999999999,-0.41999999999999998,0
1114,1782589826390,0.28000000000000003,-0.41999999999999998,0
1115,1782589826506,0.14000000000000001,-0.48999999999999999,0.070000000000000007
1116,1782589826556,0.14000000000000001,-0.48999999999999999,0.070000000000000007
1117,1782589826606,0.14000000000000001,-0.48999999999999999,0.070000000000000007
1118,1782589826672,0.20999999999999999,-0.56000000000000005,0.070000000000000007
1119,1782589826739,0.14000000000000001,-0.56000000000000005,0
1120,1782589826756,0.14000000000000001,-0.56000000000000005,0
1121,1782589826789,0.14000000000000001,-0.56000000000000005,0
1122,1782589826822,0.14000000000000001,-0.56000000000000005,0
1123,1782589826956,0.14000000000000001,-0.41999999999999998,0
1124,1782589827022,0.20999999999999999,-0.56000000000000005,0
1125,1782589827056,0.20999999999999999,-0.56000000000000005,0
1126,1782589827072,0.28000000000000003,-0.56000000000000005,0
1127,1782589827089,0.28000000000000003,-0.56000000000000005,0
1128,1782589827122,0.28000000000000003,-0.56000000000000005,0
1129,1782589827140,0.28000000000000003,-0.56000000000000005,0
1130,1782589827189,0.28000000000000003,-0.48999999999999999,0
1131,1782589827255,0.20999999999999999,-0.48999999999999999,0
1132,1782589827288,0.20999999999999999,-0.48999999999999999,0
1133,1782589827355,0.20999999999999999,-0.48999999999999999,0
1134,1782589827390,0.20999999999999999,-0.48999999999999999,-0.070000000000000007
1135,1782589827438,0.14000000000000001,-0.48999999999999999,-0.070000000000000007
1136,1782589827505,0.14000000000000001,-0.48999999999999999,-0.070000000000000007
1137,1782589827605,0.20999999999999999,-0.56000000000000005,0.070000000000000007
1138,1782589827638,0.20999999999999999,-0.56000000000000005,0.070000000000000007
1139,1782589827655,0.20999999999999999,-0.56000000000000005,0.070000000000000007
1140,1782589827672,0.20999999999999999,-0.56000000000000005,0
1141,1782589827722,0.20999999999999999,-0.56000000000000005,0
1142,1782589827788,0.20999999999999999,-0.56000000000000005,0
1143,1782589827938,0.28000000000000003,-0.48999999999999999,0
1144,1782589827988,0.20999999999999999,-0.56000000000000005,0
1145,1782589828005,0.20999999999999999,-0.56000000000000005,0
1146,1782589828038,0.20999999999999999,-0.48999999999999999,0
1147,1782589828054,0.20999999999999999,-0.48999999999999999,0
1148,1782589828088,0.20999999999999999,-0.48999999999999999,0
1149,1782589828122,0.20999999999999999,-0.48999999999999999,0
1150,1782589828188,0.20999999999999999,-0.56000000000000005,0.070000000000000007
1151,1782589828288,0.20999999999999999,-0.56000000000000005,0
1152,1782589828321,0.20999999999999999,-0.56000000000000005,0
1153,1782589828372,0.20999999999999999,-0.48999999999999999,0
1154,1782589828421,0.20999999999999999,-0.56000000000000005,0
1155,1782589828488,0.20999999999999999,-0.56000000000000005,0
1156,1782589828605,0.20999999999999999,-0.56000000000000005,0
1157,1782589828654,0.20999999999999999,-0.48999999999999999,0
1158,1782589828671,0.20999999999999999,-0.48999999999999999,0
1159,1782589828704,0.20999999999999999,-0.48999999999999999,-0.070000000000000007
1160,1782589828737,0.20999999999999999,-0.56000000000000005,-0.070000000000000007
1161,1782589828804,0.28000000000000003,-0.56000000000000005,-0.070000000000000007
1162,1782589828988,0.28000000000000003,-0.56000000000000005,0
1163,1782589829021,0.20999999999999999,-0.56000000000000005,0
1164,1782589829037,0.20999999999999999,-0.48999999999999999,0
1165,1782589829070,0.20999999999999999,-0.56000000000000005,0
1166,1782589829088,0.20999999999999999,-0.48999999999999999,0
1167,1782589829154,0.20999999999999999,-0.48999999999999999,0
1168,1782589829187,0.20999999999999999,-0.48999999999999999,0
1169,1782589829287,0.20999999999999999,-0.56000000000000005,0
1170,1782589829370,0.20999999999999999,-0.56000000000000005,0
1171,1782589829471,0.20999999999999999,-0.48999999999999999,0
1172,1782589829538,0.20999999999999999,-0.48999999999999999,0
1173,1782589829587,0.20999999999999999,-0.48999999999999999,0
1174,1782589829637,0.14000000000000001,-0.48999999999999999,0
1175,1782589829686,0.14000000000000001,-0.56000000000000005,0
1176,1782589829720,0.20999999999999999,-0.56000000000000005,0
1177,1782589829737,0.20999999999999999,-0.48999999999999999,0
1178,1782589829770,0.20999999999999999,-0.48999999999999999,0
1179,1782589829904,0.20999999999999999,-0.48999999999999999,0
1180,1782589829936,0.20999999999999999,-0.56000000000000005,0
1181,1782589830020,0.20999999999999999,-0.48999999999999999,0.070000000000000007
1182,1782589830087,0.14000000000000001,-0.48999999999999999,0
1183,1782589830136,0.14000000000000001,-0.48999999999999999,0
1184,1782589830187,0.14000000000000001,-0.48999999999999999,0
1185,1782589830237,0.20999999999999999,-0.48999999999999999,0
1186,1782589830336,0.20999999999999999,-0.56000000000000005,0
1187,1782589830387,0.20999999999999999,-0.56000000000000005,0
1188,1782589830437,0.20999999999999999,-0.56000000000000005,0
1189,1782589830487,0.20999999999999999,-0.56000000000000005,0
1190,1782589830619,0.20999999999999999,-0.41999999999999998,0
1191,1782589830637,0.20999999999999999,-0.41999999999999998,0
1192,1782589830702,0.20999999999999999,-0.41999999999999998,0
1193,1782589830803,0.20999999999999999,-0.48999999999999999,0
1194,1782589830903,0.20999999999999999,-0.48999999999999999,0
1195,1782589830953,0.20999999999999999,-0.56000000000000005,0
1196,1782589831003,0.20999999999999999,-0.56000000000000005,0
1197,1782589831021,0.14000000000000001,-0.56000000000000005,0
1198,1782589831086,0.20999999999999999,-0.56000000000000005,0.070000000000000007
1199,1782589831135,0.20999999999999999,-0.56000000000000005,0.070000000000000007
1200,1782589831186,0.20999999999999999,-0.56000000000000005,0.070000000000000007
1201,1782589831236,0.20999999999999999,-0.56000000000000005,0
1202,1782589831319,0.20999999999999999,-0.56000000000000005,0
1203,1782589831402,0.20999999999999999,-0.56000000000000005,0
1204,1782589831452,0.20999999999999999,-0.56000000000000005,0
1205,1782589831501,0.20999999999999999,-0.56000000000000005,0
1206,1782589831552,0.28000000000000003,-0.48999999999999999,0
1207,1782589831569,0.20999999999999999,-0.48999999999999999,0
1208,1782589831668,0.20999999999999999,-0.48999999999999999,0
1209,1782589831719,0.20999999999999999,-0.48999999999999999,0
1210,1782589831785,0.20999999999999999,-0.48999999999999999,0
1211,1782589831818,0.20999999999999999,-0.48999999999999999,0.070000000000000007
1212,1782589831885,0.20999999999999999,-0.48999999999999999,0
1213,1782589831919,0.20999999999999999,-0.48999999999999999,0
1214,1782589831952,0.20999999999999999,-0.56000000000000005,0
1215,1782589831968,0.20999999999999999,-0.56000000000000005,0
1216,1782589832238,0.20999999999999999,-0.48999999999999999,0
1217,1782589832241,0.20999999999999999,-0.48999999999999999,0
1218,1782589832252,0.20999999999999999,-0.48999999999999999,0
1219,1782589832252,0.20999999999999999,-0.48999999999999999,0
1220,1782589832252,0.20999999999999999,-0.48999999999999999,0
1221,1782589832252,0.20999999999999999,-0.48999999999999999,0
1222,1782589832335,0.20999999999999999,-0.41999999999999998,0
1223,1782589832401,0.20999999999999999,-0.48999999999999999,0
1224,1782589832418,0.28000000000000003,-0.48999999999999999,0.070000000000000007
1225,1782589832468,0.28000000000000003,-0.48999999999999999,0
1226,1782589832501,0.28000000000000003,-0.48999999999999999,0.070000000000000007
1227,1782589832519,0.14000000000000001,-0.48999999999999999,0
1228,1782589832551,0.14000000000000001,-0.48999999999999999,0
1229,1782589832601,0.14000000000000001,-0.48999999999999999,0
1230,1782589832768,0.14000000000000001,-0.48999999999999999,0
1231,1782589832817,0.14000000000000001,-0.48999999999999999,0
1232,1782589832850,0.14000000000000001,-0.48999999999999999,0
1233,1782589832884,0.14000000000000001,-0.48999999999999999,0
1234,1782589832918,0.14000000000000001,-0.48999999999999999,0
1235,1782589832951,0.20999999999999999,-0.48999999999999999,0
1236,1782589833019,0.20999999999999999,-0.48999999999999999,0
1237,1782589833117,0.20999999999999999,-0.48999999999999999,0
1238,1782589833317,0.20999999999999999,-0.56000000000000005,0.070000000000000007
1239,1782589833417,0.20999999999999999,-0.56000000000000005,0
1240,1782589833500,0.20999999999999999,-0.48999999999999999,0
1241,1782589833517,0.20999999999999999,-0.48999999999999999,0
1242,1782589833568,0.20999999999999999,-0.48999999999999999,0
1243,1782589833617,0.20999999999999999,-0.48999999999999999,0
1244,1782589833667,0.20999999999999999,-0.48999999999999999,0
1245,1782589833768,0.28000000000000003,-0.56000000000000005,0.070000000000000007
1246,1782589833818,0.20999999999999999,-0.56000000000000005,0.070000000000000007
1247,1782589833851,0.20999999999999999,-0.56000000000000005,0
1248,1782589833868,0.20999999999999999,-0.48999999999999999,0.070000000000000007
1249,1782589833884,0.14000000000000001,-0.48999999999999999,0
1250,1782589834001,0.20999999999999999,-0.48999999999999999,0.070000000000000007
1251,1782589834084,0.20999999999999999,-0.48999999999999999,0.070000000000000007
1252,1782589834117,0.20999999999999999,-0.48999999999999999,0.070000000000000007
1253,1782589834184,0.14000000000000001,-0.48999999999999999,0.070000000000000007
1254,1782589834217,0.20999999999999999,-0.48999999999999999,0
1255,1782589834250,0.20999999999999999,-0.48999999999999999,0
1256,1782589834317,0.20999999999999999,-0.48999999999999999,0
1257,1782589834350,0.20999999999999999,-0.48999999999999999,0
1258,1782589834416,0.20999999999999999,-0.56000000000000005,0
1259,1782589834467,0.28000000000000003,-0.56000000000000005,0
1260,1782589834516,0.28000000000000003,-0.56000000000000005,0
1261,1782589834532,0.28000000000000003,-0.56000000000000005,0
1262,1782589834566,0.28000000000000003,-0.48999999999999999,0.070000000000000007
1263,1782589834582,0.20999999999999999,-0.56000000000000005,0
1264,1782589834633,0.20999999999999999,-0.56000000000000005,0
1265,1782589834699,0.28000000000000003,-0.56000000000000005,0
1266,1782589834767,0.28000000000000003,-0.56000000000000005,0
1267,1782589834833,0.28000000000000003,-0.56000000000000005,0
1268,1782589834915,0.20999999999999999,-0.48999999999999999,0
1269,1782589834950,0.28000000000000003,-0.48999999999999999,0
1270,1782589835017,0.28000000000000003,-0.48999999999999999,0
1271,1782589835050,0.28000000000000003,-0.48999999999999999,0
1272,1782589835100,0.28000000000000003,-0.48999999999999999,0
1273,1782589835232,0.28000000000000003,-0.41999999999999998,0.070000000000000007
1274,1782589835282,0.28000000000000003,-0.48999999999999999,0.070000000000000007
1275,1782589835332,0.28000000000000003,-0.48999999999999999,0.070000000000000007
1276,1782589835382,0.070000000000000007,-0.56000000000000005,-0.070000000000000007
1277,1782589835448,0.070000000000000007,-0.56000000000000005,0
1278,1782589835515,0.070000000000000007,-0.56000000000000005,0
1279,1782589835565,0.070000000000000007,-0.56000000000000005,0
1280,1782589835615,0.20999999999999999,-0.48999999999999999,0.14000000000000001
1281,1782589835665,0.20999999999999999,-0.48999999999999999,0.070000000000000007
1282,1782589835732,0.20999999999999999,-0.48999999999999999,0.070000000000000007
1283,1782589835748,0.20999999999999999,-0.48999999999999999,0.070000000000000007
1284,1782589835832,0.20999999999999999,-0.56000000000000005,0.070000000000000007
1285,1782589835865,0.20999999999999999,-0.56000000000000005,0
1286,1782589835882,0.20999999999999999,-0.48999999999999999,-0.070000000000000007
1287,1782589835931,0.20999999999999999,-0.48999999999999999,-0.070000000000000007
1288,1782589835981,0.20999999999999999,-0.48999999999999999,-0.070000000000000007
1289,1782589836032,0.20999999999999999,-0.48999999999999999,-0.070000000000000007
1290,1782589836081,0.20999999999999999,-0.63,-0.070000000000000007
1291,1782589836198,0.28000000000000003,-0.48999999999999999,0
1292,1782589836249,0.20999999999999999,-0.56000000000000005,0
1293,1782589836331,0.28000000000000003,-0.48999999999999999,0
1294,1782589836382,0.28000000000000003,-0.48999999999999999,0.070000000000000007
1295,1782589836448,0.20999999999999999,-0.48999999999999999,0
1296,1782589836498,0.20999999999999999,-0.56000000000000005,0
1297,1782589836565,0.20999999999999999,-0.56000000000000005,-0.070000000000000007
1298,1782589836648,0.20999999999999999,-0.56000000000000005,-0.070000000000000007
1299,1782589836714,0.20999999999999999,-0.48999999999999999,0
1300,1782589836764,0.20999999999999999,-0.48999999999999999,0
1301,1782589836814,0.20999999999999999,-0.48999999999999999,0
1302,1782589836864,0.20999999999999999,-0.48999999999999999,0
1303,1782589836914,0.20999999999999999,-0.48999999999999999,0
1304,1782589836981,0.20999999999999999,-0.48999999999999999,0
1305,1782589837064,0.20999999999999999,-0.41999999999999998,0
1306,1782589837130,0.14000000000000001,-0.48999999999999999,0
1307,1782589837247,0.14000000000000001,-0.48999999999999999,0
1308,1782589837297,0.28000000000000003,-0.56000000000000005,0
1309,1782589837364,0.28000000000000003,-0.56000000000000005,0
1310,1782589837397,0.28000000000000003,-0.48999999999999999,0
1311,1782589837464,0.28000000000000003,-0.56000000000000005,0
1312,1782589837580,0.14000000000000001,-0.48999999999999999,0.070000000000000007
1313,1782589837646,0.20999999999999999,-0.48999999999999999,0
1314,1782589837680,0.14000000000000001,-0.48999999999999999,0
1315,1782589837747,0.14000000000000001,-0.48999999999999999,0
1316,1782589837813,0.14000000000000001,-0.48999999999999999,0
1317,1782589837863,0.14000000000000001,-0.56000000000000005,0
1318,1782589837963,0.20999999999999999,-0.56000000000000005,0
1319,1782589838014,0.20999999999999999,-0.56000000000000005,0
1320,1782589838063,0.20999999999999999,-0.48999999999999999,0
1321,1782589838130,0.20999999999999999,-0.48999999999999999,0
1322,1782589838197,0.20999999999999999,-0.48999999999999999,0
1323,1782589838247,0.20999999999999999,-0.48999999999999999,0
1324,1782589838330,0.20999999999999999,-0.56000000000000005,0
1325,1782589838364,0.20999999999999999,-0.56000000000000005,0
1326,1782589838429,0.20999999999999999,-0.56000000000000005,0.070000000000000007
1327,1782589838463,0.20999999999999999,-0.56000000000000005,0
1328,1782589838529,0.20999999999999999,-0.56000000000000005,0
1329,1782589838596,0.20999999999999999,-0.48999999999999999,0
1330,1782589838696,0.20999999999999999,-0.48999999999999999,0.070000000000000007
1331,1782589838729,0.20999999999999999,-0.48999999999999999,0.070000000000000007
1332,1782589838746,0.20999999999999999,-0.48999999999999999,0.070000000000000007
1333,1782589838796,0.14000000000000001,-0.56000000000000005,0
1334,1782589838880,0.14000000000000001,-0.48999999999999999,0
1335,1782589838913,0.14000000000000001,-0.48999999999999999,0
1336,1782589838962,0.14000000000000001,-0.48999999999999999,0
1337,1782589839046,0.20999999999999999,-0.48999999999999999,0
1338,1782589839080,0.20999999999999999,-0.48999999999999999,0
1339,1782589839096,0.14000000000000001,-0.48999999999999999,0.070000000000000007
1340,1782589839146,0.070000000000000007,-0.48999999999999999,0.070000000000000007
1341,1782589839196,0.070000000000000007,-0.48999999999999999,0.070000000000000007
1342,1782589839278,0.070000000000000007,-0.48999999999999999,0
1343,1782589839295,0.070000000000000007,-0.56000000000000005,-0.070000000000000007
1344,1782589839312,0.14000000000000001,-0.56000000000000005,-0.070000000000000007
1345,1782589839345,0.14000000000000001,-0.63,-0.070000000000000007
1346,1782589839395,0.14000000000000001,-0.69999999999999996,-0.070000000000000007
1347,1782589839446,0.070000000000000007,-0.48999999999999999,0
1348,1782589839545,0.070000000000000007,-0.48999999999999999,0
1349,1782589839562,0.20999999999999999,-0.48999999999999999,0
1350,1782589839629,0.20999999999999999,-0.48999999999999999,-0.070000000000000007
1351,1782589839761,0,-0.63,-0.070000000000000007
1352,1782589839828,0.070000000000000007,-0.63,0
1353,1782589839862,0.14000000000000001,-0.63,-0.070000000000000007
1354,1782589839895,0.20999999999999999,-0.63,-0.070000000000000007
1355,1782589839912,0.20999999999999999,-0.56000000000000005,0
1356,1782589840045,0.28000000000000003,-0.48999999999999999,0.070000000000000007
1357,1782589840178,0.070000000000000007,-0.56000000000000005,0
1358,1782589840196,0.070000000000000007,-0.56000000000000005,0
1359,1782589840211,0.070000000000000007,-0.56000000000000005,-0.070000000000000007
1360,1782589840244,0.14000000000000001,-0.48999999999999999,-0.070000000000000007
1361,1782589840294,0.20999999999999999,-0.48999999999999999,-0.070000000000000007
1362,1782589840478,0.20999999999999999,-0.56000000000000005,0
1363,1782589840511,0.20999999999999999,-0.48999999999999999,0
1364,1782589840528,0.20999999999999999,-0.56000000000000005,0
1365,1782589840594,0.20999999999999999,-0.48999999999999999,0
1366,1782589840611,0.20999999999999999,-0.48999999999999999,0
1367,1782589840627,0.20999999999999999,-0.48999999999999999,0
1368,1782589840811,0.28000000000000003,-0.56000000000000005,0
1369,1782589840844,0.20999999999999999,-0.56000000000000005,0.070000000000000007
1370,1782589840911,0.20999999999999999,-0.56000000000000005,0
1371,1782589840927,0.20999999999999999,-0.56000000000000005,0.070000000000000007
1372,1782589841077,0.20999999999999999,-0.48999999999999999,0
1373,1782589841145,0.20999999999999999,-0.56000000000000005,0
1374,1782589841210,0.20999999999999999,-0.41999999999999998,0.070000000000000007
1375,1782589841244,0.28000000000000003,-0.41999999999999998,0.070000000000000007
1376,1782589841310,0.20999999999999999,-0.48999999999999999,0
1377,1782589841460,0.34999999999999998,-0.41999999999999998,-0.070000000000000007
1378,1782589841494,0.41999999999999998,-0.41999999999999998,-0.070000000000000007
1379,1782589841511,0.41999999999999998,-0.41999999999999998,-0.070000000000000007
1380,1782589841544,0.34999999999999998,-0.34999999999999998,-0.070000000000000007
1381,1782589841577,0.34999999999999998,-0.41999999999999998,0
1382,1782589841594,0.34999999999999998,-0.48999999999999999,0.070000000000000007
1383,1782589841644,0.34999999999999998,-0.48999999999999999,0.070000000000000007
1384,1782589841693,0.28000000000000003,-0.56000000000000005,0.070000000000000007
1385,1782589841761,0.20999999999999999,-0.63,0.070000000000000007
1386,1782589841810,0.14000000000000001,-0.63,0.070000000000000007
1387,1782589841844,0.20999999999999999,-0.48999999999999999,0
1388,1782589841893,0.20999999999999999,-0.48999999999999999,0
1389,1782589841943,0.20999999999999999,-0.56000000000000005,0
1390,1782589842027,0.20999999999999999,-0.56000000000000005,0.070000000000000007
1391,1782589842110,0.20999999999999999,-0.48999999999999999,0
1392,1782589842160,0.14000000000000001,-0.48999999999999999,0
1393,1782589842226,0.20999999999999999,-0.48999999999999999,0
1394,1782589842276,0.28000000000000003,-0.48999999999999999,0
1395,1782589842310,0.28000000000000003,-0.48999999999999999,0.070000000000000007
1396,1782589842359,0.28000000000000003,-0.41999999999999998,0.070000000000000007
1397,1782589842426,0.28000000000000003,-0.41999999999999998,0.070000000000000007
1398,1782589842476,0.28000000000000003,-0.41999999999999998,0.070000000000000007
1399,1782589842576,0.20999999999999999,-0.56000000000000005,-0.070000000000000007
1400,1782589842675,0.20999999999999999,-0.56000000000000005,-0.070000000000000007
1401,1782589842709,0.20999999999999999,-0.56000000000000005,-0.070000000000000007
1402,1782589842776,0.14000000000000001,-0.56000000000000005,-0.070000000000000007
1403,1782589842826,0.20999999999999999,-0.48999999999999999,0
1404,1782589842926,0.20999999999999999,-0.56000000000000005,-0.070000000000000007
1405,1782589843270,0.20999999999999999,-0.56000000000000005,-0.070000000000000007
1406,1782589843275,0.14000000000000001,-0.41999999999999998,-0.14000000000000001
1407,1782589843275,0.14000000000000001,-0.48999999999999999,-0.070000000000000007
1408,1782589843292,0.14000000000000001,-0.48999999999999999,-0.070000000000000007
1409,1782589843292,0.14000000000000001,-0.48999999999999999,-0.070000000000000007
1410,1782589843292,0.14000000000000001,-0.48999999999999999,0.070000000000000007
1411,1782589843292,0.14000000000000001,-0.56000000000000005,0.070000000000000007
1412,1782589843359,0.14000000000000001,-0.48999999999999999,0.070000000000000007
1413,1782589843408,0.14000000000000001,-0.48999999999999999,0.070000000000000007
1414,1782589843492,0.14000000000000001,-0.48999999999999999,0.070000000000000007
1415,1782589843558,0.14000000000000001,-0.48999999999999999,0.070000000000000007
1416,1782589843625,0.20999999999999999,-0.48999999999999999,0
1417,1782589843725,0.20999999999999999,-0.48999999999999999,0
1418,1782589843775,0.20999999999999999,-0.48999999999999999,-0.070000000000000007
1419,1782589843824,0.20999999999999999,-0.48999999999999999,-0.070000000000000007
1420,1782589843875,0.20999999999999999,-0.48999999999999999,0
1421,1782589843975,0.20999999999999999,-0.48999999999999999,0
1422,1782589844042,0.20999999999999999,-0.56000000000000005,0
1423,1782589844091,0.20999999999999999,-0.48999999999999999,0.070000000000000007
1424,1782589844158,0.20999999999999999,-0.56000000000000005,0.070000000000000007
1425,1782589844191,0.20999999999999999,-0.48999999999999999,0
1426,1782589844241,0.20999999999999999,-0.48999999999999999,-0.070000000000000007
1427,1782589844291,0.20999999999999999,-0.48999999999999999,0
1428,1782589844358,0.20999999999999999,-0.48999999999999999,0
1429,1782589844391,0.20999999999999999,-0.48999999999999999,0
1430,1782589844524,0.14000000000000001,-0.56000000000000005,0
1431,1782589844558,0.20999999999999999,-0.56000000000000005,0
1432,1782589844641,0.14000000000000001,-0.56000000000000005,0
1433,1782589844691,0.20999999999999999,-0.48999999999999999,0
1434,1782589844725,0.20999999999999999,-0.56000000000000005,0
1435,1782589844775,0.20999999999999999,-0.56000000000000005,0
1436,1782589844807,0.20999999999999999,-0.56000000000000005,0
1437,1782589844874,0.20999999999999999,-0.56000000000000005,0
1438,1782589844990,0.28000000000000003,-0.48999999999999999,-0.070000000000000007
1439,1782589845074,0.28000000000000003,-0.48999999999999999,-0.070000000000000007
1440,1782589845141,0.28000000000000003,-0.56000000000000005,-0.070000000000000007
1441,1782589845207,0.20999999999999999,-0.48999999999999999,0.070000000000000007
1442,1782589845274,0.14000000000000001,-0.48999999999999999,0.070000000000000007
1443,1782589845357,0.14000000000000001,-0.48999999999999999,0.070000000000000007
1444,1782589845440,0.14000000000000001,-0.56000000000000005,0.070000000000000007
1445,1782589845458,0.14000000000000001,-0.56000000000000005,0.070000000000000007
1446,1782589845491,0.070000000000000007,-0.56000000000000005,0
1447,1782589845524,0.070000000000000007,-0.56000000000000005,0
1448,1782589845657,0.14000000000000001,-0.48999999999999999,0
1449,1782589845708,0.20999999999999999,-0.48999999999999999,-0.070000000000000007
1450,1782589845757,0.20999999999999999,-0.48999999999999999,-0.070000000000000007
1451,1782589845807,0.20999999999999999,-0.48999999999999999,0
1452,1782589845823,0.14000000000000001,-0.48999999999999999,0
1453,1782589845874,0.20999999999999999,-0.56000000000000005,0
1454,1782589845923,0.20999999999999999,-0.56000000000000005,0
1455,1782589846106,0.20999999999999999,-0.48999999999999999,0.070000000000000007
1456,1782589846173,0.20999999999999999,-0.48999999999999999,0.070000000000000007
1457,1782589846206,0.20999999999999999,-0.56000000000000005,0
1458,1782589846256,0.20999999999999999,-0.56000000000000005,0
1459,1782589846322,0.28000000000000003,-0.56000000000000005,0
1460,1782589846472,0.28000000000000003,-0.56000000000000005,0
1461,1782589846522,0.14000000000000001,-0.48999999999999999,0
1462,1782589846556,0.14000000000000001,-0.48999999999999999,-0.070000000000000007
1463,1782589846622,0.14000000000000001,-0.41999999999999998,-0.070000000000000007
1464,1782589846706,0.20999999999999999,-0.41999999999999998,-0.070000000000000007
1465,1782589846789,0.20999999999999999,-0.41999999999999998,0
1466,1782589846839,0.20999999999999999,-0.48999999999999999,0.070000000000000007
1467,1782589846939,0.20999999999999999,-0.48999999999999999,0.070000000000000007
1468,1782589846989,0.20999999999999999,-0.48999999999999999,0.070000000000000007
1469,1782589847056,0.20999999999999999,-0.56000000000000005,0
1470,1782589847073,0.14000000000000001,-0.56000000000000005,0
1471,1782589847122,0.20999999999999999,-0.56000000000000005,0
1472,1782589847240,0.20999999999999999,-0.56000000000000005,0
1473,1782589847272,0.20999999999999999,-0.48999999999999999,0
1474,1782589847340,0.14000000000000001,-0.48999999999999999,0
1475,1782589847372,0.070000000000000007,-0.48999999999999999,0
1476,1782589847405,0.070000000000000007,-0.48999999999999999,0
1477,1782589847505,0.14000000000000001,-0.48999999999999999,0
1478,1782589847572,0.20999999999999999,-0.56000000000000005,0
1479,1782589847638,0.20999999999999999,-0.56000000000000005,0
1480,1782589847738,0.20999999999999999,-0.48999999999999999,0
1481,1782589847789,0.14000000000000001,-0.48999999999999999,-0.070000000000000007
1482,1782589847854,0.20999999999999999,-0.56000000000000005,0
1483,1782589847938,0.20999999999999999,-0.56000000000000005,0
1484,1782589848055,0.20999999999999999,-0.48999999999999999,0
1485,1782589848088,0.20999999999999999,-0.48999999999999999,0
1486,1782589848104,0.20999999999999999,-0.56000000000000005,0
1487,1782589848137,0.20999999999999999,-0.56000000000000005,0
1488,1782589848254,0.20999999999999999,-0.56000000000000005,0
1489,1782589848337,0.14000000000000001,-0.48999999999999999,0
1490,1782589848372,0.20999999999999999,-0.56000000000000005,0
1491,1782589848421,0.20999999999999999,-0.56000000000000005,0.070000000000000007
1492,1782589848471,0.20999999999999999,-0.56000000000000005,0.070000000000000007
1493,1782589848538,0.20999999999999999,-0.56000000000000005,0
1494,1782589848554,0.14000000000000001,-0.56000000000000005,0
1495,1782589848587,0.20999999999999999,-0.48999999999999999,0
1496,1782589848638,0.20999999999999999,-0.48999999999999999,0
1497,1782589848738,0.28000000000000003,-0.48999999999999999,0.070000000000000007
1498,1782589848805,0.28000000000000003,-0.48999999999999999,0.070000000000000007
1499,1782589848855,0.28000000000000003,-0.56000000000000005,0
1500,1782589848920,0.20999999999999999,-0.56000000000000005,0.070000000000000007
1501,1782589848971,0.20999999999999999,-0.56000000000000005,0.070000000000000007
1502,1782589849022,0.20999999999999999,-0.56000000000000005,0.070000000000000007
1503,1782589849054,0.20999999999999999,-0.56000000000000005,0.070000000000000007
1504,1782589849088,0.20999999999999999,-0.56000000000000005,0
1505,1782589849120,0.20999999999999999,-0.56000000000000005,0
1506,1782589849187,0.20999999999999999,-0.56000000000000005,0
1507,1782589849253,0.20999999999999999,-0.56000000000000005,0
1508,1782589849303,0.20999999999999999,-0.56000000000000005,0
1509,1782589849320,0.20999999999999999,-0.56000000000000005,0.070000000000000007
1510,1782589849386,0.20999999999999999,-0.56000000000000005,0.070000000000000007
1511,1782589849471,0.20999999999999999,-0.56000000000000005,0
1512,1782589849520,0.20999999999999999,-0.56000000000000005,0
1513,1782589849570,0.20999999999999999,-0.48999999999999999,0
1514,1782589849620,0.28000000000000003,-0.48999999999999999,0
1515,1782589849704,0.20999999999999999,-0.48999999999999999,0.070000000000000007
1516,1782589849770,0.20999999999999999,-0.56000000000000005,0
1517,1782589849837,0.20999999999999999,-0.48999999999999999,0
1518,1782589849936,0.20999999999999999,-0.48999999999999999,0
1519,1782589849953,0.28000000000000003,-0.48999999999999999,0
1520,1782589850019,0.28000000000000003,-0.48999999999999999,0
1521,1782589850070,0.28000000000000003,-0.48999999999999999,0
1522,1782589850120,0.070000000000000007,-0.48999999999999999,0
1523,1782589850169,0.070000000000000007,-0.48999999999999999,0
1524,1782589850186,0.20999999999999999,-0.48999999999999999,0
1525,1782589850252,0.20999999999999999,-0.48999999999999999,0
1526,1782589850303,0.20999999999999999,-0.48999999999999999,0
1527,1782589850336,0.28000000000000003,-0.48999999999999999,0
1528,1782589850386,0.20999999999999999,-0.48999999999999999,0
1529,1782589850486,0.20999999999999999,-0.56000000000000005,0
1530,1782589850553,0.20999999999999999,-0.56000000000000005,0
1531,1782589850603,0.20999999999999999,-0.48999999999999999,0
1532,1782589850653,0.20999999999999999,-0.56000000000000005,0
1533,1782589850685,0.20999999999999999,-0.48999999999999999,0
1534,1782589850753,0.20999999999999999,-0.48999999999999999,0
1535,1782589850837,0.20999999999999999,-0.48999999999999999,0
1536,1782589850903,0.20999999999999999,-0.48999999999999999,-0.070000000000000007
1537,1782589850953,0.28000000000000003,-0.48999999999999999,0
1538,1782589851019,0.28000000000000003,-0.56000000000000005,0
1539,1782589851036,0.28000000000000003,-0.48999999999999999,0.070000000000000007
1540,1782589851069,0.28000000000000003,-0.48999999999999999,0
1541,1782589851135,0.28000000000000003,-0.48999999999999999,0.070000000000000007
1542,1782589851219,0.28000000000000003,-0.48999999999999999,0
1543,1782589851236,0.20999999999999999,-0.48999999999999999,0
1544,1782589851286,0.20999999999999999,-0.48999999999999999,-0.070000000000000007
1545,1782589851302,0.20999999999999999,-0.48999999999999999,0
1546,1782589851336,0.20999999999999999,-0.48999999999999999,0
1547,1782589851353,0.20999999999999999,-0.48999999999999999,0
1548,1782589851385,0.20999999999999999,-0.48999999999999999,0
1549,1782589851419,0.20999999999999999,-0.48999999999999999,0
1550,1782589851468,0.20999999999999999,-0.48999999999999999,0
1551,1782589851535,0.20999999999999999,-0.48999999999999999,0
1552,1782589851569,0.28000000000000003,-0.48999999999999999,0
1553,1782589851635,0.28000000000000003,-0.48999999999999999,0
1554,1782589851685,0.28000000000000003,-0.48999999999999999,0
1555,1782589851751,0.20999999999999999,-0.48999999999999999,0
1556,1782589851785,0.20999999999999999,-0.48999999999999999,0
1557,1782589851818,0.20999999999999999,-0.48999999999999999,0
1558,1782589851869,0.20999999999999999,-0.48999999999999999,0
1559,1782589851918,0.20999999999999999,-0.48999999999999999,0
1560,1782589851935,0.14000000000000001,-0.48999999999999999,0
1561,1782589851968,0.20999999999999999,-0.48999999999999999,0
1562,1782589852034,0.14000000000000001,-0.48999999999999999,0
1563,1782589852134,0.20999999999999999,-0.56000000000000005,0.070000000000000007
1564,1782589852201,0.20999999999999999,-0.56000000000000005,0.070000000000000007
1565,1782589852268,0.20999999999999999,-0.56000000000000005,0
1566,1782589852318,0.20999999999999999,-0.56000000000000005,0
1567,1782589852401,0.20999999999999999,-0.56000000000000005,0
1568,1782589852451,0.20999999999999999,-0.48999999999999999,0
1569,1782589852502,0.20999999999999999,-0.48999999999999999,0
1570,1782589852568,0.20999999999999999,-0.48999999999999999,0
1571,1782589852617,0.14000000000000001,-0.56000000000000005,0
1572,1782589852651,0.14000000000000001,-0.56000000000000005,0
1573,1782589852717,0.14000000000000001,-0.56000000000000005,0
1574,1782589852802,0.14000000000000001,-0.56000000000000005,0.070000000000000007
1575,1782589852817,0.20999999999999999,-0.56000000000000005,0.070000000000000007
1576,1782589852884,0.20999999999999999,-0.56000000000000005,0.070000000000000007
1577,1782589852918,0.20999999999999999,-0.56000000000000005,0.070000000000000007
1578,1782589852984,0.20999999999999999,-0.56000000000000005,0.070000000000000007
1579,1782589853000,0.20999999999999999,-0.48999999999999999,0
1580,1782589853017,0.28000000000000003,-0.48999999999999999,0
1581,1782589853067,0.20999999999999999,-0.48999999999999999,0
1582,1782589853134,0.28000000000000003,-0.56000000000000005,0
1583,1782589853217,0.28000000000000003,-0.56000000000000005,0
1584,1782589853301,0.28000000000000003,-0.56000000000000005,0
1585,1782589853334,0.20999999999999999,-0.56000000000000005,0
1586,1782589853383,0.20999999999999999,-0.56000000000000005,0
1587,1782589853433,0.20999999999999999,-0.56000000000000005,0
1588,1782589853516,0.20999999999999999,-0.56000000000000005,0
1589,1782589853616,0.20999999999999999,-0.56000000000000005,0
1590,1782589853633,0.20999999999999999,-0.56000000000000005,0
1591,1782589853666,0.20999999999999999,-0.56000000000000005,0
1592,1782589853683,0.20999999999999999,-0.56000000000000005,0
1593,1782589853700,0.14000000000000001,-0.56000000000000005,0
1594,1782589853733,0.14000000000000001,-0.56000000000000005,0
1595,1782589853800,0.20999999999999999,-0.56000000000000005,0
1596,1782589853850,0.14000000000000001,-0.48999999999999999,0
1597,1782589853899,0.14000000000000001,-0.48999999999999999,0
1598,1782589854246,0.20999999999999999,-0.56000000000000005,0
1599,1782589854249,0.20999999999999999,-0.56000000000000005,0
1600,1782589854266,0.20999999999999999,-0.56000000000000005,0.070000000000000007
1601,1782589854266,0.28000000000000003,-0.56000000000000005,0
1602,1782589854266,0.28000000000000003,-0.56000000000000005,0
1603,1782589854316,0.20999999999999999,-0.56000000000000005,0
1604,1782589854366,0.20999999999999999,-0.56000000000000005,0
1605,1782589854416,0.20999999999999999,-0.56000000000000005,0.070000000000000007
1606,1782589854449,0.20999999999999999,-0.56000000000000005,0
1607,1782589854499,0.20999999999999999,-0.48999999999999999,0
1608,1782589854566,0.28000000000000003,-0.48999999999999999,0
1609,1782589854599,0.28000000000000003,-0.56000000000000005,0
1610,1782589854666,0.28000000000000003,-0.48999999999999999,0
1611,1782589854715,0.20999999999999999,-0.63,0
1612,1782589854766,0.20999999999999999,-0.63,0
1613,1782589854932,0.20999999999999999,-0.48999999999999999,0
1614,1782589855000,0.20999999999999999,-0.56000000000000005,0
1615,1782589855050,0.20999999999999999,-0.48999999999999999,0.070000000000000007
1616,1782589855099,0.20999999999999999,-0.48999999999999999,0.070000000000000007
1617,1782589855165,0.14000000000000001,-0.48999999999999999,0
1618,1782589855200,0.20999999999999999,-0.48999999999999999,0
1619,1782589855249,0.20999999999999999,-0.48999999999999999,0
1620,1782589855315,0.20999999999999999,-0.48999999999999999,0
1621,1782589855382,0.14000000000000001,-0.48999999999999999,0
1622,1782589855465,0.20999999999999999,-0.48999999999999999,0
1623,1782589855500,0.20999999999999999,-0.48999999999999999,0
1624,1782589855566,0.20999999999999999,-0.56000000000000005,0
1625,1782589855615,0.20999999999999999,-0.56000000000000005,0.070000000000000007
1626,1782589855732,0.20999999999999999,-0.48999999999999999,0
1627,1782589855799,0.20999999999999999,-0.48999999999999999,0
1628,1782589855899,0.20999999999999999,-0.48999999999999999,0
1629,1782589855931,0.20999999999999999,-0.48999999999999999,0
1630,1782589855965,0.20999999999999999,-0.48999999999999999,0
1631,1782589856015,0.20999999999999999,-0.48999999999999999,0
1632,1782589856065,0.20999999999999999,-0.48999999999999999,0
1633,1782589856115,0.20999999999999999,-0.48999999999999999,0
1634,1782589856165,0.20999999999999999,-0.56000000000000005,0
1635,1782589856215,0.20999999999999999,-0.56000000000000005,0.070000000000000007
1636,1782589856281,0.20999999999999999,-0.48999999999999999,0.070000000000000007
1637,1782589856315,0.14000000000000001,-0.56000000000000005,0
1638,1782589856398,0.20999999999999999,-0.56000000000000005,0.070000000000000007
1639,1782589856447,0.14000000000000001,-0.56000000000000005,0.070000000000000007
1640,1782589856498,0.20999999999999999,-0.48999999999999999,0.070000000000000007
1641,1782589856531,0.20999999999999999,-0.56000000000000005,0
1642,1782589856547,0.20999999999999999,-0.56000000000000005,0
1643,1782589856564,0.20999999999999999,-0.56000000000000005,0.070000000000000007
1644,1782589856614,0.20999999999999999,-0.56000000000000005,0
1645,1782589856665,0.20999999999999999,-0.56000000000000005,0
1646,1782589856748,0.20999999999999999,-0.48999999999999999,0
1647,1782589856830,0.20999999999999999,-0.48999999999999999,0
1648,1782589856847,0.20999999999999999,-0.48999999999999999,0
1649,1782589856897,0.20999999999999999,-0.48999999999999999,0
1650,1782589856947,0.20999999999999999,-0.48999999999999999,0
1651,1782589856997,0.20999999999999999,-0.56000000000000005,0
1652,1782589857047,0.20999999999999999,-0.48999999999999999,0
1653,1782589857114,0.28000000000000003,-0.48999999999999999,0
1654,1782589857197,0.28000000000000003,-0.48999999999999999,0
1655,1782589857248,0.28000000000000003,-0.48999999999999999,0.070000000000000007
1656,1782589857280,0.28000000000000003,-0.56000000000000005,0.070000000000000007
1657,1782589857330,0.28000000000000003,-0.56000000000000005,0.070000000000000007
1658,1782589857347,0.20999999999999999,-0.48999999999999999,0
1659,1782589857380,0.14000000000000001,-0.56000000000000005,0
1660,1782589857513,0.20999999999999999,-0.48999999999999999,0.070000000000000007
1661,1782589857530,0.20999999999999999,-0.48999999999999999,0.070000000000000007
1662,1782589857547,0.20999999999999999,-0.56000000000000005,0.070000000000000007
1663,1782589857580,0.14000000000000001,-0.48999999999999999,0.070000000000000007
1664,1782589857613,0.20999999999999999,-0.41999999999999998,0
1665,1782589857713,0.28000000000000003,-0.41999999999999998,0
1666,1782589857780,0.28000000000000003,-0.63,0
1667,1782589857846,0.28000000000000003,-0.56000000000000005,0
1668,1782589857880,0.28000000000000003,-0.56000000000000005,0
1669,1782589857947,0.28000000000000003,-0.48999999999999999,0
1670,1782589858080,0.28000000000000003,-0.48999999999999999,0
1671,1782589858147,0.28000000000000003,-0.56000000000000005,0.070000000000000007
1672,1782589858163,0.28000000000000003,-0.56000000000000005,0.070000000000000007
1673,1782589858197,0.20999999999999999,-0.56000000000000005,0.070000000000000007
1674,1782589858263,0.20999999999999999,-0.56000000000000005,0
1675,1782589858296,0.20999999999999999,-0.56000000000000005,0
1676,1782589858363,0.20999999999999999,-0.56000000000000005,0
1677,1782589858413,0.20999999999999999,-0.41999999999999998,0
1678,1782589858496,0.28000000000000003,-0.41999999999999998,0
1679,1782589858513,0.28000000000000003,-0.41999999999999998,0.070000000000000007
1680,1782589858529,0.20999999999999999,-0.41999999999999998,0
1681,1782589858563,0.14000000000000001,-0.41999999999999998,0
1682,1782589858580,0.14000000000000001,-0.48999999999999999,0
1683,1782589858645,0.14000000000000001,-0.28000000000000003,0
1684,1782589858696,0.14000000000000001,-0.20999999999999999,0
1685,1782589858746,0.14000000000000001,-0.69999999999999996,0
1686,1782589858746,0.28000000000000003,-0.48999999999999999,0.070000000000000007
1687,1782589858795,0.20999999999999999,-0.48999999999999999,0.070000000000000007
1688,1782589858862,0.20999999999999999,-0.48999999999999999,0.070000000000000007
1689,1782589858912,0.20999999999999999,-0.56000000000000005,0.070000000000000007
1690,1782589858963,0.20999999999999999,-0.56000000000000005,0.070000000000000007
1691,1782589859013,0.20999999999999999,-0.41999999999999998,0
1692,1782589859079,0.20999999999999999,-0.48999999999999999,-0.070000000000000007
1693,1782589859112,0.20999999999999999,-0.48999999999999999,0
1694,1782589859228,0.28000000000000003,-0.48999999999999999,0
1695,1782589859297,0.28000000000000003,-0.48999999999999999,0
1696,1782589859346,0.14000000000000001,-0.48999999999999999,0
1697,1782589859379,0.28000000000000003,-0.69999999999999996,0.070000000000000007
1698,1782589859428,0.20999999999999999,-0.63,0.070000000000000007
1699,1782589859463,0.20999999999999999,-0.48999999999999999,0
1700,1782589859513,0.20999999999999999,-0.48999999999999999,0.070000000000000007
1701,1782589859679,0.14000000000000001,-0.56000000000000005,0
1702,1782589859712,0.20999999999999999,-0.41999999999999998,0
1703,1782589859762,0.20999999999999999,-0.48999999999999999,0
1704,1782589859778,0.20999999999999999,-0.48999999999999999,0
1705,1782589859828,0.14000000000000001,-0.48999999999999999,0
1706,1782589859912,0.14000000000000001,-0.48999999999999999,0
1707,1782589859962,0.14000000000000001,-0.56000000000000005,0
1708,1782589860012,0.14000000000000001,-0.56000000000000005,0
1709,1782589860145,0.20999999999999999,-0.48999999999999999,0
1710,1782589860244,0.20999999999999999,-0.41999999999999998,0
1711,1782589860294,0.20999999999999999,-0.56000000000000005,0
1712,1782589860328,0.20999999999999999,-0.56000000000000005,0
1713,1782589860362,0.20999999999999999,-0.48999999999999999,0.070000000000000007
1714,1782589860394,0.20999999999999999,-0.48999999999999999,0.070000000000000007
1715,1782589860411,0.20999999999999999,-0.48999999999999999,0.070000000000000007
1716,1782589860496,0.20999999999999999,-0.48999999999999999,0.070000000000000007
1717,1782589860594,0.28000000000000003,-0.56000000000000005,0
1718,1782589860694,0.14000000000000001,-0.56000000000000005,0
1719,1782589860711,0.28000000000000003,-0.56000000000000005,0
1720,1782589860727,0.28000000000000003,-0.56000000000000005,0
1721,1782589860761,0.20999999999999999,-0.56000000000000005,0
1722,1782589860794,0.20999999999999999,-0.48999999999999999,0
1723,1782589860894,0.14000000000000001,-0.56000000000000005,0
1724,1782589860944,0.20999999999999999,-0.56000000000000005,0
1725,1782589860977,0.20999999999999999,-0.56000000000000005,0
1726,1782589861028,0.20999999999999999,-0.56000000000000005,0.070000000000000007
1727,1782589861060,0.20999999999999999,-0.56000000000000005,0.070000000000000007
1728,1782589861094,0.20999999999999999,-0.41999999999999998,0
1729,1782589861110,0.20999999999999999,-0.34999999999999998,0
1730,1782589861178,0.20999999999999999,-0.56000000000000005,0
1731,1782589861228,0.28000000000000003,-0.48999999999999999,0
