index,date,ACCEL_X,ACCEL_Y,ACCEL_Z
0,1782589765926,0.040000000000000001,-0.01,1.02
1,1782589765926,0.040000000000000001,-0.01,1.02
2,1782589765926,0.040000000000000001,-0.01,1.01
3,1782589765926,0.050000000000000003,-0.01,1.02
4,1782589765926,0.050000000000000003,-0.01,1.02
5,1782589765926,0.040000000000000001,-0.01,1.01
6,1782589765926,0.040000000000000001,-0.01,1.01
7,1782589765926,0.040000000000000001,-0.01,1.01
8,1782589765926,0.040000000000000001,-0.01,1.01
9,1782589765926,0.040000000000000001,-0.01,1.01
10,1782589765926,0.040000000000000001,-0.01,1.01
11,1782589765926,0.040000000000000001,-0.01,1.01
12,1782589765926,0.040000000000000001,-0.01,1.01
13,1782589765926,0.040000000000000001,-0.01,1.01
14,1782589765926,0.040000000000000001,-0.01,1.01
15,1782589765926,0.040000000000000001,-0.01,1.01
16,1782589765926,0.040000000000000001,-0.01,1.01
17,1782589765926,0.040000000000000001,-0.01,1.01
18,1782589765927,0.040000000000000001,-0.01,1.01
19,1782589765927,0.040000000000000001,-0.01,1.01
20,1782589765927,0.040000000000000001,-0.01,1.01
21,1782589765927,0.040000000000000001,-0.01,1.01
22,1782589765927,0.040000000000000001,-0.01,1.01
23,1782589765927,0.040000000000000001,-0.01,1.01
24,1782589765927,0.040000000000000001,-0.01,1.01
25,1782589765927,0.040000000000000001,-0.01,1.01
26,1782589765927,0.040000000000000001,-0.01,1.01
27,1782589765928,0.040000000000000001,-0.01,1.01
28,1782589766182,0.040000000000000001,-0.01,1.01
29,1782589766190,0.040000000000000001,-0.01,1.01
30,1782589766190,0.040000000000000001,-0.01,1.01
31,1782589766190,0.040000000000000001,-0.01,1.01
32,1782589766256,0.040000000000000001,-0.01,1.02
33,1782589766340,0.040000000000000001,-0.01,1.02
34,1782589766373,0.040000000000000001,-0.01,1.02
35,1782589766425,0.040000000000000001,-0.01,1.01
36,1782589766473,0.040000000000000001,-0.01,1.01
37,1782589766524,0.040000000000000001,-0.01,1.01
38,1782589766573,0.040000000000000001,-0.01,1.01
39,1782589766640,0.040000000000000001,-0.01,1.01
40,1782589766706,0.040000000000000001,-0.01,1.01
41,1782589766739,0.040000000000000001,-0.01,1.01
42,1782589766823,0.040000000000000001,-0.01,1.01
43,1782589766890,0.050000000000000003,-0.01,1.01
44,1782589766923,0.050000000000000003,-0.01,1.01
45,1782589766972,0.050000000000000003,-0.01,1.01
46,1782589767089,0.040000000000000001,-0.01,1.01
47,1782589767122,0.040000000000000001,-0.01,1.01
48,1782589767189,0.040000000000000001,-0.01,1.01
49,1782589767239,0.040000000000000001,-0.01,1.01
50,1782589767394,0.040000000000000001,-0.01,1.01
51,1782589767441,0.040000000000000001,-0.01,1.01
52,1782589767523,0.040000000000000001,-0.01,1.01
53,1782589767555,0.040000000000000001,-0.01,1.01
54,1782589767706,0.040000000000000001,-0.01,1.01
55,1782589767806,0.050000000000000003,-0.01,1.01
56,1782589767872,0.050000000000000003,-0.01,1.01
57,1782589767923,0.040000000000000001,-0.01,1.01
58,1782589767938,0.040000000000000001,-0.01,1.01
59,1782589768006,0.040000000000000001,-0.01,1.01
60,1782589768073,0.040000000000000001,-0.01,1.01
61,1782589768126,0.040000000000000001,-0.01,1.02
62,1782589768207,0.040000000000000001,-0.01,1.01
63,1782589768224,0.040000000000000001,-0.01,1.01
64,1782589768256,0.040000000000000001,-0.01,1.01
65,1782589768323,0.040000000000000001,-0.01,1.01
66,1782589768355,0.040000000000000001,-0.01,1.01
67,1782589768407,0.040000000000000001,-0.01,1.01
68,1782589768456,0.040000000000000001,-0.01,1.01
69,1782589768523,0.040000000000000001,-0.01,1.01
70,1782589768606,0.040000000000000001,-0.01,1.01
71,1782589768623,0.040000000000000001,-0.01,1.01
72,1782589768655,0.040000000000000001,-0.01,1.01
73,1782589768672,0.040000000000000001,-0.01,1.01
74,1782589768738,0.040000000000000001,-0.01,1.01
75,1782589768772,0.040000000000000001,-0.01,1.01
76,1782589768806,0.040000000000000001,-0.01,1.01
77,1782589768838,0.040000000000000001,-0.01,1.01
78,1782589768855,0.040000000000000001,-0.01,1.01
79,1782589768888,0.040000000000000001,-0.01,1.01
80,1782589768938,0.040000000000000001,-0.01,1.01
81,1782589769005,0.040000000000000001,-0.01,1.01
82,1782589769055,0.040000000000000001,-0.01,1.01
83,1782589769189,0.040000000000000001,-0.01,1.01
84,1782589769272,0.040000000000000001,-0.01,1.01
85,1782589769355,0.040000000000000001,-0.01,1.01
86,1782589769371,0.040000000000000001,-0.01,1.01
87,1782589769388,0.040000000000000001,-0.01,1.01
88,1782589769421,0.040000000000000001,-0.01,1.01
89,1782589769522,0.040000000000000001,-0.01,1.01
90,1782589769620,0.040000000000000001,-0.01,1.01
91,1782589769688,0.040000000000000001,-0.01,1.01
92,1782589769721,0.040000000000000001,-0.01,1.01
93,1782589769754,0.040000000000000001,-0.01,1.01
94,1782589769787,0.040000000000000001,-0.01,1.01
95,1782589769804,0.040000000000000001,-0.01,1.01
96,1782589769854,0.040000000000000001,-0.01,1.01
97,1782589769904,0.040000000000000001,-0.01,1.01
98,1782589769937,0.040000000000000001,-0.01,1.01
99,1782589769971,0.040000000000000001,-0.01,1.01
100,1782589769987,0.040000000000000001,-0.01,1.01
101,1782589770038,0.040000000000000001,-0.01,1.01
102,1782589770170,0.040000000000000001,-0.01,1.01
103,1782589770237,0.040000000000000001,-0.01,1.01
104,1782589770336,0.040000000000000001,-0.01,1.01
105,1782589770420,0.040000000000000001,-0.01,1.01
106,1782589770437,0.040000000000000001,-0.01,1.01
107,1782589770487,0.040000000000000001,-0.01,1.01
108,1782589770553,0.040000000000000001,-0.01,1.02
109,1782589770653,0.040000000000000001,-0.01,1.01
110,1782589770703,0.040000000000000001,-0.01,1.01
111,1782589770754,0.040000000000000001,-0.01,1.01
112,1782589770820,0.040000000000000001,-0.01,1.01
113,1782589770886,0.040000000000000001,-0.01,1.01
114,1782589770986,0.040000000000000001,-0.01,1.01
115,1782589771020,0.040000000000000001,-0.01,1.01
116,1782589771169,0.040000000000000001,-0.01,1.01
117,1782589771202,0.040000000000000001,-0.01,1.01
118,1782589771270,0.040000000000000001,-0.01,1.01
119,1782589771303,0.040000000000000001,-0.01,1.01
120,1782589771385,0.040000000000000001,-0.01,1.01
121,1782589771452,0.040000000000000001,-0.01,1.01
122,1782589771502,0.040000000000000001,-0.01,1.01
123,1782589771569,0.040000000000000001,-0.01,1.01
124,1782589771586,0.040000000000000001,-0.01,1.01
125,1782589771602,0.040000000000000001,-0.01,1.01
126,1782589771635,0.040000000000000001,-0.01,1.01
127,1782589771669,0.040000000000000001,-0.01,1.01
128,1782589771719,0.040000000000000001,-0.01,1.01
129,1782589771768,0.050000000000000003,-0.01,1.01
130,1782589771852,0.050000000000000003,-0.01,1.01
131,1782589771919,0.040000000000000001,-0.01,1.01
132,1782589771985,0.040000000000000001,-0.01,1.01
133,1782589772036,0.040000000000000001,-0.01,1.01
134,1782589772118,0.040000000000000001,-0.01,1.01
135,1782589772152,0.040000000000000001,-0.01,1.01
136,1782589772218,0.040000000000000001,-0.01,1.01
137,1782589772269,0.040000000000000001,-0.01,1.01
138,1782589772318,0.040000000000000001,-0.01,1.01
139,1782589772370,0.040000000000000001,-0.01,1.01
140,1782589772451,0.040000000000000001,-0.01,1.01
141,1782589772535,0.040000000000000001,-0.01,1.01
142,1782589772635,0.040000000000000001,-0.01,1.01
143,1782589772685,0.040000000000000001,-0.01,1.01
144,1782589772734,0.040000000000000001,-0.01,1.01
145,1782589772768,0.040000000000000001,-0.01,1.01
146,1782589772901,0.040000000000000001,-0.01,1.01
147,1782589773018,0.040000000000000001,-0.01,1.01
148,1782589773034,0.040000000000000001,-0.01,1.01
149,1782589773051,0.040000000000000001,-0.01,1.01
150,1782589773085,0.040000000000000001,-0.01,1.01
151,1782589773101,0.040000000000000001,-0.01,1.01
152,1782589773184,0.040000000000000001,-0.01,1.01
153,1782589773351,0.040000000000000001,-0.01,1.01
154,1782589773384,0.040000000000000001,-0.01,1.01
155,1782589773451,0.040000000000000001,-0.01,1.01
156,1782589773501,0.040000000000000001,-0.01,1.01
157,1782589773517,0.040000000000000001,-0.01,1.01
158,1782589773584,0.040000000000000001,-0.01,1.01
159,1782589773634,0.040000000000000001,-0.01,1.01
160,1782589773717,0.040000000000000001,-0.01,1.01
161,1782589773734,0.040000000000000001,-0.01,1.01
162,1782589773750,0.040000000000000001,-0.01,1.01
163,1782589773767,0.040000000000000001,-0.01,1.01
164,1782589773800,0.040000000000000001,-0.01,1.01
165,1782589773834,0.040000000000000001,-0.01,1.01
166,1782589773883,0.040000000000000001,-0.01,1.01
167,1782589774000,0.040000000000000001,-0.01,1.01
168,1782589774117,0.040000000000000001,-0.01,1.01
169,1782589774184,0.040000000000000001,-0.01,1.01
170,1782589774200,0.040000000000000001,-0.01,1.01
171,1782589774233,0.040000000000000001,-0.01,1.01
172,1782589774250,0.040000000000000001,-0.01,1.01
173,1782589774283,0.040000000000000001,-0.01,1.01
174,1782589774350,0.040000000000000001,-0.01,1.01
175,1782589774483,0.040000000000000001,-0.01,1.01
176,1782589774550,0.040000000000000001,-0.01,1.01
177,1782589774567,0.040000000000000001,-0.01,1.01
178,1782589774583,0.040000000000000001,-0.01,1.01
179,1782589774616,0.040000000000000001,-0.01,1.01
180,1782589774633,0.040000000000000001,-0.01,1.01
181,1782589774684,0.040000000000000001,-0.01,1.01
182,1782589774716,0.040000000000000001,-0.01,1.01
183,1782589774783,0.040000000000000001,-0.01,1.01
184,1782589774816,0.040000000000000001,-0.01,1.01
185,1782589774900,0.040000000000000001,-0.01,1.01
186,1782589774966,0.040000000000000001,-0.01,1.01
187,1782589775049,0.040000000000000001,-0.01,1.01
188,1782589775166,0.040000000000000001,-0.01,1.01
189,1782589775232,0.040000000000000001,-0.01,1.01
190,1782589775299,0.040000000000000001,-0.01,1.01
191,1782589775349,0.040000000000000001,-0.01,1.01
192,1782589775399,0.040000000000000001,-0.01,1.01
193,1782589775465,0.040000000000000001,-0.01,1.01
194,1782589775499,0.040000000000000001,-0.01,1.01
195,1782589775549,0.040000000000000001,-0.01,1.01
196,1782589775599,0.040000000000000001,-0.01,1.01
197,1782589775682,0.040000000000000001,-0.01,1.01
198,1782589775782,0.040000000000000001,-0.01,1.01
199,1782589775850,0.040000000000000001,-0.01,1.01
200,1782589775915,0.040000000000000001,-0.01,1.01
201,1782589776032,0.040000000000000001,-0.01,1.01
202,1782589776099,0.040000000000000001,-0.01,1.01
203,1782589776132,0.040000000000000001,-0.01,1.01
204,1782589776198,0.040000000000000001,-0.01,1.01
205,1782589776265,0.040000000000000001,-0.01,1.01
206,1782589776315,0.040000000000000001,-0.01,1.01
207,1782589776365,0.040000000000000001,-0.01,1.01
208,1782589776415,0.040000000000000001,-0.01,1.01
209,1782589776448,0.040000000000000001,-0.01,1.01
210,1782589776531,0.040000000000000001,-0.01,1.01
211,1782589776598,0.040000000000000001,-0.01,1.01
212,1782589776649,0.040000000000000001,-0.01,1.01
213,1782589776698,0.040000000000000001,-0.01,1.01
214,1782589776715,0.040000000000000001,-0.01,1.01
215,1782589776848,0.040000000000000001,-0.01,1.01
216,1782589776914,0.040000000000000001,-0.01,1.01
217,1782589777168,0.040000000000000001,-0.01,1.01
218,1782589777168,0.040000000000000001,-0.01,1.01
219,1782589777181,0.040000000000000001,-0.01,1.01
220,1782589777181,0.040000000000000001,-0.01,1.01
221,1782589777181,0.040000000000000001,-0.01,1.01
222,1782589777231,0.040000000000000001,-0.01,1.01
223,1782589777332,0.040000000000000001,-0.01,1.01
224,1782589777397,0.040000000000000001,-0.01,1.01
225,1782589777447,0.040000000000000001,-0.01,1.01
226,1782589777514,0.040000000000000001,-0.01,1.01
227,1782589777581,0.040000000000000001,-0.01,1.01
228,1782589777647,0.040000000000000001,-0.01,1.01
229,1782589777697,0.040000000000000001,-0.01,1.01
230,1782589777747,0.040000000000000001,-0.01,1.01
231,1782589777797,0.040000000000000001,-0.01,1.01
232,1782589777831,0.040000000000000001,-0.01,1.01
233,1782589777864,0.040000000000000001,-0.01,1.01
234,1782589777897,0.040000000000000001,-0.01,1.01
235,1782589777947,0.040000000000000001,-0.01,1.01
236,1782589778047,0.040000000000000001,-0.01,1.01
237,1782589778097,0.040000000000000001,-0.01,1.01
238,1782589778148,0.040000000000000001,-0.01,1.01
239,1782589778164,0.040000000000000001,-0.01,1.01
240,1782589778197,0.040000000000000001,-0.01,1.01
241,1782589778247,0.040000000000000001,-0.01,1.01
242,1782589778280,0.040000000000000001,-0.01,1.01
243,1782589778330,0.040000000000000001,-0.01,1.01
244,1782589778380,0.040000000000000001,-0.01,1.01
245,1782589778431,0.040000000000000001,-0.01,1.01
246,1782589778496,0.040000000000000001,-0.01,1.01
247,1782589778514,0.040000000000000001,-0.01,1.01
248,1782589778597,0.040000000000000001,-0.01,1.01
249,1782589778630,0.040000000000000001,-0.01,1.01
250,1782589778663,0.040000000000000001,-0.01,1.01
251,1782589778697,0.040000000000000001,-0.01,1.01
252,1782589778730,0.040000000000000001,-0.01,1.01
253,1782589778780,0.040000000000000001,-0.01,1.01
254,1782589778847,0.040000000000000001,-0.01,1.01
255,1782589778896,0.040000000000000001,-0.01,1.01
256,1782589778963,0.040000000000000001,-0.01,1.01
257,1782589778997,0.050000000000000003,-0.01,1.01
258,1782589779014,0.050000000000000003,-0.01,1.01
259,1782589779030,0.050000000000000003,-0.01,1.01
260,1782589779047,0.050000000000000003,-0.01,1.01
261,1782589779080,0.050000000000000003,-0.01,1.01
262,1782589779113,0.040000000000000001,-0.01,1.01
263,1782589779179,0.040000000000000001,-0.01,1.01
264,1782589779213,0.040000000000000001,-0.01,1.01
265,1782589779279,0.040000000000000001,-0.01,1.02
266,1782589779346,0.040000000000000001,-0.01,1.02
267,1782589779363,0.040000000000000001,-0.01,1.02
268,1782589779379,0.040000000000000001,-0.01,1.02
269,1782589779412,0.040000000000000001,-0.01,1.02
270,1782589779479,0.040000000000000001,-0.01,1.02
271,1782589779580,0.040000000000000001,-0.01,1.02
272,1782589779629,0.040000000000000001,-0.01,1.02
273,1782589779662,0.040000000000000001,-0.01,1.02
274,1782589779679,0.040000000000000001,-0.01,1.02
275,1782589779729,0.040000000000000001,-0.01,1.02
276,1782589779762,0.040000000000000001,-0.01,1.01
277,1782589779795,0.040000000000000001,-0.01,1.01
278,1782589779862,0.050000000000000003,-0.01,1.01
279,1782589779978,0.050000000000000003,-0.01,1.01
280,1782589779996,0.050000000000000003,-0.01,1
281,1782589780029,0.050000000000000003,-0.01,0.98999999999999999
282,1782589780045,0.050000000000000003,-0.01,0.98999999999999999
283,1782589780061,0.050000000000000003,-0.01,0.98999999999999999
284,1782589780112,0.050000000000000003,-0.01,0.98999999999999999
285,1782589780178,0.050000000000000003,-0.01,1.01
286,1782589780261,0.040000000000000001,-0.01,1.02
287,1782589780295,0.040000000000000001,-0.01,1.02
288,1782589780312,0.040000000000000001,-0.01,1.03
289,1782589780345,0.040000000000000001,-0.01,1.03
290,1782589780362,0.040000000000000001,-0.01,1.03
291,1782589780412,0.040000000000000001,-0.01,1.01
292,1782589780612,0.040000000000000001,-0.01,1.01
293,1782589780628,0.040000000000000001,-0.01,1.01
294,1782589780644,0.040000000000000001,-0.01,1.01
295,1782589780678,0.040000000000000001,-0.01,1.01
296,1782589780728,0.040000000000000001,-0,1.01
297,1782589780811,0.050000000000000003,-0,1.01
298,1782589780878,0.050000000000000003,0.01,1.01
299,1782589780878,0.050000000000000003,0.01,1.01
300,1782589780911,0.050000000000000003,0.02,1
301,1782589780994,0.029999999999999999,0,1
302,1782589781061,0.029999999999999999,0.02,1.01
303,1782589781078,0.040000000000000001,0.02,1.01
304,1782589781094,0.050000000000000003,0.02,1.04
305,1782589781127,0.050000000000000003,0.02,1.0600000000000001
306,1782589781144,0.059999999999999998,0.02,1.0600000000000001
307,1782589781177,0.070000000000000007,0.01,1.0600000000000001
308,1782589781227,0.070000000000000007,0.01,1.05
309,1782589781294,0.070000000000000007,-0,1.02
310,1782589781394,-0.01,-0.02,1.01
311,1782589781478,-0.01,-0.02,0.96999999999999997
312,1782589781527,-0.01,-0.01,0.96999999999999997
313,1782589781577,-0,-0.01,0.96999999999999997
314,1782589781644,0.050000000000000003,-0.01,1.03
315,1782589781677,0.050000000000000003,-0.01,1.03
316,1782589781711,0.050000000000000003,-0.01,1.03
317,1782589781760,0.050000000000000003,-0.01,1.04
318,1782589781827,0.050000000000000003,-0.01,1.04
319,1782589781860,0.050000000000000003,-0.01,1.04
320,1782589781944,0.040000000000000001,-0.01,1.02
321,1782589781960,0.040000000000000001,-0.01,1.01
322,1782589782044,0.040000000000000001,-0.01,1.01
323,1782589782127,0.029999999999999999,-0.01,1
324,1782589782194,0.029999999999999999,-0.01,1
325,1782589782244,0.040000000000000001,-0.01,1.02
326,1782589782276,0.040000000000000001,-0.01,1.02
327,1782589782343,0.040000000000000001,-0.01,1.02
328,1782589782376,0.040000000000000001,-0.01,1.02
329,1782589782426,0.040000000000000001,-0.01,1.02
330,1782589782477,0.040000000000000001,-0.01,1.02
331,1782589782610,0.040000000000000001,-0.01,1.01
332,1782589782709,0.040000000000000001,-0.01,1.02
333,1782589782743,0.040000000000000001,-0.01,1.01
334,1782589782777,0.040000000000000001,-0.01,1.01
335,1782589782859,0.040000000000000001,-0.01,1.02
336,1782589782910,0.040000000000000001,-0.01,1.02
337,1782589782976,0.040000000000000001,-0.01,1.01
338,1782589783009,0.040000000000000001,-0.01,1.01
339,1782589783109,0.040000000000000001,-0.01,1.01
340,1782589783176,0.040000000000000001,-0.01,1.01
341,1782589783226,0.040000000000000001,-0.01,1.01
342,1782589783260,0.040000000000000001,-0.01,1.01
343,1782589783325,0.040000000000000001,-0.01,1.01
344,1782589783392,0.040000000000000001,-0.01,1.01
345,1782589783459,0.040000000000000001,-0.01,1.02
346,1782589783509,0.040000000000000001,-0.01,1.02
347,1782589783542,0.040000000000000001,-0.01,1.02
348,1782589783593,0.040000000000000001,-0.01,1.02
349,1782589783659,0.040000000000000001,-0.01,1.01
350,1782589783692,0.040000000000000001,-0.01,1.01
351,1782589783725,0.040000000000000001,-0.01,1.01
352,1782589783759,0.040000000000000001,-0.01,1.01
353,1782589783841,0.040000000000000001,-0.01,1.01
354,1782589783925,0.040000000000000001,-0.01,1.01
355,1782589783992,0.040000000000000001,-0.01,1.01
356,1782589784009,0.040000000000000001,-0.01,1.01
357,1782589784025,0.040000000000000001,-0.01,1.01
358,1782589784192,0.040000000000000001,-0.01,1.01
359,1782589784241,0.040000000000000001,-0.01,1.01
360,1782589784292,0.040000000000000001,-0.01,1.01
361,1782589784308,0.040000000000000001,-0.01,1.01
362,1782589784375,0.040000000000000001,-0.01,1.01
363,1782589784425,0.040000000000000001,-0.01,1.01
364,1782589784475,0.040000000000000001,-0.01,1.01
365,1782589784492,0.040000000000000001,-0.01,1.01
366,1782589784525,0.040000000000000001,-0.01,1.01
367,1782589784541,0.040000000000000001,-0.01,1.01
368,1782589784625,0.040000000000000001,-0.01,1.01
369,1782589784691,0.040000000000000001,-0.01,1.01
370,1782589784758,0.040000000000000001,-0.01,1.01
371,1782589784808,0.040000000000000001,-0.01,1.01
372,1782589784824,0.040000000000000001,-0.01,1.01
373,1782589784858,0.040000000000000001,-0.01,1.01
374,1782589784908,0.040000000000000001,-0.01,1.01
375,1782589784991,0.040000000000000001,-0.01,1.01
376,1782589785041,0.040000000000000001,-0.01,1.01
377,1782589785075,0.040000000000000001,-0.01,1.01
378,1782589785124,0.040000000000000001,-0.01,1.01
379,1782589785157,0.040000000000000001,-0.01,1.01
380,1782589785257,0.040000000000000001,-0.01,1.01
381,1782589785307,0.040000000000000001,-0.01,1.01
382,1782589785358,0.040000000000000001,-0.01,1.01
383,1782589785408,0.040000000000000001,-0.01,1.01
384,1782589785457,0.040000000000000001,-0.01,1.01
385,1782589785524,0.040000000000000001,-0.01,1.01
386,1782589785608,0.040000000000000001,-0.01,1.01
387,1782589785657,0.040000000000000001,-0.01,1.01
388,1782589785708,0.040000000000000001,-0.01,1.01
389,1782589785757,0.040000000000000001,-0.01,1.01
390,1782589785790,0.040000000000000001,-0.01,1.01
391,1782589785858,0.040000000000000001,-0.01,1.01
392,1782589785907,0.040000000000000001,-0.01,1.01
393,1782589785990,0.040000000000000001,-0.01,1.01
394,1782589786023,0.040000000000000001,-0.01,1.01
395,1782589786040,0.040000000000000001,-0.01,1.01
396,1782589786056,0.040000000000000001,-0.01,1.01
397,1782589786090,0.040000000000000001,-0.01,1.01
398,1782589786157,0.040000000000000001,-0.01,1.01
399,1782589786190,0.040000000000000001,-0.01,1.01
400,1782589786240,0.040000000000000001,-0.01,1.01
401,1782589786257,0.040000000000000001,-0.01,1.01
402,1782589786274,0.040000000000000001,-0.01,1.01
403,1782589786340,0.040000000000000001,-0.01,1.01
404,1782589786406,0.040000000000000001,-0.01,1.01
405,1782589786473,0.040000000000000001,-0.01,1.01
406,1782589786523,0.040000000000000001,-0.01,1.01
407,1782589786539,0.040000000000000001,-0.01,1.01
408,1782589786573,0.040000000000000001,-0.01,1.01
409,1782589786606,0.040000000000000001,-0.01,1.01
410,1782589786623,0.040000000000000001,-0.01,1.01
411,1782589786656,0.040000000000000001,-0.01,1.01
412,1782589786673,0.040000000000000001,-0.01,1.01
413,1782589786724,0.040000000000000001,-0.01,1.01
414,1782589786772,0.040000000000000001,-0.01,1.01
415,1782589786873,0.040000000000000001,-0.01,1.01
416,1782589786906,0.040000000000000001,-0.01,1.01
417,1782589786923,0.040000000000000001,-0.01,1.01
418,1782589786989,0.040000000000000001,-0.01,1.01
419,1782589787023,0.040000000000000001,-0.01,1.01
420,1782589787089,0.040000000000000001,-0.01,1.01
421,1782589787122,0.040000000000000001,-0.01,1.01
422,1782589787189,0.040000000000000001,-0.01,1.01
423,1782589787240,0.040000000000000001,-0.01,1.01
424,1782589787273,0.040000000000000001,-0.01,1.01
425,1782589787322,0.040000000000000001,-0.01,1.01
426,1782589787389,0.040000000000000001,-0.01,1.01
427,1782589787456,0.040000000000000001,-0.01,1.01
428,1782589787506,0.040000000000000001,-0.01,1.01
429,1782589787589,0.040000000000000001,-0.01,1.01
430,1782589787689,0.040000000000000001,-0.01,1.01
431,1782589787756,0.040000000000000001,-0.01,1.01
432,1782589787772,0.040000000000000001,-0.01,1.01
433,1782589787838,0.040000000000000001,-0.01,1.01
434,1782589787905,0.040000000000000001,-0.01,1.01
435,1782589787939,0.040000000000000001,-0.01,1.01
436,1782589788175,0.040000000000000001,-0.01,1.01
437,1782589788175,0.040000000000000001,-0.01,1.01
438,1782589788189,0.040000000000000001,-0.01,1.01
439,1782589788189,0.040000000000000001,-0.01,1.01
440,1782589788238,0.040000000000000001,-0.01,1.01
441,1782589788321,0.040000000000000001,-0.01,1.01
442,1782589788405,0.040000000000000001,-0.01,1.01
443,1782589788472,0.040000000000000001,-0.01,1.01
444,1782589788505,0.040000000000000001,-0.01,1.01
445,1782589788554,0.040000000000000001,-0.01,1.01
446,1782589788621,0.040000000000000001,-0.01,1.01
447,1782589788655,0.040000000000000001,-0.01,1.01
448,1782589788721,0.040000000000000001,-0.01,1.01
449,1782589788804,0.040000000000000001,-0.01,1.01
450,1782589788921,0.040000000000000001,-0.01,1.01
451,1782589788971,0.040000000000000001,-0.01,1.01
452,1782589789023,0.040000000000000001,-0.01,1.01
453,1782589789071,0.040000000000000001,-0.01,1.01
454,1782589789139,0.040000000000000001,-0.01,1.01
455,1782589789187,0.040000000000000001,-0.01,1.01
456,1782589789288,0.040000000000000001,-0.01,1.01
457,1782589789338,0.040000000000000001,-0.01,1.01
458,1782589789487,0.040000000000000001,-0.01,1.01
459,1782589789537,0.040000000000000001,-0.01,1.01
460,1782589789571,0.040000000000000001,-0.01,1.01
461,1782589789587,0.040000000000000001,-0.01,1.01
462,1782589789671,0.040000000000000001,-0.01,1.01
463,1782589789788,0.040000000000000001,-0.01,1.01
464,1782589789805,0.040000000000000001,-0.01,1.01
465,1782589789837,0.040000000000000001,-0.01,1.01
466,1782589789854,0.040000000000000001,-0.01,1.01
467,1782589789872,0.040000000000000001,-0.01,1.01
468,1782589789905,0.040000000000000001,-0.01,1.01
469,1782589789970,0.040000000000000001,-0.01,1.01
470,1782589790087,0.040000000000000001,-0.01,1.01
471,1782589790137,0.040000000000000001,-0.01,1.01
472,1782589790154,0.040000000000000001,-0.01,1.01
473,1782589790204,0.040000000000000001,-0.01,1.01
474,1782589790286,0.040000000000000001,-0.01,1.01
475,1782589790369,0.040000000000000001,-0.01,1.01
476,1782589790403,0.040000000000000001,-0.01,1.01
477,1782589790454,0.040000000000000001,-0.01,1.01
478,1782589790487,0.040000000000000001,-0.01,1.01
479,1782589790520,0.040000000000000001,-0.01,1.01
480,1782589790586,0.040000000000000001,-0.01,1.01
481,1782589790619,0.040000000000000001,-0.01,1.01
482,1782589790670,0.040000000000000001,-0,1.01
483,1782589790736,0.040000000000000001,-0,1.01
484,1782589790786,0.040000000000000001,-0,1.01
485,1782589790803,0.040000000000000001,-0.01,1.01
486,1782589790819,0.040000000000000001,-0.01,1.01
487,1782589790853,0.040000000000000001,-0.01,1.01
488,1782589790919,0.050000000000000003,-0.01,1.01
489,1782589790986,0.040000000000000001,-0.01,1.01
490,1782589791003,0.050000000000000003,-0.01,1.01
491,1782589791086,0.050000000000000003,-0.01,1.01
492,1782589791202,0.050000000000000003,-0.01,1.01
493,1782589791236,0.040000000000000001,-0.01,1.01
494,1782589791269,0.040000000000000001,-0.01,1.01
495,1782589791303,0.040000000000000001,-0.01,1.01
496,1782589791319,0.040000000000000001,-0.01,1.01
497,1782589791502,0.040000000000000001,-0.01,1.01
498,1782589791519,0.050000000000000003,-0.01,1.01
499,1782589791619,0.040000000000000001,-0.01,1.01
500,1782589791669,0.040000000000000001,-0.01,1.01
501,1782589791686,0.040000000000000001,-0.01,1.01
502,1782589791702,0.040000000000000001,-0.01,1.01
503,1782589791835,0.040000000000000001,-0.01,1.02
504,1782589791886,0.040000000000000001,-0.01,1.02
505,1782589791952,0.040000000000000001,-0.01,1.02
506,1782589791969,0.040000000000000001,-0.01,1.02
507,1782589791985,0.040000000000000001,-0.01,1.02
508,1782589792035,0.040000000000000001,-0.01,1.01
509,1782589792102,0.040000000000000001,-0.01,1.01
510,1782589792201,0.040000000000000001,-0.01,1.01
511,1782589792252,0.040000000000000001,-0.01,1.01
512,1782589792468,0.040000000000000001,-0.01,1.01
513,1782589792535,0.040000000000000001,-0.01,1.01
514,1782589792618,0.040000000000000001,-0.01,1.01
515,1782589792634,0.040000000000000001,-0.01,1.01
516,1782589792652,0.040000000000000001,-0.01,1.01
517,1782589792701,0.040000000000000001,-0.01,1.01
518,1782589792734,0.040000000000000001,-0.01,1.01
519,1782589792801,0.040000000000000001,-0.01,1.01
520,1782589792867,0.040000000000000001,-0.01,1.01
521,1782589792934,0.040000000000000001,-0.01,1.01
522,1782589792984,0.040000000000000001,-0.01,1.01
523,1782589793085,0.040000000000000001,-0.01,1.01
524,1782589793184,0.040000000000000001,-0.01,1.01
525,1782589793218,0.040000000000000001,-0.01,1.01
526,1782589793284,0.040000000000000001,-0.01,1.01
527,1782589793350,0.040000000000000001,-0.01,1.01
528,1782589793401,0.040000000000000001,-0.01,1.01
529,1782589793450,0.040000000000000001,-0.01,1.01
530,1782589793484,0.050000000000000003,-0.01,1.01
531,1782589793501,0.050000000000000003,-0.01,1.01
532,1782589793534,0.050000000000000003,-0.01,1.01
533,1782589793550,0.040000000000000001,-0.01,1.01
534,1782589793601,0.040000000000000001,-0.01,1.01
535,1782589793634,0.040000000000000001,-0.01,1.01
536,1782589793668,0.040000000000000001,-0.01,1.01
537,1782589793684,0.040000000000000001,-0.01,1.01
538,1782589793767,0.040000000000000001,-0.01,1.01
539,1782589793817,0.040000000000000001,-0.01,1.01
540,1782589793966,0.040000000000000001,-0.01,1.01
541,1782589793983,0.040000000000000001,-0.01,1.01
542,1782589794034,0.040000000000000001,-0.01,1.01
543,1782589794050,0.040000000000000001,-0.01,1.01
544,1782589794100,0.040000000000000001,-0.01,1.01
545,1782589794117,0.040000000000000001,-0.01,1.01
546,1782589794134,0.040000000000000001,-0.01,1.01
547,1782589794183,0.040000000000000001,-0.01,1.01
548,1782589794250,0.040000000000000001,-0.01,1.01
549,1782589794283,0.040000000000000001,-0.01,1.01
550,1782589794300,0.040000000000000001,-0.01,1.01
551,1782589794317,0.040000000000000001,-0.01,1.01
552,1782589794350,0.040000000000000001,-0.01,1.01
553,1782589794366,0.040000000000000001,-0.01,1.01
554,1782589794433,0.040000000000000001,-0.01,1.01
555,1782589794500,0.040000000000000001,-0.01,1.01
556,1782589794583,0.040000000000000001,-0.01,1.01
557,1782589794633,0.040000000000000001,-0.01,1.01
558,1782589794667,0.040000000000000001,-0.01,1.01
559,1782589794683,0.040000000000000001,-0.01,1.01
560,1782589794716,0.040000000000000001,-0.01,1.02
561,1782589794766,0.040000000000000001,-0.02,1.02
562,1782589794816,0.040000000000000001,-0.02,1.01
563,1782589794883,0.040000000000000001,-0.02,1.01
564,1782589794916,0.040000000000000001,-0.02,1.01
565,1782589794999,0.040000000000000001,-0.01,1.01
566,1782589795099,0.040000000000000001,-0.01,1.01
567,1782589795132,0.040000000000000001,-0.01,1.01
568,1782589795184,0.040000000000000001,-0.01,1.01
569,1782589795249,0.040000000000000001,-0.01,1.01
570,1782589795299,0.040000000000000001,-0.01,1.01
571,1782589795349,0.040000000000000001,-0.01,1.01
572,1782589795432,0.040000000000000001,-0.01,1.01
573,1782589795499,0.029999999999999999,-0.01,1.01
574,1782589795532,0.040000000000000001,-0.01,1.02
575,1782589795565,0.040000000000000001,-0.01,1.01
576,1782589795616,0.040000000000000001,-0,1.01
577,1782589795682,0.040000000000000001,-0,1
578,1782589795748,0.040000000000000001,-0.02,1
579,1782589795782,0.050000000000000003,-0.02,1
580,1782589795848,0.050000000000000003,-0.01,1.01
581,1782589795915,0.070000000000000007,-0.01,1.02
582,1782589795965,0.070000000000000007,-0.01,1.01
583,1782589796048,0.070000000000000007,-0.01,1.01
584,1782589796132,-0.38,0.040000000000000001,0.92000000000000004
585,1782589796215,-0.38,-0.059999999999999998,1.1100000000000001
586,1782589796298,-0.38,-0.059999999999999998,1.1100000000000001
587,1782589796348,-0.25,-0.14999999999999999,1.1499999999999999
588,1782589796365,-0.33000000000000002,-0.14999999999999999,1.1499999999999999
589,1782589796398,-0.38,-0.14999999999999999,1.1499999999999999
590,1782589796414,-0.44,-0.14999999999999999,1.1000000000000001
591,1782589796431,-0.52000000000000002,-0.13,1.0900000000000001
592,1782589796515,-0.54000000000000004,-0.059999999999999998,0.96999999999999997
593,1782589796682,-0.23999999999999999,-0.10000000000000001,0.98999999999999999
594,1782589796715,-0.38,-0.10000000000000001,0.98999999999999999
595,1782589796748,-0.47999999999999998,-0.089999999999999997,0.97999999999999998
596,1782589796765,-0.48999999999999999,-0.089999999999999997,0.97999999999999998
597,1782589796798,-0.5,-0.070000000000000007,0.97999999999999998
598,1782589796947,-0.34000000000000002,-0.20000000000000001,1.02
599,1782589796997,-0.40000000000000002,-0.20000000000000001,1.02
600,1782589797047,-0.42999999999999999,-0.19,1.01
601,1782589797198,-0.31,-0.32000000000000001,0.93000000000000005
602,1782589797281,-0.32000000000000001,-0.32000000000000001,0.93999999999999995
603,1782589797331,-0.32000000000000001,-0.31,0.96999999999999997
604,1782589797380,-0.32000000000000001,-0.28000000000000003,1.04
605,1782589797414,-0.20000000000000001,-0.16,1.25
606,1782589797497,-0.20999999999999999,-0.16,1.25
607,1782589797614,-0.26000000000000001,-0.14999999999999999,1.1799999999999999
608,1782589797697,-0.14000000000000001,-0.27000000000000002,1
609,1782589797747,-0.23000000000000001,-0.27000000000000002,0.91000000000000003
610,1782589797780,-0.23000000000000001,-0.26000000000000001,0.90000000000000002
611,1782589797814,-0.23999999999999999,-0.070000000000000007,0.90000000000000002
612,1782589797847,-0.29999999999999999,-0.040000000000000001,0.91000000000000003
613,1782589797880,-0.32000000000000001,-0.01,1.1699999999999999
614,1782589797947,-0.23999999999999999,-0.32000000000000001,0.93000000000000005
615,1782589798013,-0.31,-0.22,0.93000000000000005
616,1782589798081,-0.35999999999999999,-0.17000000000000001,0.93000000000000005
617,1782589798146,-0.35999999999999999,-0.13,0.93999999999999995
618,1782589798180,-0.35999999999999999,-0.12,1.1299999999999999
619,1782589798197,-0.34999999999999998,-0.11,1.3300000000000001
620,1782589798214,-0.11,-0.070000000000000007,1.3600000000000001
621,1782589798247,0.28000000000000003,-0.029999999999999999,0.93999999999999995
622,1782589798264,0.14999999999999999,-0.029999999999999999,0.88
623,1782589798314,0.12,-0.029999999999999999,0.88
624,1782589798346,0.040000000000000001,-0.029999999999999999,0.88
625,1782589798380,0.01,-0.050000000000000003,1.03
626,1782589798413,0.01,-0.12,1.03
627,1782589798463,0.01,-0.12,1.03
628,1782589798530,0.070000000000000007,-0.089999999999999997,1.0900000000000001
629,1782589798596,0.089999999999999997,-0.089999999999999997,1.0900000000000001
630,1782589798630,0.10000000000000001,-0.089999999999999997,1.0800000000000001
631,1782589798713,0.14000000000000001,-0.02,0.98999999999999999
632,1782589798746,0.10000000000000001,0,0.83999999999999997
633,1782589798762,0.070000000000000007,-0.050000000000000003,1.0800000000000001
634,1782589798846,0.070000000000000007,-0.040000000000000001,1
635,1782589798913,0.070000000000000007,0.01,0.90000000000000002
636,1782589798946,0.059999999999999998,0.01,0.87
637,1782589799201,0.040000000000000001,0.01,0.87
638,1782589799213,0.01,0.040000000000000001,0.93999999999999995
639,1782589799213,0.050000000000000003,0.070000000000000007,0.92000000000000004
640,1782589799229,0.10000000000000001,0.040000000000000001,0.93999999999999995
641,1782589799312,0.029999999999999999,0.02,1.03
642,1782589799345,0.050000000000000003,0.02,0.96999999999999997
643,1782589799379,0.050000000000000003,0.02,0.95999999999999996
644,1782589799412,0.070000000000000007,0.02,0.94999999999999996
645,1782589799445,0.070000000000000007,0.02,0.94999999999999996
646,1782589799529,0.040000000000000001,0.070000000000000007,0.97999999999999998
647,1782589799612,0.040000000000000001,0.070000000000000007,0.94999999999999996
648,1782589799662,0.02,0.070000000000000007,0.94999999999999996
649,1782589799729,0.02,0.059999999999999998,0.95999999999999996
650,1782589799812,0.059999999999999998,0.10000000000000001,0.91000000000000003
651,1782589799928,0.059999999999999998,0.059999999999999998,0.91000000000000003
652,1782589799978,0.050000000000000003,0.050000000000000003,0.92000000000000004
653,1782589800029,0.059999999999999998,0,1.02
654,1782589800061,0.059999999999999998,0.01,1.02
655,1782589800078,0.080000000000000002,0.01,1.02
656,1782589800095,0.10000000000000001,0.01,0.98999999999999999
657,1782589800245,0.11,0,0.97999999999999998
658,1782589800311,0.12,-0.02,1.01
659,1782589800412,0.10000000000000001,-0.01,1.01
660,1782589800445,0.059999999999999998,0.02,1.01
661,1782589800461,0.029999999999999999,-0.01,1.01
662,1782589800478,0.02,-0.029999999999999999,1.04
663,1782589800512,0.02,-0.029999999999999999,1.04
664,1782589800545,0.02,-0.029999999999999999,1.0600000000000001
665,1782589800595,0.02,-0.029999999999999999,1.05
666,1782589800661,0.089999999999999997,-0.02,0.88
667,1782589800711,0.089999999999999997,-0.02,0.91000000000000003
668,1782589800778,0.089999999999999997,-0.02,0.91000000000000003
669,1782589800861,0.10000000000000001,-0.01,0.93000000000000005
670,1782589800894,0.11,-0.029999999999999999,1.02
671,1782589800912,0.089999999999999997,-0.029999999999999999,1
672,1782589800962,0.089999999999999997,-0.059999999999999998,1.02
673,1782589801029,0.080000000000000002,-0.059999999999999998,1.03
674,1782589801061,0.080000000000000002,-0.040000000000000001,1.03
675,1782589801111,0.050000000000000003,-0.040000000000000001,1.01
676,1782589801128,0.050000000000000003,0.02,0.94999999999999996
677,1782589801194,0.050000000000000003,0,0.94999999999999996
678,1782589801277,0.070000000000000007,0,0.94999999999999996
679,1782589801327,0.070000000000000007,-0,1.04
680,1782589801411,0.059999999999999998,-0.029999999999999999,1
681,1782589801477,0.070000000000000007,-0.029999999999999999,1
682,1782589801527,0.059999999999999998,-0.040000000000000001,1.03
683,1782589801577,0.070000000000000007,-0.040000000000000001,1
684,1782589801627,0.070000000000000007,-0.040000000000000001,0.94999999999999996
685,1782589801660,0.080000000000000002,-0.050000000000000003,1
686,1782589801743,0.059999999999999998,-0.02,1.01
687,1782589801793,0.059999999999999998,-0.02,1.01
688,1782589801843,0.059999999999999998,-0.02,1.04
689,1782589801894,0.059999999999999998,-0.02,1.0600000000000001
690,1782589801976,0.10000000000000001,-0.12,1.1000000000000001
691,1782589802027,0.089999999999999997,-0.080000000000000002,1.0600000000000001
692,1782589802060,0.059999999999999998,-0.059999999999999998,1.0600000000000001
693,1782589802226,0.10000000000000001,-0.13,0.93999999999999995
694,1782589802293,0.10000000000000001,-0.13,0.93999999999999995
695,1782589802343,0.10000000000000001,-0.13,1.04
696,1782589802360,0.10000000000000001,-0.12,1.1200000000000001
697,1782589802393,0.10000000000000001,-0.089999999999999997,1.1799999999999999
698,1782589802410,0.12,-0.089999999999999997,1.23
699,1782589802476,0.059999999999999998,-0.080000000000000002,1.1000000000000001
700,1782589802593,0.059999999999999998,-0.070000000000000007,1.1000000000000001
701,1782589802742,0.10000000000000001,-0,0.97999999999999998
702,1782589802793,0.10000000000000001,-0.029999999999999999,1.03
703,1782589802859,0.10000000000000001,-0.040000000000000001,1.0700000000000001
704,1782589802893,0.040000000000000001,-0.089999999999999997,1.1899999999999999
705,1782589803042,0.11,0.01,1.04
706,1782589803076,0.13,0.01,1.05
707,1782589803176,0.11,0.02,1.0700000000000001
708,1782589803209,0.11,0.02,1.1100000000000001
709,1782589803259,0.11,0.02,1.1299999999999999
710,1782589803275,0.11,-0.029999999999999999,1.1299999999999999
711,1782589803293,0.080000000000000002,-0.029999999999999999,1.1100000000000001
712,1782589803325,0.080000000000000002,0.050000000000000003,1.1000000000000001
713,1782589803459,0.029999999999999999,0.050000000000000003,1.1000000000000001
714,1782589803509,0.029999999999999999,0.029999999999999999,1.05
715,1782589803542,0.02,0.01,1.05
716,1782589803559,0.01,-0.059999999999999998,1.04
717,1782589803625,0,-0.059999999999999998,1.04
718,1782589803709,0.02,-0.050000000000000003,1.0800000000000001
719,1782589803809,0.040000000000000001,-0.040000000000000001,1.02
720,1782589803843,0.040000000000000001,-0.040000000000000001,1.01
721,1782589803875,0.040000000000000001,0.040000000000000001,1.01
722,1782589803892,0.040000000000000001,0.040000000000000001,1.01
723,1782589804059,0.059999999999999998,-0.02,1.02
724,1782589804142,0.089999999999999997,0,1.02
725,1782589804242,0.089999999999999997,-0.01,1
726,1782589804258,0.10000000000000001,-0.01,1
727,1782589804276,0.10000000000000001,-0.01,1.02
728,1782589804293,0.10000000000000001,-0.01,1.02
729,1782589804341,0.059999999999999998,-0.01,1.03
730,1782589804391,0.059999999999999998,-0.01,1.0700000000000001
731,1782589804492,0.050000000000000003,-0.01,1.0800000000000001
732,1782589804542,0.050000000000000003,-0.029999999999999999,1.0800000000000001
733,1782589804625,0.059999999999999998,-0.050000000000000003,0.97999999999999998
734,1782589804658,0.059999999999999998,-0.050000000000000003,1.02
735,1782589804724,0.059999999999999998,-0.040000000000000001,1.02
736,1782589804841,0.070000000000000007,0.02,0.93999999999999995
737,1782589804891,0.080000000000000002,0.02,0.95999999999999996
738,1782589804941,0.11,0.02,0.96999999999999997
739,1782589804991,0.11,-0.01,0.98999999999999999
740,1782589805090,0.080000000000000002,0.01,0.98999999999999999
741,1782589805207,0.080000000000000002,-0.02,1.02
742,1782589805225,0.070000000000000007,-0.02,1.02
743,1782589805241,0.070000000000000007,-0.029999999999999999,1.02
744,1782589805274,0.070000000000000007,-0.02,1.02
745,1782589805290,0.050000000000000003,-0.02,1.02
746,1782589805392,0.050000000000000003,-0.02,1.02
747,1782589805458,0.10000000000000001,-0.029999999999999999,1.1399999999999999
748,1782589805525,0.10000000000000001,-0.040000000000000001,1.1399999999999999
749,1782589805558,0.080000000000000002,-0.040000000000000001,1.1499999999999999
750,1782589805607,0.059999999999999998,-0.040000000000000001,1.1499999999999999
751,1782589805657,0.059999999999999998,-0.040000000000000001,1.03
752,1782589805724,0.10000000000000001,-0.040000000000000001,1
753,1782589805857,0.11,-0.040000000000000001,1
754,1782589805890,0.11,-0.029999999999999999,0.94999999999999996
755,1782589805940,0.089999999999999997,-0.029999999999999999,0.93999999999999995
756,1782589806008,0.089999999999999997,-0.029999999999999999,0.98999999999999999
757,1782589806057,0.080000000000000002,-0.029999999999999999,0.95999999999999996
758,1782589806091,0.080000000000000002,-0.029999999999999999,0.95999999999999996
759,1782589806173,0.080000000000000002,-0.029999999999999999,0.95999999999999996
760,1782589806190,0.080000000000000002,-0.029999999999999999,0.98999999999999999
761,1782589806257,0.059999999999999998,-0.01,1.03
762,1782589806307,0.059999999999999998,-0.01,1.02
763,1782589806374,0.059999999999999998,-0,1.01
764,1782589806423,0.070000000000000007,-0,1.01
765,1782589806440,0.070000000000000007,-0,1.01
766,1782589806557,0.070000000000000007,-0.02,1.01
767,1782589806590,0.080000000000000002,-0.02,1.03
768,1782589806624,0.080000000000000002,-0.02,1.05
769,1782589806689,0.080000000000000002,-0.029999999999999999,1.03
770,1782589806756,0.059999999999999998,-0.029999999999999999,1.03
771,1782589806806,0.070000000000000007,-0.029999999999999999,1.05
772,1782589806857,0.070000000000000007,-0.029999999999999999,1.05
773,1782589806906,0.070000000000000007,-0.040000000000000001,1.04
774,1782589807023,0.070000000000000007,-0.040000000000000001,1.05
775,1782589807090,0.059999999999999998,-0.040000000000000001,1.0900000000000001
776,1782589807156,0.070000000000000007,-0.050000000000000003,1.0800000000000001
777,1782589807222,0.070000000000000007,-0.059999999999999998,1
778,1782589807289,0.11,-0.050000000000000003,1.0900000000000001
779,1782589807339,0.11,-0.050000000000000003,1.1100000000000001
780,1782589807372,0.10000000000000001,-0.050000000000000003,1.0900000000000001
781,1782589807472,0.10000000000000001,-0.040000000000000001,1.0900000000000001
782,1782589807523,0.080000000000000002,-0.029999999999999999,1.1200000000000001
783,1782589807572,0.059999999999999998,-0.050000000000000003,1.1200000000000001
784,1782589807606,0.059999999999999998,-0.050000000000000003,1.1100000000000001
785,1782589807672,0.050000000000000003,-0.040000000000000001,1.03
786,1782589807773,0.040000000000000001,-0.029999999999999999,1.03
787,1782589807839,0.050000000000000003,-0.029999999999999999,1.02
788,1782589807839,0.050000000000000003,-0.040000000000000001,1
789,1782589807872,0.050000000000000003,-0.040000000000000001,1
790,1782589807890,0.10000000000000001,-0.040000000000000001,0.98999999999999999
791,1782589807906,0.070000000000000007,-0.040000000000000001,0.98999999999999999
792,1782589807922,0.070000000000000007,-0.040000000000000001,0.98999999999999999
793,1782589807955,0.070000000000000007,-0.050000000000000003,0.93999999999999995
794,1782589807972,0.059999999999999998,-0.050000000000000003,0.93999999999999995
795,1782589808005,0.050000000000000003,-0.059999999999999998,0.93999999999999995
796,1782589808071,0.029999999999999999,-0.070000000000000007,0.93999999999999995
797,1782589808139,0.040000000000000001,-0.070000000000000007,1.0700000000000001
798,1782589808172,0.059999999999999998,-0.059999999999999998,1.0800000000000001
799,1782589808255,0.059999999999999998,-0.059999999999999998,1.0800000000000001
800,1782589808288,0.080000000000000002,-0.050000000000000003,1.03
801,1782589808305,0.080000000000000002,-0.050000000000000003,0.96999999999999997
802,1782589808388,0.089999999999999997,-0.040000000000000001,0.96999999999999997
803,1782589808421,0.089999999999999997,-0.029999999999999999,0.94999999999999996
804,1782589808488,0.10000000000000001,-0.029999999999999999,0.95999999999999996
805,1782589808687,0.040000000000000001,-0.029999999999999999,0.94999999999999996
806,1782589808738,0.040000000000000001,-0.54000000000000004,0.94999999999999996
807,1782589808871,0.040000000000000001,-0.040000000000000001,0.92000000000000004
808,1782589808921,0.029999999999999999,-0.01,0.91000000000000003
809,1782589808954,0.050000000000000003,-0.040000000000000001,0.91000000000000003
810,1782589809004,0.059999999999999998,-0.040000000000000001,0.91000000000000003
811,1782589809071,0.080000000000000002,-0.02,0.90000000000000002
812,1782589809138,0.089999999999999997,-0.02,0.93999999999999995
813,1782589809221,0.070000000000000007,-0.01,0.89000000000000001
814,1782589809270,0.070000000000000007,-0.01,0.89000000000000001
815,1782589809320,0.070000000000000007,-0.01,0.89000000000000001
816,1782589809404,0.070000000000000007,-0.01,0.92000000000000004
817,1782589809503,0.080000000000000002,0.01,0.90000000000000002
818,1782589809604,0.080000000000000002,0.01,0.91000000000000003
819,1782589809620,0.070000000000000007,0.01,0.91000000000000003
820,1782589809654,0.059999999999999998,-0,0.92000000000000004
821,1782589809670,0.070000000000000007,-0.01,0.94999999999999996
822,1782589809687,0.070000000000000007,-0.02,1.04
823,1782589809821,0.059999999999999998,0,0.95999999999999996
824,1782589809937,0.059999999999999998,-0.01,0.97999999999999998
825,1782589810236,0.070000000000000007,-0.02,1.02
826,1782589810239,0.080000000000000002,-0.02,1.04
827,1782589810253,0.080000000000000002,-0.02,1.04
828,1782589810253,0.070000000000000007,-0.029999999999999999,1.04
829,1782589810253,0.059999999999999998,-0.040000000000000001,1.02
830,1782589810270,0.050000000000000003,-0.040000000000000001,1.02
831,1782589810320,0.050000000000000003,-0.040000000000000001,1.02
832,1782589810336,0.050000000000000003,-0.040000000000000001,1.02
833,1782589810370,0.050000000000000003,-0.01,1.01
834,1782589810386,0.050000000000000003,-0.01,0.98999999999999999
835,1782589810420,0.050000000000000003,-0.01,0.96999999999999997
836,1782589810437,0.050000000000000003,-0.01,0.96999999999999997
837,1782589810469,0.050000000000000003,-0.01,0.97999999999999998
838,1782589810553,0.050000000000000003,-0.01,0.97999999999999998
839,1782589810687,0.050000000000000003,-0.01,0.94999999999999996
840,1782589810836,0.050000000000000003,-0.01,0.97999999999999998
841,1782589810854,0.050000000000000003,-0.02,0.98999999999999999
842,1782589810886,0.059999999999999998,-0.02,0.98999999999999999
843,1782589810902,0.070000000000000007,0.02,0.96999999999999997
844,1782589810953,0.059999999999999998,0.02,0.96999999999999997
845,1782589811003,0.050000000000000003,0.02,0.97999999999999998
846,1782589811103,0.050000000000000003,0.02,0.97999999999999998
847,1782589811170,0.040000000000000001,-0,1
848,1782589811236,0.040000000000000001,0,1
849,1782589811270,0.040000000000000001,0,1.03
850,1782589811369,0.040000000000000001,-0,1.03
851,1782589811420,0.050000000000000003,-0,1.02
852,1782589811470,0.050000000000000003,-0,1.03
853,1782589811586,0.050000000000000003,-0.01,1.02
854,1782589811619,0.050000000000000003,-0.01,1.01
855,1782589811686,0.070000000000000007,-0,1.02
856,1782589811769,0.070000000000000007,-0,1.02
857,1782589811836,0.070000000000000007,-0.01,1.03
858,1782589811852,0.070000000000000007,-0.01,1.03
859,1782589811886,0.070000000000000007,-0.02,1.02
860,1782589811902,0.080000000000000002,-0.02,1.03
861,1782589811919,0.070000000000000007,-0,1.02
862,1782589811968,0.070000000000000007,-0.01,1.03
863,1782589812085,0.070000000000000007,-0.02,1.03
864,1782589812185,0.070000000000000007,-0.02,1.04
865,1782589812218,0.070000000000000007,-0.02,1.04
866,1782589812268,0.070000000000000007,-0.02,1.04
867,1782589812335,0.070000000000000007,-0.02,1.02
868,1782589812419,0.070000000000000007,-0.02,1.03
869,1782589812468,0.070000000000000007,-0.02,1.02
870,1782589812518,0.080000000000000002,-0.01,1.01
871,1782589812568,0.080000000000000002,-0.01,1.01
872,1782589812585,0.080000000000000002,-0.02,1.01
873,1782589812651,0.080000000000000002,-0.02,1.01
874,1782589812718,0.080000000000000002,-0.02,1
875,1782589812751,0.080000000000000002,-0.02,1
876,1782589812801,0.059999999999999998,-0.02,1
877,1782589812851,0.059999999999999998,-0.02,1
878,1782589812901,0.059999999999999998,-0.02,0.98999999999999999
879,1782589812951,0.059999999999999998,-0.02,1
880,1782589813017,0.059999999999999998,-0.01,1
881,1782589813051,0.050000000000000003,-0.01,1
882,1782589813152,0.050000000000000003,-0,1
883,1782589813250,0.050000000000000003,-0,1.01
884,1782589813334,0.059999999999999998,-0.02,1.02
885,1782589813401,0.059999999999999998,-0.02,1.02
886,1782589813434,0.059999999999999998,-0.02,1.02
887,1782589813450,0.059999999999999998,-0.02,1.02
888,1782589813467,0.059999999999999998,-0.02,1.02
889,1782589813500,0.050000000000000003,-0.02,1.01
890,1782589813534,0.059999999999999998,-0.02,1.02
891,1782589813617,0.059999999999999998,-0.02,1.01
892,1782589813734,0.059999999999999998,-0.02,1.01
893,1782589813767,0.059999999999999998,-0.02,1.01
894,1782589813816,0.070000000000000007,-0.02,1.01
895,1782589813885,0.070000000000000007,-0.01,1.01
896,1782589814051,0.070000000000000007,-0.02,1
897,1782589814084,0.070000000000000007,-0.02,1
898,1782589814100,0.070000000000000007,-0.02,1
899,1782589814117,0.059999999999999998,-0.02,1
900,1782589814233,0.059999999999999998,-0.02,1.01
901,1782589814300,0.059999999999999998,-0.029999999999999999,1.01
902,1782589814433,0.059999999999999998,-0.029999999999999999,1.02
903,1782589814450,0.059999999999999998,-0.029999999999999999,1.02
904,1782589814484,0.059999999999999998,-0.029999999999999999,1.01
905,1782589814516,0.059999999999999998,-0.029999999999999999,1.02
906,1782589814532,0.059999999999999998,-0.029999999999999999,1.01
907,1782589814550,0.059999999999999998,-0.029999999999999999,1.02
908,1782589814583,0.059999999999999998,-0.029999999999999999,1.02
909,1782589814649,0.059999999999999998,-0.029999999999999999,1.01
910,1782589814832,0.059999999999999998,-0.029999999999999999,1.01
911,1782589814866,0.059999999999999998,-0.029999999999999999,1.01
912,1782589814999,0.059999999999999998,-0.029999999999999999,1.01
913,1782589815032,0.059999999999999998,-0.029999999999999999,1.02
914,1782589815099,0.059999999999999998,-0.02,1.02
915,1782589815132,0.059999999999999998,-0.02,1.02
916,1782589815182,0.059999999999999998,-0.02,1.01
917,1782589815249,0.059999999999999998,-0.02,1.01
918,1782589815283,0.059999999999999998,-0.02,1.01
919,1782589815315,0.059999999999999998,-0.02,1.01
920,1782589815349,0.059999999999999998,-0.02,1.01
921,1782589815365,0.059999999999999998,-0.02,1.01
922,1782589815399,0.059999999999999998,-0.02,1.01
923,1782589815415,0.059999999999999998,-0.02,1.01
924,1782589815516,0.059999999999999998,-0.02,1.01
925,1782589815565,0.059999999999999998,-0.02,1.01
926,1782589815615,0.059999999999999998,-0.02,1.01
927,1782589815715,0.050000000000000003,-0.02,1.01
928,1782589815815,0.050000000000000003,-0.029999999999999999,1.01
929,1782589815848,0.040000000000000001,-0.029999999999999999,1.01
930,1782589815932,0.029999999999999999,-0.029999999999999999,1.01
931,1782589815948,0.029999999999999999,-0.029999999999999999,1.01
932,1782589815965,0.029999999999999999,-0.029999999999999999,1.01
933,1782589816032,0.029999999999999999,-0.029999999999999999,1.01
934,1782589816082,0.029999999999999999,-0.029999999999999999,1.01
935,1782589816232,0.02,-0.029999999999999999,1.01
936,1782589816281,0.02,-0.029999999999999999,1.01
937,1782589816331,0.02,-0.029999999999999999,1.02
938,1782589816365,0.02,-0.029999999999999999,1.02
939,1782589816398,0.02,-0.029999999999999999,1.02
940,1782589816464,0.01,-0.029999999999999999,1.01
941,1782589816498,0.01,-0.029999999999999999,1.01
942,1782589816548,0.01,-0.029999999999999999,1.01
943,1782589816614,0.01,-0.029999999999999999,1.01
944,1782589816715,0.01,-0.029999999999999999,1.01
945,1782589816831,0.01,-0.029999999999999999,1.01
946,1782589816914,0.01,-0.029999999999999999,1.01
947,1782589816931,0.040000000000000001,-0.029999999999999999,1.01
948,1782589816948,0.040000000000000001,-0.029999999999999999,1.01
949,1782589816981,0.040000000000000001,-0.02,1.01
950,1782589816997,0.040000000000000001,-0.02,1.01
951,1782589817014,0.040000000000000001,-0.029999999999999999,1.02
952,1782589817114,0.040000000000000001,-0.02,1.02
953,1782589817180,0.040000000000000001,-0.02,1.02
954,1782589817264,0.059999999999999998,-0.02,1.01
955,1782589817331,0.059999999999999998,-0.02,1.01
956,1782589817397,0.059999999999999998,-0.02,1.01
957,1782589817414,0.059999999999999998,-0.02,1.01
958,1782589817464,0.059999999999999998,-0.02,1.01
959,1782589817530,0.040000000000000001,-0.029999999999999999,1.01
960,1782589817547,0.040000000000000001,-0.02,1.01
961,1782589817563,0.040000000000000001,-0.02,1.01
962,1782589817597,0.040000000000000001,-0.02,1.01
963,1782589817614,0.040000000000000001,-0.02,1.01
964,1782589817647,0.040000000000000001,-0.029999999999999999,1.01
965,1782589817697,0.040000000000000001,-0.029999999999999999,1.01
966,1782589817747,0.040000000000000001,-0.029999999999999999,1.01
967,1782589817846,0.029999999999999999,-0.029999999999999999,1.01
968,1782589817880,0.029999999999999999,-0.029999999999999999,1.01
969,1782589817930,0.029999999999999999,-0.029999999999999999,1.01
970,1782589817996,0.02,-0.029999999999999999,1.01
971,1782589818080,0.01,-0.029999999999999999,1.02
972,1782589818146,0.01,-0.029999999999999999,1.02
973,1782589818180,0.01,-0.029999999999999999,1.02
974,1782589818296,0.02,-0.029999999999999999,1.02
975,1782589818363,0.01,-0.029999999999999999,1.02
976,1782589818463,0.01,-0.029999999999999999,1.01
977,1782589818530,0.01,-0.029999999999999999,1.01
978,1782589818563,0.01,-0.029999999999999999,1.01
979,1782589818596,0.01,-0.029999999999999999,1.01
980,1782589818663,0.01,-0.029999999999999999,1.01
981,1782589818779,0.02,-0.029999999999999999,1.01
982,1782589818829,0.040000000000000001,-0.029999999999999999,1.02
983,1782589818912,0.050000000000000003,-0.029999999999999999,1.02
984,1782589818945,0.050000000000000003,-0.029999999999999999,1.02
985,1782589818979,0.050000000000000003,-0.029999999999999999,1.01
986,1782589819046,0.050000000000000003,-0.029999999999999999,1.02
987,1782589819146,0.059999999999999998,-0.029999999999999999,1.01
988,1782589819195,0.059999999999999998,-0.029999999999999999,1.01
989,1782589819329,0.050000000000000003,-0.02,1.01
990,1782589819379,0.040000000000000001,-0.029999999999999999,1.02
991,1782589819446,0.040000000000000001,-0.02,1.01
992,1782589819529,0.040000000000000001,-0.02,1.01
993,1782589819562,0.040000000000000001,-0.02,1.01
994,1782589819595,0.02,-0.029999999999999999,1.01
995,1782589819712,0.02,-0.029999999999999999,1.01
996,1782589819812,0.02,-0.029999999999999999,1.01
997,1782589819845,0.02,-0.029999999999999999,1.01
998,1782589819895,0.02,-0.029999999999999999,1.02
999,1782589819962,0.01,-0.029999999999999999,1.01
1000,1782589820028,0.01,-0.029999999999999999,1.01
1001,1782589820045,0.01,-0.029999999999999999,1.01
1002,1782589820111,0.01,-0.029999999999999999,1.02
1003,1782589820161,0.02,-0.029999999999999999,1.02
1004,1782589820245,0.02,-0.029999999999999999,1.01
1005,1782589820311,0.02,-0.029999999999999999,1.01
1006,1782589820378,0.02,-0.029999999999999999,1.01
1007,1782589820428,0.02,-0.029999999999999999,1.01
1008,1782589820511,0.01,-0.029999999999999999,1.02
1009,1782589820544,0.01,-0.040000000000000001,1.02
1010,1782589820611,0.01,-0.040000000000000001,1.02
1011,1782589820694,0.02,-0.040000000000000001,1.02
1012,1782589820728,0.040000000000000001,-0.029999999999999999,1.01
1013,1782589820794,0.040000000000000001,-0.029999999999999999,1.02
1014,1782589820861,0.040000000000000001,-0.029999999999999999,1.01
1015,1782589820895,0.040000000000000001,-0.029999999999999999,1.02
1016,1782589820928,0.040000000000000001,-0.029999999999999999,1.02
1017,1782589820944,0.040000000000000001,-0.029999999999999999,1.02
1018,1782589821238,0.059999999999999998,-0.02,1.01
1019,1782589821238,0.059999999999999998,-0.029999999999999999,1.01
1020,1782589821244,0.059999999999999998,-0.029999999999999999,1.01
1021,1782589821260,0.059999999999999998,-0.029999999999999999,1.01
1022,1782589821260,0.040000000000000001,-0.029999999999999999,1.01
1023,1782589821310,0.040000000000000001,-0.029999999999999999,1.02
1024,1782589821377,0.040000000000000001,-0.02,1.02
1025,1782589821427,0.040000000000000001,-0.02,1.02
1026,1782589821477,0.029999999999999999,-0.02,1.01
1027,1782589821527,0.029999999999999999,-0.02,1.01
1028,1782589821594,0.029999999999999999,-0.029999999999999999,1.01
1029,1782589821661,0.029999999999999999,-0.029999999999999999,1.01
1030,1782589821710,0.029999999999999999,-0.029999999999999999,1.01
1031,1782589821743,0.02,-0.029999999999999999,1.02
1032,1782589821793,0.02,-0.029999999999999999,1.02
1033,1782589821861,0.02,-0.029999999999999999,1.01
1034,1782589821893,0.02,-0.029999999999999999,1.01
1035,1782589821928,0.02,-0.029999999999999999,1.01
1036,1782589822011,0.02,-0.029999999999999999,1.02
1037,1782589822093,0.02,-0.029999999999999999,1.02
1038,1782589822161,0.02,-0.029999999999999999,1.02
1039,1782589822210,0.02,-0.029999999999999999,1.02
1040,1782589822277,0.02,-0.029999999999999999,1.01
1041,1782589822310,0.029999999999999999,-0.029999999999999999,1.02
1042,1782589822359,0.029999999999999999,-0.029999999999999999,1.01
1043,1782589822409,0.029999999999999999,-0.029999999999999999,1.01
1044,1782589822460,0.029999999999999999,-0.029999999999999999,1.01
1045,1782589822493,0.029999999999999999,-0.029999999999999999,1.01
1046,1782589822510,0.040000000000000001,-0.029999999999999999,1.01
1047,1782589822543,0.040000000000000001,-0.029999999999999999,1.01
1048,1782589822560,0.040000000000000001,-0.029999999999999999,1.01
1049,1782589822593,0.029999999999999999,-0.029999999999999999,1.01
1050,1782589822710,0.029999999999999999,-0.029999999999999999,1.01
1051,1782589822810,0.029999999999999999,-0.029999999999999999,1.01
1052,1782589822909,0.029999999999999999,-0.029999999999999999,1.01
1053,1782589822960,0.029999999999999999,-0.029999999999999999,1.01
1054,1782589823026,0.029999999999999999,-0.029999999999999999,1.01
1055,1782589823109,0.029999999999999999,-0.029999999999999999,1.01
1056,1782589823159,0.029999999999999999,-0.029999999999999999,1.02
1057,1782589823259,0.029999999999999999,-0.029999999999999999,1.02
1058,1782589823308,0.029999999999999999,-0.029999999999999999,1.02
1059,1782589823358,0.029999999999999999,-0.040000000000000001,1.03
1060,1782589823425,0.029999999999999999,-0.040000000000000001,1.03
1061,1782589823492,0.02,-0.040000000000000001,1.03
1062,1782589823509,0.02,-0.040000000000000001,1.03
1063,1782589823559,0.02,-0.040000000000000001,1.03
1064,1782589823625,0.040000000000000001,-0.040000000000000001,1
1065,1782589823675,0.040000000000000001,-0.040000000000000001,1
1066,1782589823742,0.040000000000000001,-0.040000000000000001,1
1067,1782589823858,0.029999999999999999,-0.029999999999999999,1.02
1068,1782589823908,0.029999999999999999,-0.02,1.03
1069,1782589823958,0.029999999999999999,-0.02,1.03
1070,1782589824008,0.029999999999999999,-0.02,1.03
1071,1782589824125,0.029999999999999999,-0.02,1.01
1072,1782589824141,0.029999999999999999,-0.02,1.01
1073,1782589824191,0.029999999999999999,-0.02,1.01
1074,1782589824241,0.029999999999999999,-0.02,1.01
1075,1782589824292,0.029999999999999999,-0.02,1.01
1076,1782589824374,0.029999999999999999,-0.02,1.01
1077,1782589824424,0.029999999999999999,-0.02,1.01
1078,1782589824508,0.029999999999999999,-0.02,1.01
1079,1782589824574,0.029999999999999999,-0.029999999999999999,1.01
1080,1782589824607,0.029999999999999999,-0.029999999999999999,1.01
1081,1782589824624,0.029999999999999999,-0.029999999999999999,1.01
1082,1782589824641,0.029999999999999999,-0.029999999999999999,1.02
1083,1782589824691,0.029999999999999999,-0.029999999999999999,1.02
1084,1782589824741,0.029999999999999999,-0.029999999999999999,1.01
1085,1782589824774,0.029999999999999999,-0.029999999999999999,1.01
1086,1782589824791,0.029999999999999999,-0.029999999999999999,1.02
1087,1782589824825,0.029999999999999999,-0.029999999999999999,1.01
1088,1782589824858,0.029999999999999999,-0.029999999999999999,1.01
1089,1782589824874,0.029999999999999999,-0.029999999999999999,1.01
1090,1782589824925,0.029999999999999999,-0.029999999999999999,1.01
1091,1782589824974,0.029999999999999999,-0.029999999999999999,1.01
1092,1782589825024,0.029999999999999999,-0.029999999999999999,1.01
1093,1782589825041,0.029999999999999999,-0.029999999999999999,1.01
1094,1782589825090,0.029999999999999999,-0.029999999999999999,1.01
1095,1782589825174,0.029999999999999999,-0.029999999999999999,1.01
1096,1782589825224,0.029999999999999999,-0.029999999999999999,1.01
1097,1782589825274,0.029999999999999999,-0.029999999999999999,1.01
1098,1782589825340,0.029999999999999999,-0.029999999999999999,1.01
1099,1782589825440,0.029999999999999999,-0.029999999999999999,1.01
1100,1782589825507,0.029999999999999999,-0.029999999999999999,1.02
1101,1782589825524,0.029999999999999999,-0.029999999999999999,1.02
1102,1782589825590,0.029999999999999999,-0.029999999999999999,1.02
1103,1782589825673,0.029999999999999999,-0.029999999999999999,1.02
1104,1782589825757,0.029999999999999999,-0.029999999999999999,1.01
1105,1782589825807,0.029999999999999999,-0.029999999999999999,1.01
1106,1782589825890,0.029999999999999999,-0.029999999999999999,1.01
1107,1782589825940,0.029999999999999999,-0.029999999999999999,1.01
1108,1782589826056,0.029999999999999999,-0.029999999999999999,1.01
1109,1782589826123,0.040000000000000001,-0.029999999999999999,1.02
1110,1782589826156,0.029999999999999999,-0.029999999999999999,1.02
1111,1782589826173,0.029999999999999999,-0.029999999999999999,1.02
1112,1782589826206,0.029999999999999999,-0.029999999999999999,1.01
1113,1782589826256,0.029999999999999999,-0.029999999999999999,1.01
1114,1782589826323,0.029999999999999999,-0.029999999999999999,1.01
1115,1782589826456,0.029999999999999999,-0.029999999999999999,1.01
1116,1782589826490,0.029999999999999999,-0.029999999999999999,1.01
1117,1782589826539,0.029999999999999999,-0.029999999999999999,1.01
1118,1782589826606,0.029999999999999999,-0.029999999999999999,1.02
1119,1782589826639,0.029999999999999999,-0.029999999999999999,1.02
1120,1782589826724,0.029999999999999999,-0.029999999999999999,1.02
1121,1782589826756,0.029999999999999999,-0.029999999999999999,1.01
1122,1782589826772,0.029999999999999999,-0.029999999999999999,1.01
1123,1782589826839,0.029999999999999999,-0.029999999999999999,1.01
1124,1782589826889,0.029999999999999999,-0.029999999999999999,1.01
1125,1782589826989,0.029999999999999999,-0.029999999999999999,1.01
1126,1782589826989,0.029999999999999999,-0.029999999999999999,1.01
1127,1782589827039,0.029999999999999999,-0.029999999999999999,1.01
1128,1782589827056,0.029999999999999999,-0.029999999999999999,1.01
1129,1782589827089,0.029999999999999999,-0.029999999999999999,1.01
1130,1782589827106,0.029999999999999999,-0.029999999999999999,1.01
1131,1782589827123,0.029999999999999999,-0.029999999999999999,1.01
1132,1782589827172,0.029999999999999999,-0.029999999999999999,1.01
1133,1782589827223,0.029999999999999999,-0.029999999999999999,1.01
1134,1782589827305,0.029999999999999999,-0.029999999999999999,1.01
1135,1782589827338,0.029999999999999999,-0.029999999999999999,1.01
1136,1782589827405,0.029999999999999999,-0.029999999999999999,1.01
1137,1782589827505,0.029999999999999999,-0.029999999999999999,1.01
1138,1782589827605,0.029999999999999999,-0.029999999999999999,1.01
1139,1782589827622,0.029999999999999999,-0.029999999999999999,1.01
1140,1782589827638,0.029999999999999999,-0.029999999999999999,1.01
1141,1782589827672,0.029999999999999999,-0.029999999999999999,1.01
1142,1782589827705,0.029999999999999999,-0.029999999999999999,1.01
1143,1782589827838,0.029999999999999999,-0.029999999999999999,1.01
1144,1782589827888,0.029999999999999999,-0.029999999999999999,1.01
1145,1782589827955,0.029999999999999999,-0.029999999999999999,1.01
1146,1782589827988,0.029999999999999999,-0.029999999999999999,1.01
1147,1782589828021,0.029999999999999999,-0.029999999999999999,1.01
1148,1782589828054,0.029999999999999999,-0.029999999999999999,1.01
1149,1782589828071,0.029999999999999999,-0.029999999999999999,1.01
1150,1782589828105,0.029999999999999999,-0.029999999999999999,1.01
1151,1782589828238,0.029999999999999999,-0.029999999999999999,1.01
1152,1782589828271,0.029999999999999999,-0.029999999999999999,1.01
1153,1782589828338,0.029999999999999999,-0.029999999999999999,1.01
1154,1782589828372,0.029999999999999999,-0.029999999999999999,1.01
1155,1782589828404,0.029999999999999999,-0.029999999999999999,1.02
1156,1782589828471,0.029999999999999999,-0.029999999999999999,1.01
1157,1782589828605,0.029999999999999999,-0.029999999999999999,1.01
1158,1782589828638,0.029999999999999999,-0.029999999999999999,1.01
1159,1782589828638,0.029999999999999999,-0.029999999999999999,1.01
1160,1782589828671,0.029999999999999999,-0.029999999999999999,1.01
1161,1782589828688,0.029999999999999999,-0.029999999999999999,1.01
1162,1782589828737,0.029999999999999999,-0.029999999999999999,1.01
1163,1782589828787,0.029999999999999999,-0.029999999999999999,1.01
1164,1782589828921,0.029999999999999999,-0.029999999999999999,1.01
1165,1782589828971,0.029999999999999999,-0.029999999999999999,1.01
1166,1782589829004,0.029999999999999999,-0.029999999999999999,1.01
1167,1782589829037,0.029999999999999999,-0.029999999999999999,1.01
1168,1782589829054,0.029999999999999999,-0.029999999999999999,1.01
1169,1782589829088,0.029999999999999999,-0.029999999999999999,1.01
1170,1782589829204,0.029999999999999999,-0.029999999999999999,1.01
1171,1782589829287,0.029999999999999999,-0.029999999999999999,1.01
1172,1782589829354,0.029999999999999999,-0.029999999999999999,1.01
1173,1782589829420,0.029999999999999999,-0.029999999999999999,1.01
1174,1782589829453,0.029999999999999999,-0.029999999999999999,1.01
1175,1782589829520,0.029999999999999999,-0.029999999999999999,1.01
1176,1782589829587,0.029999999999999999,-0.029999999999999999,1.01
1177,1782589829620,0.029999999999999999,-0.029999999999999999,1.01
1178,1782589829670,0.029999999999999999,-0.029999999999999999,1.01
1179,1782589829704,0.029999999999999999,-0.029999999999999999,1.01
1180,1782589829737,0.029999999999999999,-0.029999999999999999,1.01
1181,1782589829753,0.029999999999999999,-0.029999999999999999,1.01
1182,1782589829871,0.029999999999999999,-0.029999999999999999,1.01
1183,1782589829887,0.029999999999999999,-0.029999999999999999,1.01
1184,1782589830003,0.029999999999999999,-0.029999999999999999,1.01
1185,1782589830069,0.029999999999999999,-0.029999999999999999,1.01
1186,1782589830136,0.029999999999999999,-0.029999999999999999,1.02
1187,1782589830170,0.029999999999999999,-0.029999999999999999,1.02
1188,1782589830220,0.029999999999999999,-0.029999999999999999,1.01
1189,1782589830320,0.029999999999999999,-0.029999999999999999,1.01
1190,1782589830387,0.029999999999999999,-0.029999999999999999,1.01
1191,1782589830419,0.029999999999999999,-0.029999999999999999,1.01
1192,1782589830487,0.029999999999999999,-0.029999999999999999,1.01
1193,1782589830536,0.029999999999999999,-0.029999999999999999,1.01
1194,1782589830552,0.029999999999999999,-0.029999999999999999,1.01
1195,1782589830603,0.029999999999999999,-0.029999999999999999,1.02
1196,1782589830653,0.029999999999999999,-0.029999999999999999,1.02
1197,1782589830687,0.029999999999999999,-0.029999999999999999,1.02
1198,1782589830786,0.029999999999999999,-0.029999999999999999,1.01
1199,1782589830886,0.029999999999999999,-0.029999999999999999,1.01
1200,1782589830937,0.029999999999999999,-0.029999999999999999,1.01
1201,1782589831069,0.029999999999999999,-0.029999999999999999,1.01
1202,1782589831119,0.029999999999999999,-0.029999999999999999,1.01
1203,1782589831169,0.029999999999999999,-0.029999999999999999,1.01
1204,1782589831236,0.029999999999999999,-0.029999999999999999,1.01
1205,1782589831285,0.029999999999999999,-0.029999999999999999,1.01
1206,1782589831368,0.029999999999999999,-0.029999999999999999,1.02
1207,1782589831401,0.029999999999999999,-0.029999999999999999,1.02
1208,1782589831452,0.029999999999999999,-0.029999999999999999,1.02
1209,1782589831519,0.029999999999999999,-0.029999999999999999,1.01
1210,1782589831552,0.029999999999999999,-0.029999999999999999,1.01
1211,1782589831619,0.029999999999999999,-0.029999999999999999,1.01
1212,1782589831719,0.029999999999999999,-0.029999999999999999,1.01
1213,1782589831786,0.029999999999999999,-0.029999999999999999,1.01
1214,1782589831803,0.029999999999999999,-0.029999999999999999,1.01
1215,1782589831869,0.029999999999999999,-0.029999999999999999,1.01
1216,1782589831919,0.029999999999999999,-0.029999999999999999,1.01
1217,1782589831934,0.029999999999999999,-0.029999999999999999,1.01
1218,1782589831952,0.029999999999999999,-0.029999999999999999,1.02
1219,1782589832238,0.029999999999999999,-0.029999999999999999,1.02
1220,1782589832241,0.029999999999999999,-0.029999999999999999,1.02
1221,1782589832241,0.029999999999999999,-0.029999999999999999,1.02
1222,1782589832252,0.029999999999999999,-0.029999999999999999,1.02
1223,1782589832252,0.029999999999999999,-0.029999999999999999,1.01
1224,1782589832252,0.029999999999999999,-0.029999999999999999,1.01
1225,1782589832317,0.029999999999999999,-0.029999999999999999,1.01
1226,1782589832468,0.029999999999999999,-0.029999999999999999,1.02
1227,1782589832501,0.029999999999999999,-0.029999999999999999,1.02
1228,1782589832519,0.029999999999999999,-0.029999999999999999,1.02
1229,1782589832534,0.029999999999999999,-0.029999999999999999,1.01
1230,1782589832584,0.029999999999999999,-0.029999999999999999,1.01
1231,1782589832784,0.029999999999999999,-0.029999999999999999,1.01
1232,1782589832850,0.029999999999999999,-0.029999999999999999,1.01
1233,1782589832868,0.029999999999999999,-0.029999999999999999,1.01
1234,1782589832900,0.029999999999999999,-0.029999999999999999,1.01
1235,1782589832934,0.029999999999999999,-0.029999999999999999,1.01
1236,1782589833084,0.029999999999999999,-0.029999999999999999,1.02
1237,1782589833151,0.029999999999999999,-0.029999999999999999,1.02
1238,1782589833184,0.029999999999999999,-0.029999999999999999,1.02
1239,1782589833300,0.029999999999999999,-0.029999999999999999,1.01
1240,1782589833368,0.029999999999999999,-0.029999999999999999,1.01
1241,1782589833468,0.029999999999999999,-0.029999999999999999,1.01
1242,1782589833483,0.029999999999999999,-0.029999999999999999,1.01
1243,1782589833500,0.029999999999999999,-0.029999999999999999,1.02
1244,1782589833551,0.029999999999999999,-0.029999999999999999,1.02
1245,1782589833601,0.029999999999999999,-0.029999999999999999,1.02
1246,1782589833667,0.029999999999999999,-0.029999999999999999,1.02
1247,1782589833750,0.029999999999999999,-0.029999999999999999,1.01
1248,1782589833818,0.029999999999999999,-0.029999999999999999,1.01
1249,1782589833835,0.029999999999999999,-0.029999999999999999,1.01
1250,1782589833851,0.029999999999999999,-0.029999999999999999,1.01
1251,1782589833902,0.029999999999999999,-0.029999999999999999,1.01
1252,1782589834051,0.029999999999999999,-0.029999999999999999,1.01
1253,1782589834117,0.029999999999999999,-0.029999999999999999,1.01
1254,1782589834167,0.029999999999999999,-0.029999999999999999,1.01
1255,1782589834217,0.029999999999999999,-0.029999999999999999,1.01
1256,1782589834233,0.029999999999999999,-0.029999999999999999,1.01
1257,1782589834250,0.029999999999999999,-0.029999999999999999,1.01
1258,1782589834283,0.029999999999999999,-0.029999999999999999,1.01
1259,1782589834350,0.029999999999999999,-0.029999999999999999,1.01
1260,1782589834401,0.029999999999999999,-0.029999999999999999,1.01
1261,1782589834449,0.029999999999999999,-0.029999999999999999,1.01
1262,1782589834499,0.029999999999999999,-0.029999999999999999,1.01
1263,1782589834532,0.029999999999999999,-0.029999999999999999,1.01
1264,1782589834550,0.029999999999999999,-0.029999999999999999,1.01
1265,1782589834566,0.029999999999999999,-0.029999999999999999,1.01
1266,1782589834616,0.029999999999999999,-0.029999999999999999,1.01
1267,1782589834733,0.029999999999999999,-0.029999999999999999,1.01
1268,1782589834750,0.029999999999999999,-0.029999999999999999,1.01
1269,1782589834800,0.029999999999999999,-0.029999999999999999,1.01
1270,1782589834900,0.029999999999999999,-0.029999999999999999,1.01
1271,1782589834950,0.029999999999999999,-0.029999999999999999,1.01
1272,1782589834983,0.029999999999999999,-0.029999999999999999,1.01
1273,1782589835050,0.029999999999999999,-0.029999999999999999,1.01
1274,1782589835083,0.029999999999999999,-0.029999999999999999,1.01
1275,1782589835132,0.029999999999999999,-0.029999999999999999,1.01
1276,1782589835216,0.029999999999999999,-0.029999999999999999,1.01
1277,1782589835265,0.029999999999999999,-0.029999999999999999,1.01
1278,1782589835316,0.029999999999999999,-0.029999999999999999,1.01
1279,1782589835465,0.029999999999999999,-0.029999999999999999,1.01
1280,1782589835498,0.029999999999999999,-0.029999999999999999,1.02
1281,1782589835548,0.029999999999999999,-0.029999999999999999,1.02
1282,1782589835648,0.029999999999999999,-0.029999999999999999,1.02
1283,1782589835715,0.029999999999999999,-0.029999999999999999,1.01
1284,1782589835732,0.029999999999999999,-0.029999999999999999,1.01
1285,1782589835815,0.029999999999999999,-0.029999999999999999,1.01
1286,1782589835848,0.029999999999999999,-0.029999999999999999,1.01
1287,1782589835865,0.029999999999999999,-0.029999999999999999,1.01
1288,1782589835931,0.029999999999999999,-0.029999999999999999,1.01
1289,1782589835964,0.029999999999999999,-0.029999999999999999,1.01
1290,1782589836015,0.029999999999999999,-0.029999999999999999,1.01
1291,1782589836099,0.029999999999999999,-0.029999999999999999,1.02
1292,1782589836181,0.029999999999999999,-0.029999999999999999,1.01
1293,1782589836231,0.029999999999999999,-0.029999999999999999,1.01
1294,1782589836298,0.029999999999999999,-0.029999999999999999,1.01
1295,1782589836366,0.029999999999999999,-0.029999999999999999,1.01
1296,1782589836448,0.029999999999999999,-0.029999999999999999,1.01
1297,1782589836482,0.029999999999999999,-0.029999999999999999,1.01
1298,1782589836531,0.029999999999999999,-0.029999999999999999,1.01
1299,1782589836631,0.029999999999999999,-0.029999999999999999,1.01
1300,1782589836680,0.029999999999999999,-0.029999999999999999,1.01
1301,1782589836698,0.029999999999999999,-0.029999999999999999,1.01
1302,1782589836747,0.029999999999999999,-0.029999999999999999,1.01
1303,1782589836814,0.029999999999999999,-0.029999999999999999,1.01
1304,1782589836847,0.029999999999999999,-0.029999999999999999,1.01
1305,1782589836899,0.029999999999999999,-0.029999999999999999,1.01
1306,1782589836964,0.029999999999999999,-0.029999999999999999,1.01
1307,1782589837047,0.029999999999999999,-0.029999999999999999,1.01
1308,1782589837181,0.029999999999999999,-0.029999999999999999,1.01
1309,1782589837230,0.029999999999999999,-0.029999999999999999,1.01
1310,1782589837297,0.029999999999999999,-0.029999999999999999,1.01
1311,1782589837347,0.029999999999999999,-0.029999999999999999,1.01
1312,1782589837397,0.029999999999999999,-0.029999999999999999,1.01
1313,1782589837430,0.029999999999999999,-0.029999999999999999,1.01
1314,1782589837563,0.029999999999999999,-0.029999999999999999,1.01
1315,1782589837630,0.029999999999999999,-0.029999999999999999,1.01
1316,1782589837680,0.029999999999999999,-0.029999999999999999,1.01
1317,1782589837714,0.029999999999999999,-0.029999999999999999,1.01
1318,1782589837797,0.029999999999999999,-0.029999999999999999,1.01
1319,1782589837847,0.029999999999999999,-0.029999999999999999,1.01
1320,1782589837913,0.029999999999999999,-0.029999999999999999,1.01
1321,1782589838029,0.029999999999999999,-0.029999999999999999,1.01
1322,1782589838048,0.029999999999999999,-0.029999999999999999,1.01
1323,1782589838130,0.029999999999999999,-0.029999999999999999,1.01
1324,1782589838197,0.029999999999999999,-0.029999999999999999,1.01
1325,1782589838230,0.029999999999999999,-0.029999999999999999,1.01
1326,1782589838296,0.029999999999999999,-0.029999999999999999,1.02
1327,1782589838364,0.029999999999999999,-0.029999999999999999,1.02
1328,1782589838413,0.029999999999999999,-0.029999999999999999,1.02
1329,1782589838479,0.029999999999999999,-0.029999999999999999,1.02
1330,1782589838547,0.029999999999999999,-0.029999999999999999,1.02
1331,1782589838562,0.029999999999999999,-0.029999999999999999,1.01
1332,1782589838662,0.029999999999999999,-0.029999999999999999,1.01
1333,1782589838712,0.029999999999999999,-0.029999999999999999,1.01
1334,1782589838746,0.029999999999999999,-0.029999999999999999,1.01
1335,1782589838813,0.029999999999999999,-0.029999999999999999,1.01
1336,1782589838846,0.029999999999999999,-0.029999999999999999,1.01
1337,1782589838913,0.029999999999999999,-0.029999999999999999,1.01
1338,1782589838947,0.029999999999999999,-0.029999999999999999,1.01
1339,1782589839012,0.029999999999999999,-0.029999999999999999,1.01
1340,1782589839063,0.029999999999999999,-0.029999999999999999,1.01
1341,1782589839080,0.029999999999999999,-0.029999999999999999,1.02
1342,1782589839146,0.029999999999999999,-0.029999999999999999,1.02
1343,1782589839196,0.029999999999999999,-0.029999999999999999,1.02
1344,1782589839245,0.029999999999999999,-0.029999999999999999,1.02
1345,1782589839278,0.029999999999999999,-0.029999999999999999,1.01
1346,1782589839312,0.029999999999999999,-0.029999999999999999,1.01
1347,1782589839362,0.029999999999999999,-0.029999999999999999,1.01
1348,1782589839378,0.029999999999999999,-0.029999999999999999,1.01
1349,1782589839412,0.029999999999999999,-0.029999999999999999,1.01
1350,1782589839428,0.029999999999999999,-0.029999999999999999,1.02
1351,1782589839495,0.029999999999999999,-0.029999999999999999,1.02
1352,1782589839562,0.029999999999999999,-0.029999999999999999,1.02
1353,1782589839646,0.029999999999999999,-0.029999999999999999,1.02
1354,1782589839761,0.029999999999999999,-0.029999999999999999,1
1355,1782589839794,0.029999999999999999,-0.029999999999999999,1
1356,1782589839862,0.029999999999999999,-0.029999999999999999,1
1357,1782589839878,0.029999999999999999,-0.029999999999999999,1
1358,1782589839912,0.029999999999999999,-0.029999999999999999,1.01
1359,1782589840012,0.029999999999999999,-0.029999999999999999,1.03
1360,1782589840162,0.029999999999999999,-0.029999999999999999,1.02
1361,1782589840178,0.029999999999999999,-0.029999999999999999,1.02
1362,1782589840211,0.029999999999999999,-0.029999999999999999,1.02
1363,1782589840244,0.029999999999999999,-0.029999999999999999,1.02
1364,1782589840311,0.029999999999999999,-0.029999999999999999,1.02
1365,1782589840411,0.029999999999999999,-0.029999999999999999,1.02
1366,1782589840461,0.029999999999999999,-0.029999999999999999,1.01
1367,1782589840495,0.029999999999999999,-0.029999999999999999,1.01
1368,1782589840528,0.029999999999999999,-0.029999999999999999,1.01
1369,1782589840544,0.029999999999999999,-0.029999999999999999,1.01
1370,1782589840594,0.029999999999999999,-0.029999999999999999,1.01
1371,1782589840627,0.029999999999999999,-0.029999999999999999,1.01
1372,1782589840695,0.029999999999999999,-0.029999999999999999,1.01
1373,1782589840761,0.029999999999999999,-0.029999999999999999,1.01
1374,1782589840861,0.029999999999999999,-0.029999999999999999,1.01
1375,1782589840895,0.029999999999999999,-0.029999999999999999,1.01
1376,1782589840927,0.029999999999999999,-0.029999999999999999,1.02
1377,1782589840961,0.029999999999999999,-0.029999999999999999,1.02
1378,1782589841013,0.040000000000000001,-0.029999999999999999,1.02
1379,1782589841145,0.040000000000000001,-0.029999999999999999,1.02
1380,1782589841178,0.040000000000000001,-0.029999999999999999,1.02
1381,1782589841228,0.040000000000000001,-0.029999999999999999,1.02
1382,1782589841277,0.040000000000000001,-0.029999999999999999,1.01
1383,1782589841410,0.040000000000000001,-0.02,1.01
1384,1782589841443,0.040000000000000001,-0.02,1.01
1385,1782589841478,0.029999999999999999,-0.029999999999999999,1.01
1386,1782589841511,0.02,-0.029999999999999999,1.02
1387,1782589841544,0.02,-0.029999999999999999,1.02
1388,1782589841560,0.02,-0.029999999999999999,1.02
1389,1782589841577,0.02,-0.02,1.02
1390,1782589841627,0.02,-0.02,1.02
1391,1782589841677,0.02,-0.02,1.02
1392,1782589841744,0.02,-0.02,1.02
1393,1782589841827,0.029999999999999999,-0.029999999999999999,1.01
1394,1782589841877,0.029999999999999999,-0.029999999999999999,1.01
1395,1782589841927,0.029999999999999999,-0.029999999999999999,1.01
1396,1782589842060,0.029999999999999999,-0.029999999999999999,1.01
1397,1782589842094,0.029999999999999999,-0.029999999999999999,1.02
1398,1782589842193,0.029999999999999999,-0.029999999999999999,1.02
1399,1782589842209,0.029999999999999999,-0.029999999999999999,1.02
1400,1782589842260,0.029999999999999999,-0.029999999999999999,1.02
1401,1782589842310,0.029999999999999999,-0.029999999999999999,1.01
1402,1782589842376,0.029999999999999999,-0.029999999999999999,1.01
1403,1782589842409,0.029999999999999999,-0.029999999999999999,1.01
1404,1782589842443,0.029999999999999999,-0.029999999999999999,1.01
1405,1782589842509,0.029999999999999999,-0.029999999999999999,1.01
1406,1782589842576,0.029999999999999999,-0.029999999999999999,1.01
1407,1782589842642,0.029999999999999999,-0.029999999999999999,1.01
1408,1782589842726,0.029999999999999999,-0.029999999999999999,1.01
1409,1782589842760,0.029999999999999999,-0.029999999999999999,1.01
1410,1782589842809,0.029999999999999999,-0.029999999999999999,1.01
1411,1782589842909,0.029999999999999999,-0.02,1.01
1412,1782589843270,0.029999999999999999,-0.02,1.01
1413,1782589843270,0.029999999999999999,-0.02,1.01
1414,1782589843275,0.029999999999999999,-0.02,1.02
1415,1782589843275,0.029999999999999999,-0.02,1.02
1416,1782589843292,0.029999999999999999,-0.02,1.02
1417,1782589843292,0.029999999999999999,-0.029999999999999999,1.02
1418,1782589843292,0.029999999999999999,-0.029999999999999999,1.02
1419,1782589843325,0.029999999999999999,-0.02,1.01
1420,1782589843392,0.029999999999999999,-0.029999999999999999,1.01
1421,1782589843475,0.029999999999999999,-0.029999999999999999,1.01
1422,1782589843558,0.029999999999999999,-0.029999999999999999,1.01
1423,1782589843575,0.029999999999999999,-0.029999999999999999,1.01
1424,1782589843609,0.029999999999999999,-0.029999999999999999,1.01
1425,1782589843708,0.029999999999999999,-0.029999999999999999,1.01
1426,1782589843775,0.029999999999999999,-0.029999999999999999,1.01
1427,1782589843841,0.029999999999999999,-0.029999999999999999,1.01
1428,1782589843858,0.029999999999999999,-0.029999999999999999,1.01
1429,1782589843925,0.029999999999999999,-0.029999999999999999,1.01
1430,1782589844025,0.029999999999999999,-0.029999999999999999,1.02
1431,1782589844108,0.029999999999999999,-0.029999999999999999,1.02
1432,1782589844141,0.029999999999999999,-0.029999999999999999,1.02
1433,1782589844174,0.029999999999999999,-0.029999999999999999,1.01
1434,1782589844224,0.029999999999999999,-0.029999999999999999,1.01
1435,1782589844291,0.029999999999999999,-0.029999999999999999,1.02
1436,1782589844324,0.029999999999999999,-0.029999999999999999,1.02
1437,1782589844391,0.029999999999999999,-0.029999999999999999,1.02
1438,1782589844458,0.029999999999999999,-0.029999999999999999,1.01
1439,1782589844574,0.029999999999999999,-0.029999999999999999,1.01
1440,1782589844625,0.029999999999999999,-0.029999999999999999,1.01
1441,1782589844691,0.029999999999999999,-0.029999999999999999,1.01
1442,1782589844707,0.029999999999999999,-0.029999999999999999,1.01
1443,1782589844725,0.029999999999999999,-0.029999999999999999,1.01
1444,1782589844775,0.029999999999999999,-0.029999999999999999,1.01
1445,1782589844858,0.029999999999999999,-0.029999999999999999,1.01
1446,1782589844907,0.029999999999999999,-0.029999999999999999,1.01
1447,1782589844940,0.029999999999999999,-0.029999999999999999,1.01
1448,1782589844974,0.029999999999999999,-0.02,1.01
1449,1782589845042,0.029999999999999999,-0.02,1.01
1450,1782589845124,0.029999999999999999,-0.02,1.01
1451,1782589845190,0.029999999999999999,-0.02,1.01
1452,1782589845257,0.029999999999999999,-0.02,1.01
1453,1782589845357,0.029999999999999999,-0.02,1.02
1454,1782589845424,0.029999999999999999,-0.029999999999999999,1.01
1455,1782589845458,0.029999999999999999,-0.029999999999999999,1.01
1456,1782589845474,0.029999999999999999,-0.029999999999999999,1.01
1457,1782589845507,0.029999999999999999,-0.029999999999999999,1.01
1458,1782589845607,0.029999999999999999,-0.029999999999999999,1.01
1459,1782589845690,0.029999999999999999,-0.029999999999999999,1.01
1460,1782589845757,0.029999999999999999,-0.029999999999999999,1.01
1461,1782589845790,0.029999999999999999,-0.029999999999999999,1.01
1462,1782589845823,0.029999999999999999,-0.029999999999999999,1.01
1463,1782589845857,0.029999999999999999,-0.029999999999999999,1.01
1464,1782589845906,0.029999999999999999,-0.029999999999999999,1.01
1465,1782589846007,0.029999999999999999,-0.029999999999999999,1.01
1466,1782589846090,0.029999999999999999,-0.029999999999999999,1.01
1467,1782589846140,0.029999999999999999,-0.029999999999999999,1.01
1468,1782589846189,0.029999999999999999,-0.029999999999999999,1.01
1469,1782589846240,0.029999999999999999,-0.029999999999999999,1.01
1470,1782589846306,0.029999999999999999,-0.029999999999999999,1.01
1471,1782589846406,0.029999999999999999,-0.029999999999999999,1.01
1472,1782589846489,0.029999999999999999,-0.029999999999999999,1.02
1473,1782589846506,0.029999999999999999,-0.029999999999999999,1.01
1474,1782589846556,0.029999999999999999,-0.029999999999999999,1.01
1475,1782589846622,0.029999999999999999,-0.029999999999999999,1.01
1476,1782589846689,0.029999999999999999,-0.029999999999999999,1.01
1477,1782589846756,0.029999999999999999,-0.029999999999999999,1.02
1478,1782589846806,0.029999999999999999,-0.029999999999999999,1.02
1479,1782589846906,0.029999999999999999,-0.029999999999999999,1.02
1480,1782589846973,0.029999999999999999,-0.029999999999999999,1.02
1481,1782589847022,0.029999999999999999,-0.029999999999999999,1.01
1482,1782589847039,0.029999999999999999,-0.029999999999999999,1.01
1483,1782589847057,0.029999999999999999,-0.029999999999999999,1.01
1484,1782589847089,0.029999999999999999,-0.029999999999999999,1.01
1485,1782589847173,0.029999999999999999,-0.029999999999999999,1.01
1486,1782589847272,0.029999999999999999,-0.029999999999999999,1.01
1487,1782589847340,0.029999999999999999,-0.029999999999999999,1.01
1488,1782589847372,0.029999999999999999,-0.029999999999999999,1.01
1489,1782589847389,0.029999999999999999,-0.029999999999999999,1.01
1490,1782589847439,0.029999999999999999,-0.029999999999999999,1.01
1491,1782589847505,0.029999999999999999,-0.029999999999999999,1.01
1492,1782589847555,0.029999999999999999,-0.029999999999999999,1.01
1493,1782589847623,0.029999999999999999,-0.029999999999999999,1.01
1494,1782589847722,0.029999999999999999,-0.029999999999999999,1.01
1495,1782589847771,0.029999999999999999,-0.029999999999999999,1.01
1496,1782589847838,0.029999999999999999,-0.029999999999999999,1.01
1497,1782589847922,0.029999999999999999,-0.029999999999999999,1.01
1498,1782589848021,0.029999999999999999,-0.029999999999999999,1.01
1499,1782589848055,0.029999999999999999,-0.029999999999999999,1.01
1500,1782589848088,0.029999999999999999,-0.029999999999999999,1.01
1501,1782589848155,0.029999999999999999,-0.029999999999999999,1.01
1502,1782589848187,0.029999999999999999,-0.029999999999999999,1.01
1503,1782589848304,0.029999999999999999,-0.029999999999999999,1.01
1504,1782589848355,0.029999999999999999,-0.029999999999999999,1.01
1505,1782589848405,0.029999999999999999,-0.029999999999999999,1.01
1506,1782589848438,0.029999999999999999,-0.029999999999999999,1.02
1507,1782589848521,0.029999999999999999,-0.029999999999999999,1.02
1508,1782589848538,0.029999999999999999,-0.029999999999999999,1.01
1509,1782589848571,0.029999999999999999,-0.029999999999999999,1.01
1510,1782589848755,0.029999999999999999,-0.029999999999999999,1.01
1511,1782589848788,0.029999999999999999,-0.029999999999999999,1.01
1512,1782589848837,0.029999999999999999,-0.029999999999999999,1.01
1513,1782589848871,0.029999999999999999,-0.029999999999999999,1.01
1514,1782589848888,0.029999999999999999,-0.029999999999999999,1.01
1515,1782589848971,0.029999999999999999,-0.029999999999999999,1.01
1516,1782589849022,0.029999999999999999,-0.029999999999999999,1.01
1517,1782589849054,0.029999999999999999,-0.029999999999999999,1.01
1518,1782589849088,0.029999999999999999,-0.029999999999999999,1.01
1519,1782589849138,0.029999999999999999,-0.029999999999999999,1.01
1520,1782589849154,0.029999999999999999,-0.029999999999999999,1.01
1521,1782589849170,0.029999999999999999,-0.029999999999999999,1.01
1522,1782589849220,0.029999999999999999,-0.029999999999999999,1.01
1523,1782589849287,0.029999999999999999,-0.029999999999999999,1.01
1524,1782589849320,0.029999999999999999,-0.029999999999999999,1.01
1525,1782589849403,0.029999999999999999,-0.029999999999999999,1.01
1526,1782589849453,0.029999999999999999,-0.029999999999999999,1.01
1527,1782589849504,0.029999999999999999,-0.029999999999999999,1.01
1528,1782589849553,0.029999999999999999,-0.029999999999999999,1.01
1529,1782589849620,0.029999999999999999,-0.029999999999999999,1.01
1530,1782589849670,0.029999999999999999,-0.029999999999999999,1.01
1531,1782589849704,0.029999999999999999,-0.029999999999999999,1.01
1532,1782589849753,0.029999999999999999,-0.029999999999999999,1.01
1533,1782589849837,0.029999999999999999,-0.029999999999999999,1.01
1534,1782589850003,0.029999999999999999,-0.029999999999999999,1.02
1535,1782589850053,0.029999999999999999,-0.029999999999999999,1.01
1536,1782589850103,0.029999999999999999,-0.029999999999999999,1.01
1537,1782589850169,0.029999999999999999,-0.029999999999999999,1.01
1538,1782589850202,0.029999999999999999,-0.029999999999999999,1.02
1539,1782589850236,0.029999999999999999,-0.029999999999999999,1.02
1540,1782589850287,0.029999999999999999,-0.029999999999999999,1.01
1541,1782589850319,0.029999999999999999,-0.029999999999999999,1.01
1542,1782589850352,0.029999999999999999,-0.029999999999999999,1.01
1543,1782589850453,0.029999999999999999,-0.029999999999999999,1.01
1544,1782589850453,0.029999999999999999,-0.029999999999999999,1.01
1545,1782589850486,0.029999999999999999,-0.029999999999999999,1.01
1546,1782589850519,0.029999999999999999,-0.029999999999999999,1.01
1547,1782589850586,0.029999999999999999,-0.029999999999999999,1.01
1548,1782589850636,0.029999999999999999,-0.029999999999999999,1.01
1549,1782589850702,0.029999999999999999,-0.029999999999999999,1.01
1550,1782589850787,0.029999999999999999,-0.029999999999999999,1.01
1551,1782589850820,0.029999999999999999,-0.029999999999999999,1.01
1552,1782589850885,0.029999999999999999,-0.029999999999999999,1.01
1553,1782589851003,0.029999999999999999,-0.029999999999999999,1.01
1554,1782589851036,0.029999999999999999,-0.029999999999999999,1.01
1555,1782589851053,0.029999999999999999,-0.029999999999999999,1.01
1556,1782589851135,0.029999999999999999,-0.029999999999999999,1.01
1557,1782589851203,0.029999999999999999,-0.029999999999999999,1.01
1558,1782589851236,0.029999999999999999,-0.029999999999999999,1.01
1559,1782589851269,0.029999999999999999,-0.029999999999999999,1.01
1560,1782589851302,0.029999999999999999,-0.029999999999999999,1.01
1561,1782589851320,0.029999999999999999,-0.029999999999999999,1.01
1562,1782589851353,0.029999999999999999,-0.029999999999999999,1.01
1563,1782589851369,0.029999999999999999,-0.029999999999999999,1.01
1564,1782589851419,0.029999999999999999,-0.029999999999999999,1.01
1565,1782589851453,0.029999999999999999,-0.029999999999999999,1.01
1566,1782589851552,0.029999999999999999,-0.029999999999999999,1.01
1567,1782589851618,0.029999999999999999,-0.029999999999999999,1.01
1568,1782589851685,0.029999999999999999,-0.029999999999999999,1.01
1569,1782589851735,0.029999999999999999,-0.029999999999999999,1.01
1570,1782589851818,0.029999999999999999,-0.029999999999999999,1.01
1571,1782589851852,0.029999999999999999,-0.029999999999999999,1.01
1572,1782589851918,0.029999999999999999,-0.029999999999999999,1.01
1573,1782589851935,0.029999999999999999,-0.029999999999999999,1.01
1574,1782589851951,0.029999999999999999,-0.029999999999999999,1.01
1575,1782589852034,0.029999999999999999,-0.029999999999999999,1.01
1576,1782589852118,0.029999999999999999,-0.029999999999999999,1.01
1577,1782589852168,0.029999999999999999,-0.029999999999999999,1.01
1578,1782589852201,0.029999999999999999,-0.029999999999999999,1.01
1579,1782589852251,0.029999999999999999,-0.029999999999999999,1.01
1580,1782589852434,0.029999999999999999,-0.029999999999999999,1.01
1581,1782589852502,0.029999999999999999,-0.029999999999999999,1.01
1582,1782589852551,0.029999999999999999,-0.029999999999999999,1.01
1583,1782589852617,0.029999999999999999,-0.029999999999999999,1.01
1584,1782589852651,0.029999999999999999,-0.029999999999999999,1.02
1585,1782589852717,0.029999999999999999,-0.029999999999999999,1.02
1586,1782589852785,0.029999999999999999,-0.029999999999999999,1.02
1587,1782589852817,0.029999999999999999,-0.029999999999999999,1.01
1588,1782589852867,0.029999999999999999,-0.029999999999999999,1.01
1589,1782589852934,0.029999999999999999,-0.029999999999999999,1.01
1590,1782589852967,0.029999999999999999,-0.029999999999999999,1.01
1591,1782589852984,0.029999999999999999,-0.029999999999999999,1.01
1592,1782589853017,0.029999999999999999,-0.029999999999999999,1.01
1593,1782589853134,0.029999999999999999,-0.029999999999999999,1.01
1594,1782589853234,0.029999999999999999,-0.029999999999999999,1.01
1595,1782589853284,0.029999999999999999,-0.029999999999999999,1.01
1596,1782589853334,0.029999999999999999,-0.029999999999999999,1.01
1597,1782589853367,0.029999999999999999,-0.029999999999999999,1.01
1598,1782589853433,0.029999999999999999,-0.029999999999999999,1.01
1599,1782589853601,0.029999999999999999,-0.029999999999999999,1.01
1600,1782589853633,0.029999999999999999,-0.029999999999999999,1.01
1601,1782589853650,0.029999999999999999,-0.029999999999999999,1.02
1602,1782589853666,0.029999999999999999,-0.029999999999999999,1.02
1603,1782589853700,0.029999999999999999,-0.029999999999999999,1.01
1604,1782589853750,0.029999999999999999,-0.029999999999999999,1.01
1605,1782589853783,0.029999999999999999,-0.029999999999999999,1.01
1606,1782589853833,0.029999999999999999,-0.029999999999999999,1.01
1607,1782589853883,0.029999999999999999,-0.029999999999999999,1.01
1608,1782589853967,0.029999999999999999,-0.029999999999999999,1.01
1609,1782589854249,0.029999999999999999,-0.029999999999999999,1.01
1610,1782589854266,0.029999999999999999,-0.029999999999999999,1.01
1611,1782589854266,0.029999999999999999,-0.029999999999999999,1.01
1612,1782589854299,0.029999999999999999,-0.029999999999999999,1.01
1613,1782589854349,0.029999999999999999,-0.029999999999999999,1.01
1614,1782589854399,0.029999999999999999,-0.029999999999999999,1.01
1615,1782589854432,0.029999999999999999,-0.029999999999999999,1.01
1616,1782589854516,0.029999999999999999,-0.029999999999999999,1.02
1617,1782589854549,0.029999999999999999,-0.029999999999999999,1.02
1618,1782589854566,0.029999999999999999,-0.029999999999999999,1.02
1619,1782589854650,0.029999999999999999,-0.029999999999999999,1.02
1620,1782589854683,0.029999999999999999,-0.029999999999999999,1.02
1621,1782589854699,0.029999999999999999,-0.029999999999999999,1.02
1622,1782589854799,0.029999999999999999,-0.029999999999999999,1.02
1623,1782589854916,0.029999999999999999,-0.029999999999999999,1.01
1624,1782589854965,0.029999999999999999,-0.029999999999999999,1.01
1625,1782589855033,0.029999999999999999,-0.029999999999999999,1.01
1626,1782589855115,0.029999999999999999,-0.029999999999999999,1.01
1627,1782589855149,0.029999999999999999,-0.029999999999999999,1.01
1628,1782589855266,0.029999999999999999,-0.029999999999999999,1.01
1629,1782589855298,0.029999999999999999,-0.029999999999999999,1.02
1630,1782589855382,0.029999999999999999,-0.029999999999999999,1.02
1631,1782589855415,0.029999999999999999,-0.029999999999999999,1.02
1632,1782589855448,0.029999999999999999,-0.029999999999999999,1.01
1633,1782589855500,0.029999999999999999,-0.029999999999999999,1.01
1634,1782589855549,0.029999999999999999,-0.029999999999999999,1.01
1635,1782589855632,0.029999999999999999,-0.029999999999999999,1.01
1636,1782589855698,0.029999999999999999,-0.029999999999999999,1.01
1637,1782589855732,0.029999999999999999,-0.029999999999999999,1.01
1638,1782589855799,0.029999999999999999,-0.029999999999999999,1.01
1639,1782589855849,0.029999999999999999,-0.029999999999999999,1.01
1640,1782589855932,0.029999999999999999,-0.029999999999999999,1.01
1641,1782589855965,0.029999999999999999,-0.029999999999999999,1.01
1642,1782589855999,0.029999999999999999,-0.029999999999999999,1.01
1643,1782589856048,0.029999999999999999,-0.029999999999999999,1.01
1644,1782589856115,0.029999999999999999,-0.029999999999999999,1.01
1645,1782589856181,0.029999999999999999,-0.029999999999999999,1.01
1646,1782589856215,0.029999999999999999,-0.029999999999999999,1.01
1647,1782589856248,0.029999999999999999,-0.029999999999999999,1.01
1648,1782589856331,0.029999999999999999,-0.029999999999999999,1.01
1649,1782589856381,0.029999999999999999,-0.029999999999999999,1.01
1650,1782589856431,0.029999999999999999,-0.029999999999999999,1.01
1651,1782589856481,0.029999999999999999,-0.029999999999999999,1.01
1652,1782589856514,0.029999999999999999,-0.029999999999999999,1.01
1653,1782589856547,0.029999999999999999,-0.029999999999999999,1.01
1654,1782589856614,0.029999999999999999,-0.029999999999999999,1.01
1655,1782589856648,0.029999999999999999,-0.029999999999999999,1.01
1656,1782589856731,0.029999999999999999,-0.029999999999999999,1.01
1657,1782589856799,0.029999999999999999,-0.029999999999999999,1.01
1658,1782589856864,0.029999999999999999,-0.029999999999999999,1.01
1659,1782589856897,0.029999999999999999,-0.029999999999999999,1.01
1660,1782589856931,0.029999999999999999,-0.029999999999999999,1.01
1661,1782589856997,0.029999999999999999,-0.029999999999999999,1.01
1662,1782589857064,0.029999999999999999,-0.029999999999999999,1.01
1663,1782589857230,0.029999999999999999,-0.029999999999999999,1.01
1664,1782589857264,0.029999999999999999,-0.029999999999999999,1.01
1665,1782589857313,0.029999999999999999,-0.029999999999999999,1.01
1666,1782589857380,0.029999999999999999,-0.029999999999999999,1.01
1667,1782589857463,0.029999999999999999,-0.029999999999999999,1.01
1668,1782589857513,0.029999999999999999,-0.029999999999999999,1.01
1669,1782589857546,0.029999999999999999,-0.029999999999999999,1.01
1670,1782589857563,0.029999999999999999,-0.029999999999999999,1.01
1671,1782589857680,0.029999999999999999,-0.029999999999999999,1.01
1672,1782589857780,0.029999999999999999,-0.029999999999999999,1.01
1673,1782589857829,0.029999999999999999,-0.029999999999999999,1.01
1674,1782589857880,0.029999999999999999,-0.029999999999999999,1.01
1675,1782589857913,0.029999999999999999,-0.029999999999999999,1.02
1676,1782589857996,0.029999999999999999,-0.029999999999999999,1.02
1677,1782589858129,0.029999999999999999,-0.029999999999999999,1.01
1678,1782589858163,0.029999999999999999,-0.029999999999999999,1.01
1679,1782589858196,0.029999999999999999,-0.029999999999999999,1.01
1680,1782589858229,0.029999999999999999,-0.029999999999999999,1.01
1681,1782589858296,0.029999999999999999,-0.029999999999999999,1.01
1682,1782589858347,0.029999999999999999,-0.029999999999999999,1.01
1683,1782589858431,0.029999999999999999,-0.029999999999999999,1.02
1684,1782589858480,0.029999999999999999,-0.029999999999999999,1.02
1685,1782589858496,0.029999999999999999,-0.029999999999999999,1.02
1686,1782589858529,0.029999999999999999,-0.029999999999999999,1.02
1687,1782589858546,0.029999999999999999,-0.029999999999999999,1.02
1688,1782589858580,0.029999999999999999,-0.029999999999999999,1.02
1689,1782589858629,0.029999999999999999,-0.029999999999999999,1.02
1690,1782589858680,0.029999999999999999,-0.029999999999999999,1.02
1691,1782589858729,0.029999999999999999,-0.029999999999999999,1.02
1692,1782589858812,0.029999999999999999,-0.029999999999999999,1.01
1693,1782589858846,0.029999999999999999,-0.029999999999999999,1.01
1694,1782589858896,0.029999999999999999,-0.029999999999999999,1.02
1695,1782589858946,0.029999999999999999,-0.029999999999999999,1.02
1696,1782589859063,0.029999999999999999,-0.029999999999999999,1.01
1697,1782589859079,0.029999999999999999,-0.029999999999999999,1.01
1698,1782589859178,0.029999999999999999,-0.029999999999999999,1.01
1699,1782589859296,0.029999999999999999,-0.029999999999999999,1.01
1700,1782589859329,0.029999999999999999,-0.029999999999999999,1.01
1701,1782589859362,0.029999999999999999,-0.029999999999999999,1.01
1702,1782589859395,0.029999999999999999,-0.029999999999999999,1.02
1703,1782589859445,0.029999999999999999,-0.029999999999999999,1.02
1704,1782589859546,0.029999999999999999,-0.029999999999999999,1.02
1705,1782589859661,0.029999999999999999,-0.029999999999999999,1.02
1706,1782589859712,0.029999999999999999,-0.029999999999999999,1.01
1707,1782589859745,0.029999999999999999,-0.029999999999999999,1.01
1708,1782589859762,0.029999999999999999,-0.029999999999999999,1.01
1709,1782589859845,0.029999999999999999,-0.029999999999999999,1.01
1710,1782589859894,0.029999999999999999,-0.029999999999999999,1.01
1711,1782589859944,0.029999999999999999,-0.029999999999999999,1.01
1712,1782589860012,0.029999999999999999,-0.029999999999999999,1.01
1713,1782589860111,0.029999999999999999,-0.029999999999999999,1.01
1714,1782589860211,0.029999999999999999,-0.029999999999999999,1.02
1715,1782589860277,0.029999999999999999,-0.029999999999999999,1.01
1716,1782589860328,0.029999999999999999,-0.029999999999999999,1.01
1717,1782589860362,0.029999999999999999,-0.029999999999999999,1.01
1718,1782589860378,0.029999999999999999,-0.029999999999999999,1.01
1719,1782589860394,0.029999999999999999,-0.029999999999999999,1.01
1720,1782589860461,0.029999999999999999,-0.029999999999999999,1.01
1721,1782589860561,0.029999999999999999,-0.029999999999999999,1.01
1722,1782589860594,0.029999999999999999,-0.029999999999999999,1.01
1723,1782589860661,0.029999999999999999,-0.029999999999999999,1.01
1724,1782589860694,0.029999999999999999,-0.029999999999999999,1.01
1725,1782589860727,0.029999999999999999,-0.029999999999999999,1.01
1726,1782589860744,0.029999999999999999,-0.029999999999999999,1.01
1727,1782589860777,0.029999999999999999,-0.029999999999999999,1.01
1728,1782589860877,0.029999999999999999,-0.029999999999999999,1.01
1729,1782589860927,0.029999999999999999,-0.029999999999999999,1.01
1730,1782589860977,0.029999999999999999,-0.029999999999999999,1.02
1731,1782589861010,0.029999999999999999,-0.029999999999999999,1.01
1732,1782589861044,0.029999999999999999,-0.029999999999999999,1.02
1733,1782589861077,0.029999999999999999,-0.029999999999999999,1.02
1734,1782589861110,0.029999999999999999,-0.029999999999999999,1.02
1735,1782589861160,0.029999999999999999,-0.029999999999999999,1.02
1736,1782589861210,0.029999999999999999,-0.029999999999999999,1.02
1737,1782589861377,0.029999999999999999,-0.029999999999999999,1.01
1738,1782589861527,0.029999999999999999,-0.029999999999999999,1.02
1739,1782589861543,0.029999999999999999,-0.029999999999999999,1.02
1740,1782589861561,0.029999999999999999,-0.029999999999999999,1.01
1741,1782589861610,0.029999999999999999,-0.029999999999999999,1.01
1742,1782589861660,0.029999999999999999,-0.029999999999999999,1.01
1743,1782589861693,0.029999999999999999,-0.029999999999999999,1.01
1744,1782589861727,0.029999999999999999,-0.029999999999999999,1.02
1745,1782589861910,0.029999999999999999,-0.029999999999999999,1.01
1746,1782589861959,0.029999999999999999,-0.029999999999999999,1.01
1747,1782589861976,0.029999999999999999,-0.029999999999999999,1.01
1748,1782589862127,0.029999999999999999,-0.029999999999999999,1.01
1749,1782589862159,0.029999999999999999,-0.029999999999999999,1.01
1750,1782589862210,0.029999999999999999,-0.029999999999999999,1.01
1751,1782589862309,0.029999999999999999,-0.029999999999999999,1.01
1752,1782589862393,0.029999999999999999,-0.029999999999999999,1.01
1753,1782589862543,0.029999999999999999,-0.029999999999999999,1.01
1754,1782589862576,0.029999999999999999,-0.029999999999999999,1.01
1755,1782589862609,0.029999999999999999,-0.029999999999999999,1.01
1756,1782589862626,0.029999999999999999,-0.029999999999999999,1.01
1757,1782589862642,0.029999999999999999,-0.029999999999999999,1.01
1758,1782589862692,0.029999999999999999,-0.029999999999999999,1.01
1759,1782589862809,0.029999999999999999,-0.029999999999999999,1.01
1760,1782589862925,0.029999999999999999,-0.029999999999999999,1.01
1761,1782589862959,0.029999999999999999,-0.029999999999999999,1.01
1762,1782589862992,0.029999999999999999,-0.029999999999999999,1.01
1763,1782589863025,0.029999999999999999,-0.029999999999999999,1.02
1764,1782589863059,0.029999999999999999,-0.029999999999999999,1.01
1765,1782589863175,0.029999999999999999,-0.029999999999999999,1.01
1766,1782589863225,0.029999999999999999,-0.029999999999999999,1.01
1767,1782589863292,0.029999999999999999,-0.029999999999999999,1.01
1768,1782589863325,0.029999999999999999,-0.029999999999999999,1.01
1769,1782589863425,0.029999999999999999,-0.029999999999999999,1.01
1770,1782589863475,0.029999999999999999,-0.029999999999999999,1.01
1771,1782589863541,0.029999999999999999,-0.029999999999999999,1.01
1772,1782589863576,0.029999999999999999,-0.029999999999999999,1.01
1773,1782589863625,0.029999999999999999,-0.029999999999999999,1.02
1774,1782589863692,0.029999999999999999,-0.029999999999999999,1.01
1775,1782589863725,0.029999999999999999,-0.029999999999999999,1.01
1776,1782589863841,0.029999999999999999,-0.029999999999999999,1.01
1777,1782589863875,0.029999999999999999,-0.029999999999999999,1.01
1778,1782589863991,0.029999999999999999,-0.029999999999999999,1.01
1779,1782589864091,0.029999999999999999,-0.029999999999999999,1.01
1780,1782589864107,0.029999999999999999,-0.029999999999999999,1.01
1781,1782589864141,0.029999999999999999,-0.029999999999999999,1.01
1782,1782589864158,0.029999999999999999,-0.029999999999999999,1.01
1783,1782589864242,0.029999999999999999,-0.029999999999999999,1.01
1784,1782589864341,0.029999999999999999,-0.029999999999999999,1.01
1785,1782589864457,0.029999999999999999,-0.029999999999999999,1.01
1786,1782589864491,0.029999999999999999,-0.029999999999999999,1.01
1787,1782589864509,0.029999999999999999,-0.029999999999999999,1.01
1788,1782589864542,0.029999999999999999,-0.029999999999999999,1.01
1789,1782589864591,0.029999999999999999,-0.029999999999999999,1.01
1790,1782589864674,0.029999999999999999,-0.029999999999999999,1.01
1791,1782589864707,0.029999999999999999,-0.029999999999999999,1.01
1792,1782589864774,0.029999999999999999,-0.029999999999999999,1.01
1793,1782589864831,0.029999999999999999,-0.029999999999999999,1.01
1794,1782589935986,0.029999999999999999,-0.029999999999999999,1.01
1795,1782589936030,0.029999999999999999,-0.029999999999999999,1.01
1796,1782589936080,0.029999999999999999,-0.029999999999999999,1.01
1797,1782589936098,0.029999999999999999,-0.029999999999999999,1.01
1798,1782589936380,0.029999999999999999,-0.029999999999999999,1.02
1799,1782589936383,0.029999999999999999,-0.029999999999999999,1.02
1800,1782589936383,0.029999999999999999,-0.029999999999999999,1.02
1801,1782589936397,0.029999999999999999,-0.029999999999999999,1.02
1802,1782589936397,0.029999999999999999,-0.029999999999999999,1.02
1803,1782589936397,0.029999999999999999,-0.029999999999999999,1.02
1804,1782589936397,0.029999999999999999,-0.029999999999999999,1.02
1805,1782589936397,0.029999999999999999,-0.029999999999999999,1.02
1806,1782589936397,0.029999999999999999,-0.029999999999999999,1.02
1807,1782589936430,0.029999999999999999,-0.029999999999999999,1.02
1808,1782589936497,0.029999999999999999,-0.029999999999999999,1.01
1809,1782589936597,0.029999999999999999,-0.029999999999999999,1.01
1810,1782589936664,0.029999999999999999,-0.029999999999999999,1.01
1811,1782589936697,0.029999999999999999,-0.029999999999999999,1.01
1812,1782589936730,0.029999999999999999,-0.029999999999999999,1.01
1813,1782589936814,0.029999999999999999,-0.029999999999999999,1.01
1814,1782589936863,0.029999999999999999,-0.029999999999999999,1.01
1815,1782589936914,0.029999999999999999,-0.029999999999999999,1.01
1816,1782589936964,0.029999999999999999,-0.029999999999999999,1.01
1817,1782589937079,0.029999999999999999,-0.029999999999999999,1.01
1818,1782589937130,0.029999999999999999,-0.029999999999999999,1.01
1819,1782589937180,0.029999999999999999,-0.029999999999999999,1.01
1820,1782589937213,0.029999999999999999,-0.029999999999999999,1.01
1821,1782589937379,0.029999999999999999,-0.029999999999999999,1.01
1822,1782589937446,0.029999999999999999,-0.029999999999999999,1.01
1823,1782589937496,0.029999999999999999,-0.029999999999999999,1.01
1824,1782589937546,0.029999999999999999,-0.02,1.01
1825,1782589937597,0.029999999999999999,-0.02,1.01
1826,1782589937613,0.029999999999999999,-0.029999999999999999,1.01
1827,1782589937663,0.029999999999999999,-0.029999999999999999,1.01
1828,1782589937729,0.029999999999999999,-0.029999999999999999,1.01
1829,1782589937747,0.029999999999999999,-0.029999999999999999,1.01
1830,1782589937829,0.029999999999999999,-0.029999999999999999,1.01
1831,1782589937912,0.029999999999999999,-0.029999999999999999,1.01
1832,1782589937962,0.029999999999999999,-0.029999999999999999,1.01
1833,1782589937995,0.029999999999999999,-0.029999999999999999,1.01
1834,1782589938064,0.029999999999999999,-0.040000000000000001,1.01
1835,1782589938130,0.029999999999999999,-0.040000000000000001,1.01
1836,1782589938179,0.029999999999999999,-0.040000000000000001,1.02
1837,1782589938246,0.029999999999999999,-0.040000000000000001,1.02
1838,1782589938313,0.040000000000000001,-0.040000000000000001,1.02
1839,1782589938395,0.029999999999999999,-0.029999999999999999,1.02
1840,1782589938446,0.029999999999999999,-0.029999999999999999,1.02
1841,1782589938479,0.029999999999999999,-0.029999999999999999,1.02
1842,1782589938546,0.029999999999999999,-0.029999999999999999,1.02
1843,1782589938579,0.029999999999999999,-0.02,1.01
1844,1782589938612,0.029999999999999999,-0.02,1.01
1845,1782589938629,0.029999999999999999,-0.02,1.01
1846,1782589938645,0.029999999999999999,-0.02,1.01
1847,1782589938696,0.029999999999999999,-0.02,1.01
1848,1782589938761,0.029999999999999999,-0.02,1.02
1849,1782589938861,0.029999999999999999,-0.02,1.02
1850,1782589938895,0.029999999999999999,-0.029999999999999999,1.02
1851,1782589938928,0.029999999999999999,-0.029999999999999999,1.02
1852,1782589938961,0.029999999999999999,-0.029999999999999999,1.01
1853,1782589939028,0.029999999999999999,-0.029999999999999999,1.01
1854,1782589939061,0.029999999999999999,-0.029999999999999999,1.01
1855,1782589939161,0.029999999999999999,-0.029999999999999999,1.01
1856,1782589939228,0.029999999999999999,-0.02,1.01
1857,1782589939294,0.029999999999999999,-0.02,1.01
1858,1782589939345,0.029999999999999999,-0.02,1.01
1859,1782589939428,0.029999999999999999,-0.02,1.01
1860,1782589939511,0.029999999999999999,-0.02,1.01
1861,1782589939544,0.029999999999999999,-0.02,1.01
1862,1782589939578,0.029999999999999999,-0.02,1.01
1863,1782589939628,0.029999999999999999,-0.02,1.01
1864,1782589939678,0.02,-0.029999999999999999,1.01
1865,1782589939744,0.02,-0.029999999999999999,1.01
1866,1782589939811,0.02,-0.029999999999999999,1.02
1867,1782589939877,0.029999999999999999,-0.029999999999999999,1.02
1868,1782589939994,0.02,-0.029999999999999999,1.01
1869,1782589940044,0.02,-0.029999999999999999,1.01
1870,1782589940111,0.02,-0.029999999999999999,1.01
1871,1782589940228,0.029999999999999999,-0.029999999999999999,1.01
1872,1782589940277,0.029999999999999999,-0.029999999999999999,1.01
1873,1782589940377,0.029999999999999999,-0.029999999999999999,1.01
1874,1782589940493,0.029999999999999999,-0.029999999999999999,1.01
1875,1782589940544,0.029999999999999999,-0.029999999999999999,1.01
1876,1782589940593,0.029999999999999999,-0.029999999999999999,1.01
1877,1782589940610,0.029999999999999999,-0.029999999999999999,1.01
1878,1782589940660,0.029999999999999999,-0.029999999999999999,1.01
1879,1782589940710,0.029999999999999999,-0.029999999999999999,1.01
1880,1782589940743,0.029999999999999999,-0.029999999999999999,1.02
1881,1782589940777,0.029999999999999999,-0.029999999999999999,1.02
1882,1782589940793,0.029999999999999999,-0.029999999999999999,1.02
1883,1782589940810,0.029999999999999999,-0.029999999999999999,1.02
1884,1782589940843,0.029999999999999999,-0.029999999999999999,1.02
1885,1782589940893,0.029999999999999999,-0.029999999999999999,1.02
1886,1782589940943,0.029999999999999999,-0.029999999999999999,1.01
1887,1782589941009,0.029999999999999999,-0.029999999999999999,1.01
1888,1782589941043,0.029999999999999999,-0.029999999999999999,1.01
1889,1782589941093,0.029999999999999999,-0.029999999999999999,1.02
1890,1782589941127,0.029999999999999999,-0.029999999999999999,1.02
1891,1782589941210,0.029999999999999999,-0.029999999999999999,1.02
1892,1782589941343,0.029999999999999999,-0.029999999999999999,1.01
1893,1782589941426,0.029999999999999999,-0.029999999999999999,1.01
1894,1782589941476,0.029999999999999999,-0.029999999999999999,1.01
1895,1782589941492,0.029999999999999999,-0.029999999999999999,1.01
1896,1782589941526,0.029999999999999999,-0.029999999999999999,1.01
1897,1782589941626,0.029999999999999999,-0.029999999999999999,1.01
1898,1782589941709,0.029999999999999999,-0.029999999999999999,1.01
1899,1782589941776,0.029999999999999999,-0.02,1.01
1900,1782589941809,0.029999999999999999,-0.02,1.01
1901,1782589941876,0.029999999999999999,-0.029999999999999999,1.02
1902,1782589941976,0.029999999999999999,-0.02,1.02
1903,1782589942143,0.040000000000000001,-0.029999999999999999,1.01
1904,1782589942159,0.040000000000000001,-0.029999999999999999,1.01
1905,1782589942208,0.040000000000000001,-0.029999999999999999,1.01
1906,1782589942225,0.040000000000000001,-0.029999999999999999,1.01
1907,1782589942242,0.040000000000000001,-0.02,1.01
1908,1782589942359,0.02,-0.040000000000000001,1.01
1909,1782589942525,0.02,-0.029999999999999999,1.02
1910,1782589942558,0.029999999999999999,-0.029999999999999999,1.02
1911,1782589942625,0.029999999999999999,-0.029999999999999999,1.01
1912,1782589942725,0.029999999999999999,-0.029999999999999999,1.01
1913,1782589942808,0.029999999999999999,-0.029999999999999999,1.01
1914,1782589942942,0.029999999999999999,-0.02,1.01
1915,1782589943024,0.029999999999999999,-0.029999999999999999,1.01
1916,1782589943075,0.029999999999999999,-0.02,1.01
1917,1782589943108,0.029999999999999999,-0.02,1.02
1918,1782589943124,0.029999999999999999,-0.029999999999999999,1.02
1919,1782589943141,0.029999999999999999,-0.029999999999999999,1.02
1920,1782589943175,0.029999999999999999,-0.029999999999999999,1.02
1921,1782589943208,0.029999999999999999,-0.029999999999999999,1.02
1922,1782589943258,0.029999999999999999,-0.029999999999999999,1.02
1923,1782589943307,0.029999999999999999,-0.029999999999999999,1.02
1924,1782589943375,0.029999999999999999,-0.029999999999999999,1.01
1925,1782589943424,0.029999999999999999,-0.029999999999999999,1.01
1926,1782589943441,0.029999999999999999,-0.029999999999999999,1.01
1927,1782589943508,0.029999999999999999,-0.029999999999999999,1.02
1928,1782589943691,0.029999999999999999,-0.029999999999999999,1.02
1929,1782589943724,0.029999999999999999,-0.029999999999999999,1.01
1930,1782589943741,0.029999999999999999,-0.029999999999999999,1.01
1931,1782589943757,0.029999999999999999,-0.029999999999999999,1.01
1932,1782589943790,0.029999999999999999,-0.029999999999999999,1.01
1933,1782589943824,0.029999999999999999,-0.029999999999999999,1.01
1934,1782589943958,0.029999999999999999,-0.029999999999999999,1.01
1935,1782589944024,0.029999999999999999,-0.029999999999999999,1.01
1936,1782589944090,0.029999999999999999,-0.029999999999999999,1.01
1937,1782589944157,0.029999999999999999,-0.029999999999999999,1.01
1938,1782589944174,0.029999999999999999,-0.029999999999999999,1.01
1939,1782589944240,0.029999999999999999,-0.029999999999999999,1.01
1940,1782589944324,0.029999999999999999,-0.029999999999999999,1.01
1941,1782589944407,0.040000000000000001,-0.029999999999999999,1.01
1942,1782589944441,0.029999999999999999,-0.029999999999999999,1.01
1943,1782589944457,0.029999999999999999,-0.029999999999999999,1.01
1944,1782589944474,0.029999999999999999,-0.029999999999999999,1.01
1945,1782589944590,0.029999999999999999,-0.029999999999999999,1.01
1946,1782589944723,0.029999999999999999,-0.029999999999999999,1.01
1947,1782589944791,0.029999999999999999,-0.029999999999999999,1.01
1948,1782589944840,0.029999999999999999,-0.029999999999999999,1.01
1949,1782589944856,0.029999999999999999,-0.029999999999999999,1.02
1950,1782589944890,0.029999999999999999,-0.029999999999999999,1.02
1951,1782589944923,0.029999999999999999,-0.029999999999999999,1.01
1952,1782589944957,0.029999999999999999,-0.029999999999999999,1.01
1953,1782589945073,0.029999999999999999,-0.029999999999999999,1.01
1954,1782589945123,0.029999999999999999,-0.029999999999999999,1.01
1955,1782589945156,0.029999999999999999,-0.029999999999999999,1.01
1956,1782589945223,0.029999999999999999,-0.029999999999999999,1.01
1957,1782589945241,0.029999999999999999,-0.029999999999999999,1.01
1958,1782589945306,0.029999999999999999,-0.029999999999999999,1.01
1959,1782589945489,0.029999999999999999,-0.029999999999999999,1.01
1960,1782589945523,0.029999999999999999,-0.029999999999999999,1.01
1961,1782589945539,0.029999999999999999,-0.029999999999999999,1.01
1962,1782589945589,0.029999999999999999,-0.029999999999999999,1.01
1963,1782589945656,0.029999999999999999,-0.029999999999999999,1.01
1964,1782589945689,0.029999999999999999,-0.029999999999999999,1.01
1965,1782589945806,0.029999999999999999,-0.029999999999999999,1.01
1966,1782589945856,0.029999999999999999,-0.029999999999999999,1.01
1967,1782589945922,0.029999999999999999,-0.029999999999999999,1.01
1968,1782589945955,0.029999999999999999,-0.029999999999999999,1.01
1969,1782589946023,0.029999999999999999,-0.029999999999999999,1.02
1970,1782589946039,0.029999999999999999,-0.029999999999999999,1.02
1971,1782589946072,0.029999999999999999,-0.029999999999999999,1.02
1972,1782589946105,0.029999999999999999,-0.029999999999999999,1.01
1973,1782589946222,0.029999999999999999,-0.029999999999999999,1.01
