index,date,ACCEL_X,ACCEL_Y,ACCEL_Z
0,1780263789651,3,-9,1
1,1780263789651,7,-9,2
2,1780263789668,3,-5,-4
3,1780263789902,5,-12,-2
4,1780263790884,4,-11,0
5,1780263791050,7,-11,0
6,1780263791100,7,-10,-1
7,1780263791400,5,-8,-2
8,1780263792435,9,-11,2
9,1780263793267,6,-11,0
10,1780263793384,5,-8,-1
11,1780263793918,8,-12,-2
12,1780263796484,6,-9,-1
13,1780263798018,5,-10,-2
14,1780263798884,6,-10,-2
15,1780263800417,6,-10,-1
16,1780263800718,6,-11,-2
17,1780263800916,6,-11,-1
18,1780263801801,6,-10,-1
19,1780263802583,6,-11,-1
20,1780263803017,7,-11,0
21,1780263803367,5,-10,0
22,1780263804050,4,-9,-2
23,1780263805017,6,-9,-1
24,1780263805300,8,-10,0
25,1780263805551,8,-10,0
26,1780263805716,6,-9,-1
27,1780263806050,7,-10,0
28,1780263806219,6,-9,0
29,1780263806250,7,-10,-1
30,1780263806750,5,-10,0
31,1780263808449,5,-11,-2
32,1780263809083,6,-10,-1
33,1780263809483,6,-11,-2
34,1780263810067,6,-9,-1
35,1780263810483,3,-10,0
36,1780263811634,4,-9,0
37,1780263812182,6,-11,0
38,1780263812366,6,-11,-1
39,1780263813285,6,-11,-1
40,1780263813882,6,-12,0
41,1780263819167,7,-10,-1
42,1780263819915,7,-10,-1
43,1780263820082,4,-10,-1
44,1780263820249,6,-10,-1
45,1780263820299,5,-10,-1
46,1780263820765,6,-10,-1
47,1780263821582,7,-9,-1
48,1780263823350,6,-9,-1
49,1780263823515,6,-10,-1
50,1780263824465,5,-11,-2
51,1780263824932,5,-10,-1
52,1780263825648,7,-9,-1
53,1780263827599,6,-10,-2
54,1780263828049,7,-10,-1
55,1780263828383,5,-9,-1
56,1780263828949,-1,0,6584
57,1780263829932,5,-7,-2
58,1780263830782,4,-10,0
59,1780263831532,3,-9,-2
60,1780263832149,8,-10,-1
61,1780263832815,7,-10,-1
62,1780263833148,6,-11,-1
63,1780263834098,8,-11,0
64,1780263836032,5,-11,-2
65,1780263836500,6,-10,-1
66,1780263836864,6,-11,-1
67,1780263837231,6,-11,-1
68,1780263837598,7,-9,-1
69,1780263838498,7,-10,-1
70,1780263840715,6,-11,0
71,1780263840765,6,-9,0
72,1780263841015,5,-9,-1
73,1780263841598,4,-10,0
74,1780263841766,5,-11,-2
75,1780263842032,9,-14,0
76,1780263843214,7,-12,-1
77,1780263844149,6,-11,-1
78,1780263845098,4,-9,-1
79,1780263845814,6,-9,-1
80,1780263846781,4,-10,-1
81,1780263851265,6,-9,-2
82,1780263851664,8,-12,-4
83,1780263851781,6,-10,0
84,1780263852781,7,-9,-1
85,1780263854014,6,-10,-1
86,1780263854714,0,-4,-2
87,1780263855163,7,-9,-1
88,1780263855463,0,0,-1
89,1780263856348,6,-11,-1
90,1780263856713,8,-13,-1
91,1780263857430,8,-11,0
92,1780263858213,7,-12,-2
93,1780263858547,1,-11,-1
94,1780263859497,2,-10,-1
95,1780263860197,7,-11,-1
96,1780263860781,7,-11,-2
97,1780263861097,5,-10,-2
98,1780263862381,8,-8,-2
99,1780263862865,5,-7,-1
100,1780263863997,7,-14,-4
101,1780263864398,5,-9,0
102,1780263864564,6,-10,-1
103,1780263864982,7,-10,0
104,1780263866247,-2,0,0
105,1780263866496,9,-7,-1
106,1780263866829,5,-7,-3
107,1780263867363,6,-10,-1
108,1780263868764,6,-9,0
109,1780263868881,7,-10,-2
110,1780263868964,6,-8,0
111,1780263869164,7,-8,-2
112,1780263869413,5,-11,-2
113,1780263869829,6,-9,-2
114,1780263869963,6,-10,-1
115,1780263870196,7,-10,-1
116,1780263870980,7,-9,-1
117,1780263871563,6,-11,0
118,1780263871847,6,-11,-1
119,1780263872215,5,-10,-1
120,1780263874247,5,-12,0
121,1780263874779,7,-11,-1
122,1780263875479,7,-9,0
123,1780263876762,7,-10,-1
124,1780263876796,6,-11,0
125,1780263877829,6,-11,-2
126,1780263878031,6,-10,-1
127,1780263878163,6,-11,-1
128,1780263878896,7,-9,0
129,1780263880096,3,-10,-1
130,1780263880962,8,-10,-1
131,1780263883396,9,-11,-1
132,1780263884012,9,-14,0
133,1780263885829,7,-12,-1
134,1780263886032,4,-9,255
135,1780263886280,5,-9,-1
136,1780263886862,4,-9,-1
137,1780263887063,7,-11,-1
138,1780263887228,4,-10,-1
139,1780263887446,7,-11,-3
140,1780263888879,11,-10,0
141,1780263889662,5,-7,-2
142,1780263889829,8,-10,0
143,1780263889962,1,-10,-3
144,1780263890896,9,-10,0
145,1780263892262,5,-11,0
146,1780263894262,2,-10,0
147,1780263895178,8,-9,1
148,1780263896029,7,-11,-1
149,1780263897063,5,-11,0
150,1780263898712,6,-11,-3
151,1780263899495,6,-9,0
152,1780263900194,4,-12,0
153,1780263900763,5,-13,-1
154,1780263900844,6,-11,-1
155,1780263901546,6,-10,-1
156,1780263901961,4,-11,-1
157,1780263902795,5,-9,-1
158,1780263903611,-255,0,414
159,1780263904477,3,-7,0
160,1780263904659,3,-11,-1
161,1780263905177,9,-10,0
162,1780263905261,6,-11,-2
163,1780263907445,4,-10,-1
164,1780263907578,6,-10,-1
165,1780263907778,12,-12,1
166,1780263907828,7,-19,-3
167,1780263908111,2,-8,-1
168,1780263908310,6,-9,0
169,1780263908779,5,-12,0
170,1780263909394,8,-13,0
171,1780263909761,4,-7,-3
172,1780263910627,3,-9,-1
173,1780263911078,3,-12,-1
174,1780263911212,8,-11,-3
175,1780263911610,9,-13,0
176,1780263912077,8,-9,1
177,1780263912894,6,-9,-2
178,1780263913228,5,-9,-1
179,1780263913345,5,-10,-2
180,1780263914510,8,-10,-1
181,1780263915827,3,-7,1
182,1780263916443,9,-7,-6
183,1780263916527,1,-11,0
184,1780263916694,6,-15,0
185,1780263917560,5,-5,2
186,1780263917810,5,-10,1
187,1780263918010,5,-11,-2
188,1780263920643,6,-9,-1
189,1780263920727,7,-9,-1
190,1780263921111,5,-11,-1
191,1780263921226,7,-11,0
192,1780263921344,1,-5,-2
193,1780263921394,6,-14,-6
194,1780263922626,14,-9,0
195,1780263922710,21,-23,-5
196,1780263923159,2,-14,-2
197,1780263923910,-6,1,-2
198,1780263924643,24,-43,-17
199,1780263925810,6,-12,-1
200,1780263926176,5,-10,-1
201,1780263926510,7,-9,0
202,1780263926928,7,-9,-1
203,1780263927743,2,-1,-2
204,1780263928561,33,-33,-1
205,1780263930677,-36,18,-21
206,1780263930926,-7,-8,-5
207,1780263931293,30,-41,12
208,1780263932076,-46,-35,-14
209,1780263935042,6,27,-14
210,1780263936110,-272,107,-62
211,1780263936242,-62,12,-12
212,1780263936693,-8,-10,-7
213,1780263937276,36,-14,-2
214,1780263937727,-2,-14,-5
215,1780263938959,23,-13,3
216,1780263939161,13,-20,-7
217,1780263940110,3,0,11
218,1780263940859,20,10,18
219,1780263941512,32,-25,3
220,1780263941676,29,-19,-3
221,1780263942143,15,-16,1
222,1780263943010,-26,12,-3
223,1780263943161,27,-11,5
224,1780263944076,-10,-10,-10
225,1780263944193,-8,18,-10
226,1780263944359,34,-31,10
227,1780263944659,45,-18,-7
228,1780263944776,-19,8,5
229,1780263945192,160,115,-24
230,1780263945926,-27,-1,-26
231,1780263946342,-18,-9,1
232,1780263946592,33,-29,4
233,1780263947125,7,-4,9
234,1780263950092,32,-14,1
235,1780263950310,-21,6,3
236,1780263950560,40,-22,-1
237,1780263951093,1,-13,-2
238,1780263952278,-2,-10,-8
239,1780263952442,7,0,48
240,1780263954225,12,-8,-6
241,1780263954475,-27,0,-16
242,1780263957308,6,-10,2
243,1780263957608,10,-2,-10
244,1780263958841,39,-32,11
245,1780263959175,23,-15,-2
246,1780263960125,5,246,-2
247,1780263960158,4,-17,-1
248,1780263961241,9,-16,4
249,1780263961324,-12,-15,-8
250,1780263961608,51,-15,5
251,1780263962642,19,-30,1
252,1780263962758,11,-21,-7
253,1780263962924,0,1,-4
254,1780263963091,-6,-8,-2
255,1780263963624,-6,-1,-2
256,1780263964491,-15,-7,-6
257,1780263965774,34,-22,-9
258,1780263966109,73,-66,30
259,1780263968857,-10,-3,5
260,1780263969074,6,-17,2
261,1780263969557,29,-50,-6
262,1780263970841,-11,-4,-18
263,1780263970890,7,-9,1
264,1780263971874,9,-22,-4
265,1780263972040,7,-12,-1
266,1780263975757,5,-13,-3
267,1780263975874,1,-9,2
268,1780263976574,4,-8,-1
269,1780263976740,16,-13,3
270,1780263978107,67,-49,-25
271,1780263978474,37,-52,15
272,1780263978723,30,-21,-254
273,1780263979341,-33,8,-9
274,1780263979541,67,-51,21
275,1780263980040,27,-12,5
276,1780263980740,-1,-5,-1
277,1780263981856,8,-8,4
278,1780263982274,-11,1,-3
279,1780263982840,2,0,3
280,1780263983007,-8,-11,-4
281,1780263984373,8,-15,5
282,1780263984707,5,-11,-2
283,1780263984990,2,-7,-2
284,1780263985356,6,-1,1
285,1780263987307,13,-7,1
286,1780263987506,8,-12,1
287,1780263988174,6,-10,-1
288,1780263988406,7,-9,-2
289,1780263989041,-7,2,-3
290,1780263989439,-9,-5,-3
291,1780263990473,7,-5,-5
292,1780263990639,1,-10,0
293,1780263992206,-31,4,7
294,1780263992956,-26,-5,2
295,1780263993990,7,-10,0
296,1780263994094,8,-10,-2
297,1780263994689,7,-10,0
298,1780263994806,8,-11,-1
299,1780263995755,6,-10,-1
300,1780263995956,5,-8,-2
301,1780263996656,6,-8,0
302,1780263996739,6,-10,0
303,1780263996789,7,-9,-2
304,1780263997656,5,-12,-1
305,1780263997823,3,-8,-1
306,1780263998973,5,-9,-2
307,1780263999223,9,-11,-1
308,1780264000956,6,-10,-2
309,1780264003256,6,-12,-2
310,1780264003389,7,-11,-1
311,1780264003756,7,-8,-2
312,1780264006440,4,-10,-1
313,1780264007222,21,-16,3
314,1780264007922,9,-11,-2
315,1780264008122,9,-9,-2
316,1780264008872,11,-9,0
317,1780264009039,7,-6,-1
318,1780264010157,1,-5,0
319,1780264011055,2,-6,-2
320,1780264011838,-4,-6,-2
321,1780264011921,5,-10,-1
322,1780264012456,2,-3,6
323,1780264012823,-12,5,2
324,1780264013205,24,-16,-3
325,1780264013456,-1,-11,0
326,1780264014407,4,-13,-9
327,1780264014555,-16,-10,1
328,1780264015387,-2,-8,11
329,1780264015471,-5,-4,-1
330,1780264016672,0,-3,7
331,1780264017622,7,-14,23
332,1780264018104,24,-44,11
333,1780264019422,36,-7,28
334,1780264020205,13,-11,-8
335,1780264020421,-10,-7,-2
336,1780264020837,16,-5,14
337,1780264021154,0,-7,1
338,1780264022405,4,11,10
339,1780264022887,13,2,1
340,1780264023805,3,-9,5
341,1780264024254,17,-17,-2
342,1780264024289,19,-13,-6
343,1780264025371,34,-44,2
344,1780264026188,28,-12,2
345,1780264026438,7,-9,3
346,1780264026488,-1,-3,-20
347,1780264026771,7,-12,-5
348,1780264027137,51,-16,7
349,1780264027304,22,-13,-4
350,1780264027920,14,-9,5
351,1780264028387,-16,-2,1
352,1780264029620,-6,-5,-4
353,1780264029820,7,-16,2
354,1780264030971,-1,-18,0
355,1780264031270,3,-10,-5
356,1780264031471,6,-12,-2
357,1780264031553,8,-11,2
358,1780264032171,5,-8,-1
359,1780264033487,1,-7,-3
360,1780264034153,4,-10,-1
361,1780264034570,-7,-5,1
362,1780264035136,3,-7,0
363,1780264035436,7,-10,-1
364,1780264036503,7,-11,-1
365,1780264036553,6,-9,0
366,1780264037787,6,-10,-1
367,1780264038570,18,-17,2
368,1780264038986,6,-10,-2
369,1780264039187,6,-10,-2
370,1780264040503,7,-10,0
371,1780264040704,8,-10,0
372,1780264042603,6,-12,-3
373,1780264042686,12,-14,-1
374,1780264043637,6,-10,-2
375,1780264044503,8,-10,-2
376,1780264045453,5,-9,255
377,1780264045570,3,-12,-2
378,1780264045953,6,-8,-1
379,1780264046437,7,-10,-1
380,1780264046536,7,-13,-2
381,1780264046936,5,-10,-1
382,1780264047270,9,-9,-1
383,1780264047386,8,-10,0
384,1780264049369,6,-11,-1
385,1780264049736,5,-9,-1
386,1780264049820,4,-8,-2
387,1780264050637,8,-7,-1
388,1780264052520,5,-9,-2
389,1780264053804,9,-11,0
390,1780264054136,5,-10,-1
391,1780264054219,5,-9,-2
392,1780264056419,6,-10,0
393,1780264057103,8,-11,0
394,1780264057570,2,-11,-3
395,1780264058786,7,-10,-1
396,1780264105083,8,-9,-1
397,1780264107033,6,-10,0
398,1780264107483,7,-11,-2
399,1780264107851,6,-10,-2
400,1780264108067,7,-10,-1
401,1780264108800,7,-12,-2
402,1780264109382,6,-12,-2
403,1780264109516,7,-10,-1
404,1780264109750,7,-12,-2
405,1780264111150,4,-11,-1
406,1780264111732,5,-10,0
407,1780264112233,5,-10,-2
408,1780264113099,8,-11,-1
409,1780264114533,5,-11,-2
410,1780264115001,8,-10,-1
411,1780264115316,6,-11,-1
412,1780264115699,6,-10,-2
413,1780264115852,5,-10,-1
414,1780264116018,7,-10,-1
415,1780264116966,7,-9,-1
416,1780264117382,5,-11,-1
417,1780264117666,7,-11,-1
418,1780264118615,7,-10,-1
419,1780264119616,8,-10,-1
420,1780264120965,5,-10,-1
421,1780264122616,5,-9,0
422,1780264122785,7,-12,-1
423,1780264123566,4,-9,0
424,1780264124031,13,-17,-6
425,1780264124232,5,-10,-1
426,1780264126548,7,-11,-2
427,1780264127282,6,-11,-2
428,1780264127482,7,-10,-2
429,1780264129015,5,-11,-1
430,1780264129298,5,-11,0
431,1780264129381,6,-10,-1
432,1780264129765,7,-10,-2
433,1780264130082,6,-10,-1
434,1780264131281,7,-11,-1
435,1780264132515,6,-9,-2
436,1780264133798,7,-10,-1
437,1780264136031,6,-10,-1
438,1780264137065,7,-9,-1
439,1780264137181,5,-9,-2
440,1780264138632,6,-10,-1
441,1780264139198,8,-11,-1
442,1780264139814,6,-10,0
443,1780264140280,6,-9,-2
444,1780264140647,7,-9,0
445,1780264141631,6,-8,0
446,1780264142464,5,-12,-2
447,1780264143115,5,-11,-2
448,1780264143732,4,-10,-1
449,1780264144516,5,-10,0
450,1780264144731,6,-9,-2
451,1780264146131,-1,0,6722
452,1780264146414,7,-9,-1
453,1780264146498,6,-10,-1
454,1780264146882,5,-9,-1
455,1780264147447,6,-10,-1
456,1780264148231,7,-10,-1
457,1780264148814,5,-10,-1
458,1780264149264,6,-10,0
459,1780264150099,7,-8,-1
460,1780264150250,8,-12,-2
461,1780264151616,4,-8,-1
462,1780264152481,6,-9,-2
463,1780264152814,8,-9,0
464,1780264153680,6,-14,0
465,1780264154214,6,-10,-2
466,1780264154747,7,-10,-1
467,1780264155163,7,-9,-1
468,1780264155297,7,-11,-2
469,1780264157847,6,-12,-2
470,1780264157881,6,-9,0
471,1780264158013,7,-9,0
472,1780264158348,5,-10,-1
473,1780264158546,6,-10,0
474,1780264159131,6,-9,-1
475,1780264160280,5,-11,0
476,1780264161347,8,-10,0
477,1780264161814,6,-10,-1
478,1780264162296,5,-9,-2
479,1780264162380,6,-10,0
480,1780264162963,7,-10,0
481,1780264163381,8,-11,0
482,1780264163413,7,-11,-1
483,1780264164362,5,-10,-1
