index,date,GYRO_X,GYRO_Y,GYRO_Z
0,1782580170170,0.20999999999999999,-0.48999999999999999,0
1,1782580170187,0.20999999999999999,-0.48999999999999999,0
2,1782580170204,0.14000000000000001,-0.48999999999999999,0.070000000000000007
3,1782580170270,0.14000000000000001,-0.48999999999999999,0.070000000000000007
4,1782580170820,0.20999999999999999,-0.48999999999999999,0
5,1782580170886,0.28000000000000003,-0.41999999999999998,0
6,1782580170952,0.20999999999999999,-0.48999999999999999,0
7,1782580170986,0.20999999999999999,-0.48999999999999999,0
8,1782580171036,0.20999999999999999,-0.48999999999999999,0
9,1782580171102,0.20999999999999999,-0.48999999999999999,0
10,1782580171152,0.14000000000000001,-0.48999999999999999,0.070000000000000007
11,1782580171186,0.20999999999999999,-0.48999999999999999,0
12,1782580171202,0.20999999999999999,-0.48999999999999999,0
13,1782580171219,0.28000000000000003,-0.48999999999999999,0
14,1782580171253,0.28000000000000003,-0.48999999999999999,0
15,1782580171302,0.20999999999999999,-0.56000000000000005,0
16,1782580171337,0.20999999999999999,-0.56000000000000005,0
17,1782580171386,0.20999999999999999,-0.56000000000000005,0
18,1782580171452,0.20999999999999999,-0.48999999999999999,0
19,1782580171502,0.14000000000000001,-0.56000000000000005,0
20,1782580171536,0.14000000000000001,-0.56000000000000005,-0.070000000000000007
21,1782580171602,0.14000000000000001,-0.56000000000000005,0
22,1782580171653,0.14000000000000001,-0.48999999999999999,0.070000000000000007
23,1782580171703,0.14000000000000001,-0.41999999999999998,0.070000000000000007
24,1782580171737,0.14000000000000001,-0.41999999999999998,0.070000000000000007
25,1782580171752,0.28000000000000003,-0.34999999999999998,0.070000000000000007
26,1782580171769,0.34999999999999998,-0.34999999999999998,0.070000000000000007
27,1782580171802,0.20999999999999999,-0.34999999999999998,0.070000000000000007
28,1782580171820,0.28000000000000003,-0.63,0
29,1782580171869,0.34999999999999998,-0.56000000000000005,0
30,1782580403407,4.4100000000000001,4.6900000000000004,50.68
31,1782580403475,4.4100000000000001,4.6900000000000004,50.68
32,1782580403508,4.4100000000000001,1.6100000000000001,49.560000000000002
33,1782580403540,6.79,1.3300000000000001,47.530000000000001
34,1782580403557,6.79,-0.48999999999999999,45.710000000000001
35,1782580403608,5.5999999999999996,-1.96,58.869999999999997
36,1782580403657,5.46,0.63,59.5
37,1782580403723,5.46,7.8399999999999999,62.299999999999997
38,1782580403773,4.2699999999999996,8.6799999999999997,64.049999999999997
39,1782580403824,4.2699999999999996,8.6799999999999997,65.799999999999997
40,1782580403873,4.2699999999999996,10.359999999999999,65.799999999999997
41,1782580403907,0,10.359999999999999,64.959999999999994
42,1782580403974,4.2000000000000002,-16.870000000000001,49.280000000000001
43,1782580404024,3.0800000000000001,-10.779999999999999,49.280000000000001
44,1782580404056,3.0800000000000001,-10.779999999999999,52.57
45,1782580404073,3.0800000000000001,-10.779999999999999,52.710000000000001
46,1782580404091,1.47,-8.1199999999999992,57.119999999999997
47,1782580404140,1.47,-8.1199999999999992,58.030000000000001
48,1782580404224,0.77000000000000002,-1.26,61.25
49,1782580404273,5.46,-1.75,61.25
50,1782580404357,4.6900000000000004,-1.75,61.25
51,1782580404473,4.2000000000000002,-5.6699999999999999,67.340000000000003
52,1782580404523,1.8200000000000001,-1.8899999999999999,67.340000000000003
53,1782580404590,2.8700000000000001,-5.1799999999999997,67.340000000000003
54,1782580404623,2.8700000000000001,-5.1799999999999997,66.569999999999993
55,1782580404673,3.9199999999999999,1.54,39.619999999999997
56,1782580404739,0.48999999999999999,1.54,42.490000000000002
57,1782580404789,0.28000000000000003,0.56000000000000005,44.520000000000003
58,1782580404839,-0.77000000000000002,-2.3100000000000001,44.729999999999997
59,1782580404922,-0.77000000000000002,-3.1499999999999999,45.079999999999998
60,1782580404972,7.4199999999999999,2.0299999999999998,40.109999999999999
61,1782580405056,7.3499999999999996,3.3599999999999999,40.109999999999999
62,1782580405139,7.3499999999999996,6.5099999999999998,40.740000000000002
63,1782580405189,1.3999999999999999,0.77000000000000002,38.009999999999998
64,1782580405223,0,-3.1499999999999999,37.939999999999998
65,1782580405289,-0.28000000000000003,-6.2300000000000004,37.520000000000003
66,1782580405373,-0.28000000000000003,-6.2300000000000004,34.649999999999999
67,1782580405422,0,-6.2300000000000004,33.32
68,1782580405455,-1.3300000000000001,0.34999999999999998,28.140000000000001
69,1782580405506,-1.1200000000000001,0.34999999999999998,28.629999999999999
70,1782580405572,-1.1200000000000001,2.3799999999999999,28.91
71,1782580405622,0.070000000000000007,2.3799999999999999,28.91
72,1782580405672,0.070000000000000007,2.3799999999999999,29.399999999999999
73,1782580405705,6.79,-2.1000000000000001,25.27
74,1782580405722,-0.91000000000000003,-2.1000000000000001,25.199999999999999
75,1782580405756,-3.29,-1.1200000000000001,24.57
76,1782580405871,-3.29,-2.1000000000000001,22.68
77,1782580405921,-3.29,-0.77000000000000002,22.539999999999999
78,1782580405956,4.4800000000000004,1.47,11.9
79,1782580406005,1.3300000000000001,1.75,11.970000000000001
80,1782580406055,-2.1699999999999999,1.75,11.970000000000001
81,1782580406138,-6.5099999999999998,1.1899999999999999,12.039999999999999
82,1782580406221,-6.5099999999999998,1.1899999999999999,12.25
83,1782580406254,-6.5099999999999998,1.47,12.25
84,1782580406271,5.5300000000000002,1.47,12.25
85,1782580406305,1.3300000000000001,-0.83999999999999997,12.109999999999999
86,1782580406338,0.91000000000000003,-0.83999999999999997,10.5
87,1782580406371,0.14000000000000001,-0.48999999999999999,10.5
88,1782580406405,-0.63,-0.48999999999999999,10.43
89,1782580406455,-0.63,-1.75,10.289999999999999
90,1782580406488,-0.77000000000000002,-3.3599999999999999,10.289999999999999
91,1782580406604,3.3599999999999999,1.05,9.2400000000000002
92,1782580406671,3.3599999999999999,1.05,9.1699999999999999
93,1782580406705,2.3799999999999999,1.05,9.1699999999999999
94,1782580406738,2.3799999999999999,1.05,9.1699999999999999
95,1782580406755,2.3799999999999999,1.05,9.1699999999999999
96,1782580406872,-8.1199999999999992,-1.8899999999999999,13.02
97,1782580406955,-8.1199999999999992,-1.8899999999999999,13.300000000000001
98,1782580407039,-3.5699999999999998,0.20999999999999999,13.51
99,1782580407120,4.7599999999999998,-2.52,22.539999999999999
100,1782580407171,2.5899999999999999,-2.8700000000000001,22.609999999999999
101,1782580407371,1.8899999999999999,-0.070000000000000007,24.710000000000001
102,1782580407405,1.8899999999999999,3.2200000000000002,24.640000000000001
103,1782580407437,1.8899999999999999,3.2200000000000002,23.940000000000001
104,1782580407487,1.8899999999999999,3.2200000000000002,23.030000000000001
105,1782580407537,2.1699999999999999,3.6400000000000001,22.609999999999999
106,1782580407604,-0.41999999999999998,-0.91000000000000003,22.399999999999999
107,1782580407654,-1.6799999999999999,-2.73,22.399999999999999
108,1782580407720,-1.6799999999999999,-2.7999999999999998,22.399999999999999
109,1782580407738,-0.41999999999999998,-2.7999999999999998,22.260000000000002
110,1782580407770,0.56000000000000005,-3.9900000000000002,22.050000000000001
111,1782580407821,0.56000000000000005,-3.9900000000000002,21.140000000000001
112,1782580407920,4.3399999999999999,-2.1000000000000001,4.9000000000000004
113,1782580407970,4.2699999999999996,-2.1000000000000001,4.8300000000000001
114,1782580408087,3.5,-2.9399999999999999,3.9199999999999999
115,1782580408120,-1.05,-1.54,-13.859999999999999
116,1782580408220,-2.3799999999999999,-1.54,-15.19
117,1782580408286,-3.2200000000000002,-2.5899999999999999,-15.19
118,1782580408337,1.54,-1.6100000000000001,-20.859999999999999
119,1782580408404,0.34999999999999998,-1.6100000000000001,-21.84
120,1782580408453,0.20999999999999999,-1.6100000000000001,-22.539999999999999
121,1782580408486,0.20999999999999999,0.91000000000000003,-23.030000000000001
122,1782580408537,0.20999999999999999,0.91000000000000003,-23.170000000000002
123,1782580408586,0.20999999999999999,1.3300000000000001,-23.170000000000002
124,1782580408622,-1.05,1.3300000000000001,-22.539999999999999
125,1782580408703,-0.14000000000000001,-1.6799999999999999,-27.370000000000001
126,1782580408753,-0.14000000000000001,-1.75,-27.789999999999999
127,1782580408802,-0.14000000000000001,-2.3799999999999999,-28.280000000000001
128,1782580408869,-0.14000000000000001,-2.3799999999999999,-28.420000000000002
129,1782580408919,0.83999999999999997,0.56000000000000005,-26.530000000000001
130,1782580408986,0.83999999999999997,0.56000000000000005,-26.460000000000001
131,1782580409019,0.83999999999999997,-0.20999999999999999,-26.25
132,1782580409069,0.63,-0.34999999999999998,-26.109999999999999
133,1782580409119,-1.54,-1.54,-26.109999999999999
134,1782580409203,-2.2400000000000002,0.63,-21.77
135,1782580409319,-2.2400000000000002,0.63,-21.489999999999998
136,1782580409352,-2.2400000000000002,3.3599999999999999,-21.350000000000001
137,1782580409385,-2.3799999999999999,0.63,-20.93
138,1782580409402,-2.3799999999999999,-1.47,-19.949999999999999
139,1782580409419,-1.05,-1.47,-19.949999999999999
140,1782580409469,-3.8500000000000001,-7.9800000000000004,-12.67
141,1782580409535,-3.8500000000000001,-8.6099999999999994,-13.300000000000001
142,1782580409668,-1.75,-8.6099999999999994,-13.65
143,1782580409702,-0.63,-0.34999999999999998,-8.1199999999999992
144,1782580409785,0.56000000000000005,-2.0299999999999998,-8.1199999999999992
145,1782580409901,-0.63,-2.0299999999999998,-9.0299999999999994
146,1782580409934,0.97999999999999998,-3.71,-11.130000000000001
147,1782580410001,1.47,-3.71,-9.0999999999999996
148,1782580410018,1.47,-3.71,-7.1399999999999997
149,1782580410035,1.47,0.20999999999999999,-5.8799999999999999
150,1782580410085,-3.2200000000000002,-0.28000000000000003,-5.5300000000000002
151,1782580410151,-5.9500000000000002,-0.28000000000000003,-5.04
152,1782580410218,4.1299999999999999,8.4700000000000006,-5.6699999999999999
153,1782580410285,4.1299999999999999,8.4700000000000006,-6.5099999999999998
154,1782580410351,3.5,7.4900000000000002,-6.5099999999999998
155,1782580410385,3.5,3.8500000000000001,-6.5099999999999998
156,1782580410418,0.56000000000000005,3.5,-5.1100000000000003
157,1782580410436,0.14000000000000001,-1.3999999999999999,-3.0800000000000001
158,1782580410452,-2.4500000000000002,-9.4499999999999993,1.96
159,1782580410484,3.0099999999999998,-0.48999999999999999,-14.140000000000001
160,1782580410586,3.0099999999999998,-0.14000000000000001,-12.109999999999999
161,1782580410668,6.5099999999999998,-0.14000000000000001,-11.34
162,1782580410735,4.7599999999999998,0.83999999999999997,-8.6799999999999997
163,1782580410785,4.4800000000000004,1.47,-8.6099999999999994
164,1782580410851,2.8700000000000001,2.2400000000000002,-151.97
165,1782580410951,0.41999999999999998,2.7999999999999998,-8.6099999999999994
166,1782580411000,-1.6100000000000001,0.83999999999999997,-6.8600000000000003
167,1782580411034,-4.5499999999999998,2.3100000000000001,-6.9299999999999997
168,1782580411102,-3.0800000000000001,4.9000000000000004,-6.6500000000000004
169,1782580411135,-1.54,2.2400000000000002,-6.0899999999999999
170,1782580411201,-2.52,1.75,-6.0899999999999999
171,1782580411236,-2.52,1.75,-6.0899999999999999
172,1782580411284,-2.52,1.75,-6.0899999999999999
173,1782580411484,0.20999999999999999,-2.0299999999999998,-8.2599999999999998
174,1782580411518,0.20999999999999999,-2.0299999999999998,-8.1899999999999995
175,1782580411566,-0.070000000000000007,-2.0299999999999998,-8.1199999999999992
176,1782580411684,1.3999999999999999,1.96,-8.1899999999999995
177,1782580411767,-0.77000000000000002,2.1000000000000001,-8.1899999999999995
178,1782580411817,-3.29,2.1000000000000001,-7
179,1782580411916,0.48999999999999999,-0.20999999999999999,-3.2200000000000002
180,1782580411933,3.2200000000000002,0.070000000000000007,-3.2200000000000002
181,1782580412033,3.2200000000000002,0.070000000000000007,-3.0800000000000001
182,1782580412183,-2.3799999999999999,-1.3300000000000001,4.0599999999999996
183,1782580412234,-1.1899999999999999,-2.0299999999999998,4.3399999999999999
184,1782580412250,-0.91000000000000003,-1.3300000000000001,4.4800000000000004
185,1782580412267,0.48999999999999999,-0.56000000000000005,5.1799999999999997
186,1782580412300,1.54,-0.63,5.3899999999999997
187,1782580412450,0,-1.54,14.56
188,1782580412517,0,-0.97999999999999998,14.91
189,1782580412584,0,-0.97999999999999998,15.82
190,1782580412618,0,-2.0299999999999998,15.82
191,1782580412669,-2.3799999999999999,0.070000000000000007,26.670000000000002
192,1782580412767,-2.5899999999999999,0.070000000000000007,27.16
193,1782580412816,-2.5899999999999999,-0.77000000000000002,28.140000000000001
194,1782580412866,-2.5899999999999999,-0.48999999999999999,29.260000000000002
195,1782580412949,-0.34999999999999998,-2.3100000000000001,35.979999999999997
196,1782580413066,-0.34999999999999998,-2.52,36.960000000000001
197,1782580413116,0.91000000000000003,-4.7599999999999998,37.520000000000003
198,1782580413166,3.3599999999999999,0.97999999999999998,37.869999999999997
199,1782580413199,3.3599999999999999,0.97999999999999998,37.869999999999997
200,1782580413232,3.1499999999999999,0.97999999999999998,37.869999999999997
201,1782580413250,0.41999999999999998,-0.070000000000000007,37.869999999999997
202,1782580413299,0.20999999999999999,-0.070000000000000007,38.219999999999999
203,1782580413366,-0.56000000000000005,-0.070000000000000007,38.009999999999998
204,1782580413432,0.20999999999999999,-0.28000000000000003,38.009999999999998
205,1782580413466,1.6100000000000001,-1.26,38.219999999999999
206,1782580413482,-0.20999999999999999,-0.34999999999999998,38.149999999999999
207,1782580413499,-0.20999999999999999,-0.41999999999999998,38.219999999999999
208,1782580413583,-0.20999999999999999,-0.41999999999999998,38.219999999999999
209,1782580413649,0.34999999999999998,-0.41999999999999998,38.219999999999999
210,1782580413715,0.34999999999999998,-0.41999999999999998,38.219999999999999
211,1782580413749,0.48999999999999999,-0.41999999999999998,38.219999999999999
212,1782580413849,1.47,-0.56000000000000005,34.649999999999999
213,1782580413899,0.41999999999999998,-0.56000000000000005,34.649999999999999
214,1782580413967,0.41999999999999998,-0.56000000000000005,34.649999999999999
215,1782580414015,1.47,-0.56000000000000005,34.299999999999997
216,1782580414031,-1.05,-0.28000000000000003,33.18
217,1782580414082,-1.05,0.97999999999999998,33.18
218,1782580414148,-1.05,-0.28000000000000003,33.18
219,1782580414165,-0.83999999999999997,-0.63,32.619999999999997
220,1782580414182,2.1699999999999999,-0.28000000000000003,32.479999999999997
221,1782580414282,2.1699999999999999,-1.47,32.270000000000003
222,1782580414331,0.69999999999999996,0.41999999999999998,30.73
223,1782580414414,2.52,0.41999999999999998,30.59
224,1782580414482,2.52,-1.54,30.59
225,1782580414565,1.47,-1.96,30.239999999999998
226,1782580414614,0.97999999999999998,-5.25,30.170000000000002
227,1782580414664,0.63,-5.25,29.68
228,1782580414715,0.63,-3.1499999999999999,29.609999999999999
229,1782580414765,1.47,-3.1499999999999999,29.609999999999999
230,1782580414864,1.3300000000000001,-1.1899999999999999,26.530000000000001
231,1782580414915,1.75,-1.1899999999999999,26.530000000000001
232,1782580414981,1.75,-1.1899999999999999,26.739999999999998
233,1782580415014,1.6100000000000001,-0.69999999999999996,26.809999999999999
234,1782580415114,2.0299999999999998,0.41999999999999998,23.379999999999999
235,1782580415164,2.0299999999999998,-0.28000000000000003,23.030000000000001
236,1782580415232,1.96,-0.28000000000000003,22.890000000000001
237,1782580415280,1.3999999999999999,-0.77000000000000002,22.890000000000001
238,1782580415414,0.28000000000000003,-0.56000000000000005,18.829999999999998
239,1782580415481,0.28000000000000003,0.48999999999999999,18.829999999999998
240,1782580415530,0.28000000000000003,0.48999999999999999,18.829999999999998
241,1782580415547,0.070000000000000007,0.91000000000000003,18.690000000000001
242,1782580415631,1.47,0.56000000000000005,9.0999999999999996
243,1782580415680,3.29,-0.41999999999999998,9.0999999999999996
244,1782580415731,3.29,-1.05,9.0999999999999996
245,1782580415780,3.29,-4.2000000000000002,9.7300000000000004
246,1782580415881,0.91000000000000003,-4.2000000000000002,10.289999999999999
247,1782580415946,1.05,9.3800000000000008,4.5499999999999998
248,1782580415963,-3.3599999999999999,9.3800000000000008,9.5199999999999996
249,1782580415996,-4.9000000000000004,-9.5899999999999999,9.8000000000000007
250,1782580416013,-5.25,-9.5899999999999999,9.8000000000000007
251,1782580416046,-5.25,-8.8900000000000006,9.8000000000000007
252,1782580416131,-3.1499999999999999,-8.8900000000000006,7.7699999999999996
253,1782580416179,0.83999999999999997,-0.34999999999999998,6.7199999999999998
254,1782580416230,-5.8799999999999999,-2.7999999999999998,12.039999999999999
255,1782580416248,-5.25,-1.8200000000000001,12.039999999999999
256,1782580416280,-1.6100000000000001,-0.69999999999999996,11.34
257,1782580416314,-0.070000000000000007,2.0299999999999998,9.6600000000000001
258,1782580416380,-0.070000000000000007,2.1000000000000001,8.75
259,1782580416446,-0.070000000000000007,2.1000000000000001,7.2800000000000002
260,1782580416480,-1.1899999999999999,0.69999999999999996,9.3100000000000005
261,1782580416547,-1.1899999999999999,1.3999999999999999,9.3100000000000005
262,1782580416663,-1.1899999999999999,0.63,9.1699999999999999
263,1782580416680,-0.91000000000000003,-0.97999999999999998,9.0299999999999994
264,1782580416763,0.20999999999999999,-0.34999999999999998,8.2599999999999998
265,1782580416830,-0.48999999999999999,-0.48999999999999999,8.4000000000000004
266,1782580416862,-0.91000000000000003,-0.48999999999999999,8.6099999999999994
267,1782580416930,-0.48999999999999999,-1.47,8.6099999999999994
268,1782580416996,2.3799999999999999,-0.63,9.2400000000000002
269,1782580417079,1.1899999999999999,-0.63,9.2400000000000002
270,1782580417129,1.1899999999999999,-1.47,9.3100000000000005
271,1782580417162,0.91000000000000003,-1.47,9.5199999999999996
272,1782580417247,3.29,-0.63,10.08
273,1782580417280,3.29,-0.63,10.15
274,1782580417329,-1.3999999999999999,-1.75,10.15
275,1782580417379,-1.75,-1.96,10.15
276,1782580417412,-1.75,-1.96,10.359999999999999
277,1782580417512,1.05,-0.28000000000000003,12.039999999999999
278,1782580417595,1.05,-1.1200000000000001,12.18
279,1782580417678,0.83999999999999997,-0.28000000000000003,12.74
280,1782580417764,0.91000000000000003,0.48999999999999999,13.859999999999999
281,1782580417812,0.69999999999999996,0.63,13.789999999999999
282,1782580417878,0.48999999999999999,0.48999999999999999,13.789999999999999
283,1782580417929,0.28000000000000003,0.63,13.789999999999999
284,1782580417980,-0.34999999999999998,0.63,13.789999999999999
285,1782580418028,1.75,-0.20999999999999999,12.6
286,1782580418162,1.75,-0.20999999999999999,11.970000000000001
287,1782580418195,0.83999999999999997,-0.48999999999999999,11.83
288,1782580418262,0.41999999999999998,-0.48999999999999999,11.83
289,1782580418328,-0.20999999999999999,-0.20999999999999999,10.5
290,1782580418396,0.56000000000000005,0,10.289999999999999
291,1782580418445,1.6799999999999999,0,10.08
292,1782580418494,1.8200000000000001,0,10.08
293,1782580418545,1.8200000000000001,0,9.6600000000000001
294,1782580418611,1.8200000000000001,-0.77000000000000002,9.5899999999999999
295,1782580418646,-0.69999999999999996,-0.77000000000000002,7.8399999999999999
296,1782580418745,-0.69999999999999996,-0.77000000000000002,7.6299999999999999
297,1782580418794,0.69999999999999996,-0.91000000000000003,7.4900000000000002
298,1782580418911,0.69999999999999996,-0.97999999999999998,6.2999999999999998
299,1782580418978,0.69999999999999996,-0.97999999999999998,6.2300000000000004
300,1782580419095,0.070000000000000007,-1.1899999999999999,6.1600000000000001
301,1782580419194,0.34999999999999998,-0.69999999999999996,5.1799999999999997
302,1782580419228,0.63,-0.63,5.1799999999999997
303,1782580419311,0.91000000000000003,-0.48999999999999999,5.1100000000000003
304,1782580419328,0.91000000000000003,-0.14000000000000001,4.9699999999999998
305,1782580419362,0.91000000000000003,-0.070000000000000007,4.9000000000000004
306,1782580419395,0.83999999999999997,0.48999999999999999,4.2000000000000002
307,1782580419444,0.83999999999999997,0.48999999999999999,4.2000000000000002
308,1782580419494,0.63,0.48999999999999999,4.2000000000000002
309,1782580419560,0.56000000000000005,0.48999999999999999,4.2000000000000002
310,1782580419612,0.63,0.41999999999999998,3.8500000000000001
311,1782580419661,-0.20999999999999999,-0.63,2.1000000000000001
312,1782580419711,0,-0.97999999999999998,1.47
313,1782580419760,0,-0.97999999999999998,1.1899999999999999
314,1782580419860,0.41999999999999998,-0.97999999999999998,0.91000000000000003
315,1782580419911,0.28000000000000003,-0.77000000000000002,0.41999999999999998
316,1782580419945,0.20999999999999999,-0.91000000000000003,0.28000000000000003
317,1782580420011,0.20999999999999999,-0.77000000000000002,0.070000000000000007
318,1782580420043,0.20999999999999999,-0.77000000000000002,0
319,1782580420177,1.26,-5.04,-1.54
320,1782580420211,5.1799999999999997,-5.04,-0.14000000000000001
321,1782580420293,5.1799999999999997,-4.8300000000000001,2.52
322,1782580420328,5.1799999999999997,-4.5499999999999998,4.9000000000000004
323,1782580420360,2.2400000000000002,-4.5499999999999998,5.46
324,1782580420393,1.75,-2.0299999999999998,7.2800000000000002
325,1782580420443,0.070000000000000007,-0.34999999999999998,6.2999999999999998
326,1782580420494,-0.070000000000000007,0,7.1399999999999997
327,1782580420526,-0.070000000000000007,1.1200000000000001,7.1399999999999997
328,1782580420594,0.070000000000000007,1.6799999999999999,7.1399999999999997
329,1782580420744,-0.20999999999999999,-1.05,3.0099999999999998
330,1782580420793,-0.14000000000000001,-1.26,2.8700000000000001
331,1782580420809,-0.070000000000000007,-1.26,2.5899999999999999
332,1782580420826,0,-1.26,2.3100000000000001
333,1782580420844,0.63,-1.05,2.1699999999999999
334,1782580420877,0.63,-0.83999999999999997,2.1000000000000001
335,1782580420911,0.63,-0.28000000000000003,1.8899999999999999
336,1782580420976,0.34999999999999998,-0.28000000000000003,1.75
337,1782580421092,-0.070000000000000007,-0.14000000000000001,0.41999999999999998
338,1782580421111,0.070000000000000007,-0.20999999999999999,0.34999999999999998
339,1782580421143,0.14000000000000001,-0.20999999999999999,0.14000000000000001
340,1782580421176,0.34999999999999998,-0.34999999999999998,0
341,1782580421243,0.34999999999999998,-0.48999999999999999,-0.14000000000000001
342,1782580421310,0.20999999999999999,-0.56000000000000005,-0.48999999999999999
343,1782580421409,0.20999999999999999,-0.34999999999999998,-0.48999999999999999
344,1782580421443,0.20999999999999999,-0.28000000000000003,-0.34999999999999998
345,1782580421510,0.28000000000000003,-0.28000000000000003,-0.20999999999999999
346,1782580421544,0.28000000000000003,-0.48999999999999999,0
347,1782580421609,0.28000000000000003,-0.48999999999999999,0
348,1782580421675,0.20999999999999999,-0.48999999999999999,0.070000000000000007
349,1782580421759,0.20999999999999999,-0.48999999999999999,0.070000000000000007
350,1782580421775,0.14000000000000001,-0.63,0.070000000000000007
351,1782580421808,0.14000000000000001,-0.56000000000000005,0.070000000000000007
352,1782580421825,0.14000000000000001,-0.56000000000000005,0.070000000000000007
353,1782580421875,0.14000000000000001,-0.48999999999999999,0.070000000000000007
354,1782580421925,0.14000000000000001,-0.48999999999999999,0.070000000000000007
355,1782580422026,0.14000000000000001,-0.48999999999999999,0.070000000000000007
356,1782580422141,0.20999999999999999,-0.48999999999999999,0
357,1782580422158,0.14000000000000001,-0.48999999999999999,0
358,1782580422209,0.20999999999999999,-0.48999999999999999,0
359,1782580422242,0.20999999999999999,-0.48999999999999999,0.070000000000000007
360,1782580422276,0.20999999999999999,-0.48999999999999999,0.070000000000000007
361,1782580422375,0.20999999999999999,-0.56000000000000005,0.070000000000000007
362,1782580422493,0.20999999999999999,-0.56000000000000005,0.070000000000000007
363,1782580422542,0.20999999999999999,-0.56000000000000005,0.070000000000000007
364,1782580422625,0.20999999999999999,-0.56000000000000005,0.070000000000000007
365,1782580422659,0.20999999999999999,-0.56000000000000005,0.070000000000000007
366,1782580422792,0.20999999999999999,-0.48999999999999999,0.070000000000000007
367,1782580422808,0.20999999999999999,-0.56000000000000005,0.070000000000000007
368,1782580422825,0.20999999999999999,-0.48999999999999999,0
369,1782580422858,0.20999999999999999,-0.48999999999999999,0.070000000000000007
370,1782580422891,0.20999999999999999,-0.48999999999999999,0.070000000000000007
371,1782580422959,0.20999999999999999,-0.48999999999999999,0.070000000000000007
372,1782580423058,0.28000000000000003,-0.48999999999999999,0
373,1782580423108,0.14000000000000001,-0.56000000000000005,0.070000000000000007
374,1782580423124,0.14000000000000001,-0.48999999999999999,0.070000000000000007
375,1782580423191,0.14000000000000001,-0.56000000000000005,0.070000000000000007
376,1782580423224,0.20999999999999999,-0.48999999999999999,0
377,1782580423290,0.28000000000000003,-0.48999999999999999,0
378,1782580423359,0.28000000000000003,-0.56000000000000005,0
379,1782580423408,0.28000000000000003,-0.56000000000000005,0
380,1782580423473,0.20999999999999999,-0.41999999999999998,0.070000000000000007
381,1782580423558,0.20999999999999999,-0.41999999999999998,0.070000000000000007
382,1782580423640,0.14000000000000001,-0.48999999999999999,0.070000000000000007
383,1782580423708,0.20999999999999999,-0.48999999999999999,0
384,1782580423757,0.20999999999999999,-0.48999999999999999,0
385,1782580423791,0.20999999999999999,-0.48999999999999999,0
386,1782580423807,0.20999999999999999,-0.48999999999999999,0
387,1782580423841,0.20999999999999999,-0.48999999999999999,0
388,1782580423925,0.28000000000000003,-0.56000000000000005,0.070000000000000007
389,1782580424007,0.14000000000000001,-0.56000000000000005,0.070000000000000007
390,1782580424058,0.070000000000000007,-0.56000000000000005,0.070000000000000007
391,1782580424125,0.070000000000000007,-0.41999999999999998,0.070000000000000007
392,1782580424191,0.14000000000000001,-0.41999999999999998,-0.070000000000000007
393,1782580424273,0.14000000000000001,-0.48999999999999999,-0.070000000000000007
394,1782580424357,0.28000000000000003,-0.48999999999999999,-0.070000000000000007
395,1782580424407,0.28000000000000003,-0.83999999999999997,0
396,1782580424423,0.20999999999999999,-0.56000000000000005,-0.070000000000000007
397,1782580424457,0.20999999999999999,-0.56000000000000005,-0.070000000000000007
398,1782580424507,0.20999999999999999,-0.56000000000000005,-0.070000000000000007
399,1782580424641,0.20999999999999999,-0.56000000000000005,-0.070000000000000007
400,1782580424673,0.20999999999999999,-0.48999999999999999,0.070000000000000007
401,1782580424757,0.20999999999999999,-0.56000000000000005,0.070000000000000007
402,1782580424774,0.20999999999999999,-0.56000000000000005,0.070000000000000007
403,1782580424807,0.20999999999999999,-0.56000000000000005,0
404,1782580424841,0.20999999999999999,-0.56000000000000005,0
405,1782580424857,0.20999999999999999,-0.56000000000000005,0
406,1782580424957,0.20999999999999999,-0.56000000000000005,0
407,1782580425057,0.20999999999999999,-0.56000000000000005,0
408,1782580425106,0.20999999999999999,-0.56000000000000005,0
409,1782580425156,0.20999999999999999,-0.56000000000000005,0
410,1782580425189,0.20999999999999999,-0.56000000000000005,0.070000000000000007
411,1782580425255,0.20999999999999999,-0.56000000000000005,0.070000000000000007
412,1782580425339,0.14000000000000001,-0.56000000000000005,0.070000000000000007
413,1782580425423,0.14000000000000001,-0.56000000000000005,0.070000000000000007
414,1782580425489,0.20999999999999999,-0.48999999999999999,0
415,1782580425556,0.20999999999999999,-0.48999999999999999,0
416,1782580425606,0.20999999999999999,-0.56000000000000005,0
417,1782580425656,0.20999999999999999,-0.63,0
418,1782580425706,0.20999999999999999,-0.63,0
419,1782580425773,0.14000000000000001,-0.56000000000000005,0
420,1782580425855,0.28000000000000003,-0.56000000000000005,0
421,1782580425905,0.20999999999999999,-0.56000000000000005,0
422,1782580425972,0.14000000000000001,-0.56000000000000005,0
423,1782580426006,0.14000000000000001,-0.56000000000000005,0
424,1782580426122,0.20999999999999999,-0.56000000000000005,0
425,1782580426205,0.20999999999999999,-0.48999999999999999,0
426,1782580426305,0.14000000000000001,-0.56000000000000005,0
427,1782580426355,0.14000000000000001,-0.56000000000000005,0
428,1782580426372,0.14000000000000001,-0.56000000000000005,0
429,1782580426388,0.20999999999999999,-0.56000000000000005,0
430,1782580426422,0.20999999999999999,-0.56000000000000005,0.070000000000000007
431,1782580426489,0.20999999999999999,-0.48999999999999999,0.070000000000000007
432,1782580426622,0.28000000000000003,-0.56000000000000005,0
433,1782580426705,0.28000000000000003,-0.56000000000000005,0
434,1782580426739,0.28000000000000003,-0.56000000000000005,0.070000000000000007
435,1782580426854,0.28000000000000003,-0.56000000000000005,0
436,1782580427005,0.20999999999999999,-0.48999999999999999,0
437,1782580427071,0.28000000000000003,-0.56000000000000005,0
438,1782580427138,0.34999999999999998,-0.48999999999999999,0
439,1782580427205,0.34999999999999998,-0.48999999999999999,0
440,1782580427355,0.28000000000000003,-0.56000000000000005,0
441,1782580427404,0.28000000000000003,-0.56000000000000005,0
442,1782580427489,0.20999999999999999,-0.56000000000000005,0
443,1782580427504,0.20999999999999999,-0.56000000000000005,0
444,1782580427521,0.20999999999999999,-0.48999999999999999,0
445,1782580427588,0.28000000000000003,-0.56000000000000005,-0.070000000000000007
446,1782580427687,0.28000000000000003,-0.56000000000000005,0
447,1782580427754,0.28000000000000003,-0.56000000000000005,0
448,1782580427804,0.20999999999999999,-0.48999999999999999,0
449,1782580427870,0.20999999999999999,-0.41999999999999998,0
450,1782580427921,0.20999999999999999,-0.41999999999999998,0
451,1782580427987,0.20999999999999999,-0.41999999999999998,0
452,1782580428037,0.20999999999999999,-0.56000000000000005,0
453,1782580428120,0.20999999999999999,-0.56000000000000005,0
454,1782580428170,0.20999999999999999,-0.48999999999999999,0
455,1782580428221,0.20999999999999999,-0.56000000000000005,0
456,1782580428304,0.20999999999999999,-0.56000000000000005,0.070000000000000007
457,1782580428370,0.20999999999999999,-0.48999999999999999,0.070000000000000007
458,1782580428403,0.20999999999999999,-0.48999999999999999,0
459,1782580428471,0.20999999999999999,-0.48999999999999999,0
460,1782580428587,0.20999999999999999,-0.48999999999999999,0.070000000000000007
461,1782580428654,0.28000000000000003,-0.56000000000000005,0.070000000000000007
462,1782580428703,0.28000000000000003,-0.48999999999999999,0
463,1782580428737,0.28000000000000003,-0.48999999999999999,0.070000000000000007
464,1782580428769,0.28000000000000003,-0.48999999999999999,0
465,1782580428820,0.20999999999999999,-0.34999999999999998,0
466,1782580428987,0.20999999999999999,-0.34999999999999998,0.070000000000000007
467,1782580429069,0.20999999999999999,-0.34999999999999998,0.070000000000000007
468,1782580429121,0.20999999999999999,-0.34999999999999998,0.070000000000000007
469,1782580429137,0.20999999999999999,-0.56000000000000005,0
470,1782580429186,0.20999999999999999,-0.56000000000000005,0
471,1782580429370,0.14000000000000001,-0.56000000000000005,0
472,1782580429470,0.20999999999999999,-0.48999999999999999,0
473,1782580429537,0.20999999999999999,-0.56000000000000005,0
474,1782580429736,0.20999999999999999,-0.56000000000000005,0.070000000000000007
475,1782580429769,0.14000000000000001,-0.56000000000000005,0.070000000000000007
476,1782580429786,0.14000000000000001,-0.56000000000000005,0.070000000000000007
477,1782580429803,0.14000000000000001,-0.56000000000000005,0.070000000000000007
478,1782580429820,0.14000000000000001,-0.56000000000000005,0.070000000000000007
479,1782580429870,0.34999999999999998,-0.56000000000000005,0.070000000000000007
480,1782580429952,0.34999999999999998,-0.56000000000000005,0
481,1782580430052,0.34999999999999998,-0.56000000000000005,0
482,1782580430152,0.34999999999999998,-0.41999999999999998,0
483,1782580430185,0.14000000000000001,-0.48999999999999999,0
484,1782580430252,0.14000000000000001,-0.48999999999999999,0.20999999999999999
485,1782580430351,0.34999999999999998,-0.48999999999999999,0.20999999999999999
486,1782580430418,0.34999999999999998,-0.48999999999999999,0.20999999999999999
487,1782580430468,0.28000000000000003,-0.41999999999999998,0.20999999999999999
488,1782580430518,0.28000000000000003,-0.41999999999999998,0.20999999999999999
489,1782580430568,0.28000000000000003,-0.69999999999999996,0.14000000000000001
490,1782580430635,0.34999999999999998,-0.56000000000000005,0.20999999999999999
491,1782580430669,0.41999999999999998,-0.56000000000000005,0.14000000000000001
492,1782580430734,0.41999999999999998,-0.56000000000000005,0.14000000000000001
493,1782580430885,0.20999999999999999,-0.56000000000000005,0
494,1782580430934,0.20999999999999999,-0.48999999999999999,0
495,1782580431001,0.20999999999999999,-0.41999999999999998,0.14000000000000001
496,1782580431034,0.28000000000000003,-0.41999999999999998,0.070000000000000007
497,1782580431117,0.20999999999999999,-0.41999999999999998,-0.14000000000000001
498,1782580431251,0.34999999999999998,-0.56000000000000005,0
499,1782580431267,0.34999999999999998,-0.56000000000000005,0
500,1782580431284,0.34999999999999998,-0.56000000000000005,0
501,1782580431317,0.34999999999999998,-0.63,0
502,1782580431351,0.34999999999999998,-0.63,0
503,1782580431385,0.28000000000000003,-0.63,0
504,1782580431617,0.28000000000000003,-0.56000000000000005,0
505,1782580431667,0.28000000000000003,-0.56000000000000005,0
506,1782580431700,0.28000000000000003,-0.56000000000000005,0
507,1782580431717,0.28000000000000003,-0.56000000000000005,0.070000000000000007
508,1782580431735,0.28000000000000003,-0.48999999999999999,0.070000000000000007
509,1782580431767,0.14000000000000001,-0.48999999999999999,0.070000000000000007
510,1782580431867,0.14000000000000001,-0.48999999999999999,0.070000000000000007
511,1782580431950,0.14000000000000001,-0.48999999999999999,0
512,1782580432001,0.14000000000000001,-0.48999999999999999,0
513,1782580432083,0.20999999999999999,-0.56000000000000005,0.070000000000000007
514,1782580432183,0.14000000000000001,-0.56000000000000005,0.070000000000000007
515,1782580432250,0.14000000000000001,-0.56000000000000005,0.070000000000000007
516,1782580432266,0.28000000000000003,-0.56000000000000005,0.070000000000000007
517,1782580432300,0.28000000000000003,-0.56000000000000005,0.070000000000000007
518,1782580432316,0.20999999999999999,-0.48999999999999999,0.070000000000000007
519,1782580432350,0.20999999999999999,-0.48999999999999999,0.070000000000000007
520,1782580432367,0.20999999999999999,-0.56000000000000005,0.070000000000000007
521,1782580432466,0.14000000000000001,-0.56000000000000005,0.070000000000000007
522,1782580432549,0.20999999999999999,-0.56000000000000005,0
523,1782580432617,0.20999999999999999,-0.56000000000000005,0
524,1782580432682,0.14000000000000001,-0.48999999999999999,0
525,1782580432716,0.14000000000000001,-0.48999999999999999,0
526,1782580432749,0.14000000000000001,-0.48999999999999999,0
527,1782580432782,0.14000000000000001,-0.48999999999999999,0.070000000000000007
528,1782580432882,0.20999999999999999,-0.48999999999999999,0
529,1782580432917,0.20999999999999999,-0.48999999999999999,0
530,1782580432934,0.20999999999999999,-0.48999999999999999,0
531,1782580432966,0.20999999999999999,-0.48999999999999999,0
532,1782580432982,0.20999999999999999,-0.48999999999999999,0
533,1782580433000,0.14000000000000001,-0.48999999999999999,0
534,1782580433066,0.14000000000000001,-0.56000000000000005,0
535,1782580433099,0.14000000000000001,-0.56000000000000005,0
536,1782580433149,0.20999999999999999,-0.48999999999999999,0.070000000000000007
537,1782580433201,0.20999999999999999,-0.48999999999999999,0.070000000000000007
538,1782580433267,0.20999999999999999,-0.48999999999999999,0.070000000000000007
539,1782580433300,0.20999999999999999,-0.56000000000000005,0
540,1782580433318,0.20999999999999999,-0.63,0
541,1782580433399,0.28000000000000003,-0.56000000000000005,0.070000000000000007
542,1782580433467,0.28000000000000003,-0.56000000000000005,0
543,1782580433516,0.28000000000000003,-0.48999999999999999,0
544,1782580433566,0.28000000000000003,-0.48999999999999999,0
545,1782580433717,0.28000000000000003,-0.41999999999999998,0.070000000000000007
546,1782580433782,0.28000000000000003,-0.41999999999999998,0.070000000000000007
547,1782580433849,0.28000000000000003,-0.48999999999999999,0.070000000000000007
548,1782580433884,0.28000000000000003,-0.56000000000000005,-0.070000000000000007
549,1782580433899,0.28000000000000003,-0.56000000000000005,-0.070000000000000007
550,1782580433916,0.28000000000000003,-0.56000000000000005,-0.070000000000000007
551,1782580433949,0.28000000000000003,-0.56000000000000005,0
552,1782580434016,0.28000000000000003,-0.48999999999999999,0.070000000000000007
553,1782580434115,0.28000000000000003,-0.41999999999999998,0.070000000000000007
554,1782580434182,0.28000000000000003,-0.56000000000000005,0
555,1782580434231,0.28000000000000003,-0.56000000000000005,0
556,1782580434282,0.28000000000000003,-0.56000000000000005,0.14000000000000001
557,1782580434316,0.14000000000000001,-0.41999999999999998,0.14000000000000001
558,1782580434333,0.14000000000000001,-0.41999999999999998,0.14000000000000001
559,1782580434365,0.14000000000000001,-0.41999999999999998,0.14000000000000001
560,1782580434465,0.14000000000000001,-0.48999999999999999,0.070000000000000007
561,1782580434532,0.20999999999999999,-0.48999999999999999,0.070000000000000007
562,1782580434582,0.20999999999999999,-0.41999999999999998,0.070000000000000007
563,1782580434749,0.14000000000000001,-0.41999999999999998,0.070000000000000007
564,1782580434848,0.14000000000000001,-0.41999999999999998,0.070000000000000007
565,1782580434932,0.28000000000000003,-0.48999999999999999,0
566,1782580434965,0.28000000000000003,-0.77000000000000002,-0.070000000000000007
567,1782580434981,0.20999999999999999,-0.77000000000000002,-0.070000000000000007
568,1782580435015,0.20999999999999999,-0.77000000000000002,-0.070000000000000007
569,1782580435032,0.20999999999999999,-0.77000000000000002,-0.070000000000000007
570,1782580435115,0.34999999999999998,-0.63,-0.070000000000000007
571,1782580435181,0.14000000000000001,-0.63,-0.070000000000000007
572,1782580435214,0.14000000000000001,-0.63,-0.070000000000000007
573,1782580435247,0.20999999999999999,-0.56000000000000005,0.070000000000000007
574,1782580435280,0.28000000000000003,-0.48999999999999999,0.070000000000000007
575,1782580435314,0.28000000000000003,-0.48999999999999999,0.14000000000000001
576,1782580435380,0.28000000000000003,-0.48999999999999999,0.14000000000000001
577,1782580435414,0.28000000000000003,-0.48999999999999999,0.14000000000000001
578,1782580435465,0.20999999999999999,-0.56000000000000005,0
579,1782580435497,0.20999999999999999,-0.41999999999999998,0.070000000000000007
580,1782580435531,0.20999999999999999,-0.41999999999999998,0.070000000000000007
581,1782580435580,0.20999999999999999,-0.41999999999999998,0.070000000000000007
582,1782580435631,0.20999999999999999,-0.41999999999999998,0.070000000000000007
583,1782580435779,0.20999999999999999,-0.48999999999999999,0
584,1782580435830,0.20999999999999999,-0.41999999999999998,0
585,1782580435863,0.20999999999999999,-0.41999999999999998,0
586,1782580435930,0.20999999999999999,-0.48999999999999999,0
587,1782580435946,0.14000000000000001,-0.48999999999999999,0
588,1782580435963,0.14000000000000001,-0.63,0
589,1782580436013,0.20999999999999999,-0.48999999999999999,0
590,1782580436096,0.20999999999999999,-0.56000000000000005,0
591,1782580436180,0.20999999999999999,-0.56000000000000005,0
592,1782580436248,0.20999999999999999,-0.56000000000000005,0
593,1782580436279,0.14000000000000001,-0.56000000000000005,0
594,1782580436330,0.14000000000000001,-0.48999999999999999,0
595,1782580436413,0.14000000000000001,-0.48999999999999999,0.070000000000000007
596,1782580436496,0.28000000000000003,-0.48999999999999999,0
597,1782580436546,0.14000000000000001,-0.56000000000000005,0
598,1782580436579,0.14000000000000001,-0.56000000000000005,0
599,1782580436596,0.20999999999999999,-0.48999999999999999,0
600,1782580436629,0.20999999999999999,-0.56000000000000005,0
601,1782580436663,0.20999999999999999,-0.56000000000000005,0
602,1782580436729,0.28000000000000003,-0.56000000000000005,0
603,1782580436762,0.28000000000000003,-0.48999999999999999,0
604,1782580436896,0.28000000000000003,-0.56000000000000005,0
605,1782580436962,0.28000000000000003,-0.56000000000000005,0
606,1782580436995,0.28000000000000003,-0.48999999999999999,0
607,1782580437096,0.28000000000000003,-0.48999999999999999,0
608,1782580437179,0.28000000000000003,-0.48999999999999999,0
609,1782580437245,0.28000000000000003,-0.48999999999999999,0
610,1782580437295,0.20999999999999999,-0.48999999999999999,0
611,1782580437345,0.14000000000000001,-0.48999999999999999,0
612,1782580437429,0.14000000000000001,-0.48999999999999999,0
613,1782580437512,0.14000000000000001,-0.48999999999999999,0
614,1782580437545,0.14000000000000001,-0.56000000000000005,0.070000000000000007
615,1782580437578,0.14000000000000001,-0.56000000000000005,0.070000000000000007
616,1782580437612,0.14000000000000001,-0.48999999999999999,0.070000000000000007
617,1782580437662,0.14000000000000001,-0.48999999999999999,0.070000000000000007
618,1782580437711,0.14000000000000001,-0.48999999999999999,0.070000000000000007
619,1782580437762,0.14000000000000001,-0.48999999999999999,0.070000000000000007
620,1782580437845,0.14000000000000001,-0.48999999999999999,0
621,1782580437945,0.20999999999999999,-0.48999999999999999,0
622,1782580437995,0.20999999999999999,-0.56000000000000005,0
623,1782580438045,0.20999999999999999,-0.56000000000000005,0
624,1782580438095,0.28000000000000003,-0.56000000000000005,0
625,1782580438162,0.20999999999999999,-0.48999999999999999,0
626,1782580438262,0.14000000000000001,-0.48999999999999999,0
627,1782580438328,0.14000000000000001,-0.56000000000000005,0
628,1782580438378,0.14000000000000001,-0.56000000000000005,0
629,1782580438428,0.20999999999999999,-0.56000000000000005,0.070000000000000007
630,1782580438478,0.20999999999999999,-0.48999999999999999,0.070000000000000007
631,1782580438511,0.20999999999999999,-0.56000000000000005,0
632,1782580438562,0.20999999999999999,-0.48999999999999999,0
633,1782580438677,0.20999999999999999,-0.48999999999999999,0
634,1782580438728,0.20999999999999999,-0.48999999999999999,0.070000000000000007
635,1782580438778,0.20999999999999999,-0.48999999999999999,0.070000000000000007
636,1782580438862,0.20999999999999999,-0.48999999999999999,0.070000000000000007
637,1782580438911,0.14000000000000001,-0.48999999999999999,0.070000000000000007
638,1782580438994,0.14000000000000001,-0.48999999999999999,0.070000000000000007
639,1782580439044,0.14000000000000001,-0.48999999999999999,0
640,1782580439094,0.20999999999999999,-0.48999999999999999,0
641,1782580439160,0.20999999999999999,-0.56000000000000005,0
642,1782580439161,0.20999999999999999,-0.48999999999999999,0.070000000000000007
643,1782580439260,0.20999999999999999,-0.48999999999999999,0.070000000000000007
644,1782580439343,0.20999999999999999,-0.48999999999999999,0.070000000000000007
645,1782580439393,0.20999999999999999,-0.48999999999999999,0.070000000000000007
646,1782580439460,0.14000000000000001,-0.56000000000000005,0
647,1782580439527,0.20999999999999999,-0.48999999999999999,0
648,1782580439577,0.20999999999999999,-0.56000000000000005,0
649,1782580439644,0.20999999999999999,-0.56000000000000005,0
650,1782580439660,0.20999999999999999,-0.48999999999999999,0.070000000000000007
651,1782580439710,0.20999999999999999,-0.48999999999999999,0.070000000000000007
652,1782580439760,0.20999999999999999,-0.48999999999999999,0.070000000000000007
653,1782580439810,0.20999999999999999,-0.48999999999999999,0.070000000000000007
654,1782580439977,0.20999999999999999,-0.56000000000000005,0
655,1782580440010,0.20999999999999999,-0.56000000000000005,-0.070000000000000007
656,1782580440076,0.20999999999999999,-0.48999999999999999,-0.070000000000000007
657,1782580440110,0.20999999999999999,-0.48999999999999999,0
658,1782580440176,0.20999999999999999,-0.41999999999999998,0
659,1782580440209,0.20999999999999999,-0.48999999999999999,0.070000000000000007
660,1782580440259,0.28000000000000003,-0.41999999999999998,0.070000000000000007
661,1782580440343,0.28000000000000003,-0.48999999999999999,0
662,1782580440459,0.28000000000000003,-0.48999999999999999,0.070000000000000007
663,1782580440509,0.28000000000000003,-0.56000000000000005,0.070000000000000007
664,1782580440543,0.20999999999999999,-0.48999999999999999,0
665,1782580440593,0.14000000000000001,-0.48999999999999999,0.070000000000000007
666,1782580440643,0.14000000000000001,-0.48999999999999999,0.070000000000000007
667,1782580440692,0.20999999999999999,-0.48999999999999999,0
668,1782580440809,0.28000000000000003,-0.48999999999999999,0
669,1782580440859,0.28000000000000003,-0.48999999999999999,0
670,1782580440926,0.28000000000000003,-0.56000000000000005,-0.070000000000000007
671,1782580441009,0.20999999999999999,-0.48999999999999999,-0.070000000000000007
672,1782580441042,0.28000000000000003,-0.56000000000000005,0
673,1782580441108,0.28000000000000003,-0.56000000000000005,0
674,1782580441143,0.28000000000000003,-0.56000000000000005,0
675,1782580441175,0.28000000000000003,-0.56000000000000005,0
676,1782580441209,0.20999999999999999,-0.56000000000000005,0
677,1782580441275,0.20999999999999999,-0.56000000000000005,0.070000000000000007
678,1782580441308,0.20999999999999999,-0.56000000000000005,0
679,1782580441342,0.20999999999999999,-0.56000000000000005,0
680,1782580441426,0.20999999999999999,-0.48999999999999999,0
681,1782580441492,0.20999999999999999,-0.56000000000000005,0
682,1782580441525,0.20999999999999999,-0.56000000000000005,0.070000000000000007
683,1782580441541,0.20999999999999999,-0.56000000000000005,0
684,1782580441558,0.20999999999999999,-0.56000000000000005,0.070000000000000007
685,1782580441575,0.20999999999999999,-0.56000000000000005,0
686,1782580441825,0.14000000000000001,-0.56000000000000005,0.070000000000000007
687,1782580441858,0.20999999999999999,-0.48999999999999999,0
688,1782580441908,0.20999999999999999,-0.56000000000000005,0
689,1782580442008,0.20999999999999999,-0.56000000000000005,0
690,1782580442075,0.20999999999999999,-0.56000000000000005,0
691,1782580442124,0.20999999999999999,-0.56000000000000005,0
692,1782580442207,0.20999999999999999,-0.48999999999999999,0
693,1782580442291,0.14000000000000001,-0.48999999999999999,0
694,1782580442341,0.14000000000000001,-0.48999999999999999,0.070000000000000007
695,1782580442391,0.14000000000000001,-0.48999999999999999,0.070000000000000007
696,1782580442440,0.20999999999999999,-0.56000000000000005,0
697,1782580442507,0.20999999999999999,-0.48999999999999999,0
698,1782580442558,0.20999999999999999,-0.56000000000000005,0
699,1782580442608,0.20999999999999999,-0.48999999999999999,0
700,1782580442658,0.20999999999999999,-0.48999999999999999,0
701,1782580442724,0.070000000000000007,-0.56000000000000005,0.070000000000000007
702,1782580442757,0.14000000000000001,-0.56000000000000005,0
703,1782580442824,0.14000000000000001,-0.63,-0.070000000000000007
704,1782580442874,0.14000000000000001,-0.63,-0.070000000000000007
705,1782580442924,0.14000000000000001,-0.63,0
706,1782580442958,0.14000000000000001,-0.56000000000000005,0.070000000000000007
707,1782580443007,0.20999999999999999,-0.56000000000000005,0
708,1782580443090,0.20999999999999999,-0.56000000000000005,0
709,1782580443157,0.20999999999999999,-0.56000000000000005,0
710,1782580443224,0.20999999999999999,-860.72000000000003,0
711,1782580443307,0.20999999999999999,-0.56000000000000005,0
712,1782580443324,0.20999999999999999,-0.56000000000000005,0
713,1782580443374,0.20999999999999999,-0.48999999999999999,0
714,1782580443407,0.20999999999999999,-0.48999999999999999,0
715,1782580443490,0.20999999999999999,-0.48999999999999999,0
716,1782580443507,0.14000000000000001,-0.56000000000000005,0
717,1782580443540,0.14000000000000001,-0.48999999999999999,0
718,1782580443574,0.14000000000000001,-0.48999999999999999,0
719,1782580443657,0.20999999999999999,-0.41999999999999998,0
720,1782580443675,0.20999999999999999,-0.41999999999999998,0
721,1782580443707,0.20999999999999999,-0.41999999999999998,0.070000000000000007
722,1782580443740,0.20999999999999999,-0.41999999999999998,0.070000000000000007
723,1782580443790,0.28000000000000003,-0.48999999999999999,0.070000000000000007
724,1782580443840,0.28000000000000003,-0.48999999999999999,0
725,1782580443973,0.28000000000000003,-0.48999999999999999,0.070000000000000007
726,1782580444024,0.20999999999999999,-0.56000000000000005,0
727,1782580444074,0.20999999999999999,-0.48999999999999999,0.070000000000000007
728,1782580444123,0.20999999999999999,-0.48999999999999999,0.070000000000000007
729,1782580444157,0.14000000000000001,-0.48999999999999999,0.070000000000000007
730,1782580444257,0.14000000000000001,-0.48999999999999999,0.070000000000000007
731,1782580444323,0.28000000000000003,-0.56000000000000005,0
732,1782580444356,0.20999999999999999,-0.63,0
733,1782580444423,0.20999999999999999,-0.63,0
734,1782580444473,0.20999999999999999,-0.56000000000000005,0
735,1782580444573,0.20999999999999999,-0.48999999999999999,0.070000000000000007
736,1782580444606,0.20999999999999999,-0.48999999999999999,0.070000000000000007
737,1782580444623,0.28000000000000003,-0.48999999999999999,0
738,1782580444690,0.28000000000000003,-0.48999999999999999,0
739,1782580444772,0.28000000000000003,-0.56000000000000005,0
740,1782580444806,0.28000000000000003,-0.56000000000000005,0
741,1782580444890,0.28000000000000003,-0.48999999999999999,0.070000000000000007
742,1782580444939,0.20999999999999999,-0.48999999999999999,0.070000000000000007
743,1782580444990,0.14000000000000001,-0.48999999999999999,0.070000000000000007
744,1782580445023,0.14000000000000001,-0.41999999999999998,0.070000000000000007
745,1782580445089,0.14000000000000001,-0.48999999999999999,0
746,1782580445155,0.20999999999999999,-0.48999999999999999,0
747,1782580445205,0.20999999999999999,-0.56000000000000005,0
748,1782580445306,0.20999999999999999,-0.56000000000000005,0
749,1782580445422,0.20999999999999999,-0.41999999999999998,0
750,1782580445488,0.20999999999999999,-0.41999999999999998,-0.070000000000000007
751,1782580445505,0.20999999999999999,-0.56000000000000005,-0.070000000000000007
752,1782580445522,0.20999999999999999,-0.63,0.070000000000000007
753,1782580445539,215.18000000000001,-0.69999999999999996,0.28000000000000003
754,1782580445588,0.14000000000000001,-0.69999999999999996,0.070000000000000007
755,1782580445638,0.14000000000000001,-0.69999999999999996,0.070000000000000007
756,1782580445738,0.20999999999999999,-0.41999999999999998,0
757,1782580445805,0.20999999999999999,-0.48999999999999999,0
758,1782580445871,0.20999999999999999,-0.48999999999999999,0
759,1782580445888,0.20999999999999999,-0.48999999999999999,0
760,1782580445938,0.14000000000000001,-0.56000000000000005,0.070000000000000007
761,1782580446055,0.20999999999999999,-0.56000000000000005,0.070000000000000007
762,1782580446105,0.20999999999999999,-0.48999999999999999,0.070000000000000007
763,1782580446155,0.20999999999999999,-0.48999999999999999,0.070000000000000007
764,1782580446188,0.14000000000000001,-0.56000000000000005,0
765,1782580446272,0.14000000000000001,-0.48999999999999999,0.070000000000000007
766,1782580446338,0.20999999999999999,-0.56000000000000005,0.070000000000000007
767,1782580446388,0.20999999999999999,-0.56000000000000005,0.070000000000000007
768,1782580446487,0.20999999999999999,-0.48999999999999999,0.070000000000000007
769,1782580446571,0.14000000000000001,-0.56000000000000005,0.070000000000000007
770,1782580446604,0.14000000000000001,-0.48999999999999999,0
771,1782580446621,0.14000000000000001,-0.48999999999999999,0
772,1782580446654,0.20999999999999999,-0.48999999999999999,0.070000000000000007
773,1782580446687,0.14000000000000001,-0.48999999999999999,0.070000000000000007
774,1782580446755,0.14000000000000001,-0.48999999999999999,0.070000000000000007
775,1782580446838,0.14000000000000001,-0.48999999999999999,0.070000000000000007
776,1782580446904,0.20999999999999999,-0.48999999999999999,0.070000000000000007
777,1782580447005,0.34999999999999998,-0.48999999999999999,0
778,1782580447070,0.34999999999999998,-0.48999999999999999,0
779,1782580447104,0.28000000000000003,-0.48999999999999999,0
780,1782580447203,0.28000000000000003,-0.48999999999999999,0.070000000000000007
781,1782580447221,0.28000000000000003,-0.48999999999999999,0
782,1782580447270,0.20999999999999999,-0.48999999999999999,0
783,1782580447338,0.20999999999999999,-0.41999999999999998,0.070000000000000007
784,1782580447387,0.20999999999999999,-0.48999999999999999,0.070000000000000007
785,1782580447437,0.14000000000000001,-0.48999999999999999,0.070000000000000007
786,1782580447487,0.14000000000000001,-0.48999999999999999,0.070000000000000007
787,1782580447555,0.28000000000000003,-0.63,0
788,1782580447654,0.28000000000000003,-0.63,0
789,1782580447737,0.28000000000000003,-0.56000000000000005,0
790,1782580447788,0.14000000000000001,-0.56000000000000005,0
791,1782580447836,0.20999999999999999,-0.56000000000000005,0
792,1782580447887,0.20999999999999999,-0.56000000000000005,0.070000000000000007
793,1782580447936,0.20999999999999999,-0.48999999999999999,0.070000000000000007
794,1782580448003,0.20999999999999999,-0.48999999999999999,0.070000000000000007
795,1782580448053,0.20999999999999999,-0.56000000000000005,0
796,1782580448170,0.28000000000000003,-0.56000000000000005,0
797,1782580448202,0.28000000000000003,-0.56000000000000005,0
798,1782580448236,0.28000000000000003,-0.63,0
799,1782580448252,0.28000000000000003,-0.63,0
800,1782580448269,0.28000000000000003,-0.56000000000000005,0
801,1782580448336,0.28000000000000003,-0.48999999999999999,0
802,1782580448436,0.28000000000000003,-0.48999999999999999,0.070000000000000007
803,1782580448503,0.28000000000000003,-0.48999999999999999,0.070000000000000007
804,1782580448552,0.28000000000000003,-0.48999999999999999,0
805,1782580448653,0.20999999999999999,-0.48999999999999999,0
806,1782580448686,0.20999999999999999,-0.48999999999999999,0
807,1782580448802,0.20999999999999999,-0.63,0
808,1782580448886,0.14000000000000001,-0.63,0
809,1782580448919,0.14000000000000001,-0.63,0.070000000000000007
810,1782580448935,0.20999999999999999,-0.48999999999999999,0.070000000000000007
811,1782580448952,0.20999999999999999,-0.48999999999999999,0
812,1782580449019,0.20999999999999999,-0.48999999999999999,0
813,1782580449052,0.20999999999999999,-0.69999999999999996,0
814,1782580449103,0.20999999999999999,-0.69999999999999996,0
815,1782580449204,0.20999999999999999,-0.56000000000000005,0.070000000000000007
816,1782580449285,0.14000000000000001,-0.56000000000000005,0
817,1782580449336,0.20999999999999999,-0.56000000000000005,0.070000000000000007
818,1782580449403,0.20999999999999999,-0.48999999999999999,0.070000000000000007
819,1782580449468,0.28000000000000003,-0.48999999999999999,0.070000000000000007
820,1782580449518,0.28000000000000003,-0.56000000000000005,0
821,1782580449535,0.20999999999999999,-0.56000000000000005,0.070000000000000007
822,1782580449569,0.20999999999999999,-0.48999999999999999,0
823,1782580449602,0.20999999999999999,-0.48999999999999999,0.070000000000000007
824,1782580449668,0.20999999999999999,-0.48999999999999999,0
825,1782580449736,0.14000000000000001,-0.48999999999999999,0.070000000000000007
826,1782580449818,0.14000000000000001,-0.48999999999999999,0
827,1782580449853,0.14000000000000001,-0.56000000000000005,0
828,1782580449869,0.20999999999999999,-0.56000000000000005,0
829,1782580449918,0.34999999999999998,-0.56000000000000005,0
830,1782580449984,0.34999999999999998,-0.56000000000000005,0
831,1782580450018,0.20999999999999999,-0.56000000000000005,0.070000000000000007
832,1782580450085,0.28000000000000003,-0.48999999999999999,0.070000000000000007
833,1782580450151,0.20999999999999999,-0.48999999999999999,0.070000000000000007
834,1782580450235,0.28000000000000003,-0.48999999999999999,0.070000000000000007
835,1782580450301,0.28000000000000003,-0.48999999999999999,0.070000000000000007
836,1782580450434,0.20999999999999999,-0.48999999999999999,0.070000000000000007
837,1782580450501,0.20999999999999999,-0.48999999999999999,0.070000000000000007
838,1782580450534,0.20999999999999999,-0.48999999999999999,0.070000000000000007
839,1782580450551,0.20999999999999999,-0.48999999999999999,0.070000000000000007
840,1782580450601,0.20999999999999999,-0.48999999999999999,0.070000000000000007
841,1782580450667,0.28000000000000003,-0.56000000000000005,0.070000000000000007
842,1782580450734,0.28000000000000003,-0.56000000000000005,0.070000000000000007
843,1782580450784,0.20999999999999999,-0.56000000000000005,0.070000000000000007
844,1782580450901,0.20999999999999999,-0.56000000000000005,0
845,1782580450934,0.20999999999999999,-0.56000000000000005,0
846,1782580450984,0.20999999999999999,-0.48999999999999999,0
847,1782580451034,0.20999999999999999,-0.48999999999999999,0
848,1782580451150,0.28000000000000003,-0.56000000000000005,0
849,1782580451184,0.28000000000000003,-0.34999999999999998,0.070000000000000007
850,1782580451350,0.20999999999999999,-0.34999999999999998,0.070000000000000007
851,1782580451384,0.20999999999999999,-0.63,0
852,1782580451450,0.20999999999999999,-0.56000000000000005,0
853,1782580451483,0.28000000000000003,-0.56000000000000005,0
854,1782580451551,0.28000000000000003,-0.48999999999999999,0
855,1782580451583,0.20999999999999999,-0.48999999999999999,0
856,1782580451600,0.28000000000000003,-0.48999999999999999,0.070000000000000007
857,1782580451617,0.28000000000000003,-0.48999999999999999,0.070000000000000007
858,1782580451700,0.28000000000000003,-0.56000000000000005,0.070000000000000007
859,1782580451750,0.20999999999999999,-0.56000000000000005,0.070000000000000007
860,1782580451834,0.28000000000000003,-0.48999999999999999,0.070000000000000007
861,1782580451900,0.20999999999999999,-0.56000000000000005,0
862,1782580451967,0.14000000000000001,-0.56000000000000005,0
863,1782580452033,0.14000000000000001,-0.48999999999999999,0
864,1782580452083,0.14000000000000001,-0.48999999999999999,0
865,1782580452133,0.14000000000000001,-0.48999999999999999,0.070000000000000007
866,1782580452233,0.14000000000000001,-0.56000000000000005,0.070000000000000007
867,1782580452299,0.14000000000000001,-0.56000000000000005,0.070000000000000007
868,1782580452349,0.14000000000000001,-0.48999999999999999,0
869,1782580452400,0.14000000000000001,-0.48999999999999999,0.070000000000000007
870,1782580452449,0.14000000000000001,-0.48999999999999999,0.070000000000000007
871,1782580452516,0.20999999999999999,-0.56000000000000005,0
872,1782580452566,0.20999999999999999,-0.48999999999999999,0
873,1782580452632,0.20999999999999999,-0.56000000000000005,0
874,1782580452749,0.20999999999999999,-0.56000000000000005,0
875,1782580452799,0.20999999999999999,-0.56000000000000005,0.070000000000000007
876,1782580452916,0.20999999999999999,-0.56000000000000005,0.070000000000000007
877,1782580452966,0.20999999999999999,-0.48999999999999999,0.070000000000000007
878,1782580453115,0.20999999999999999,-0.56000000000000005,0
879,1782580453133,0.20999999999999999,-0.48999999999999999,0.070000000000000007
880,1782580453165,0.14000000000000001,-0.48999999999999999,0
881,1782580453182,0.14000000000000001,-0.48999999999999999,0.070000000000000007
882,1782580453199,0.14000000000000001,-0.48999999999999999,0.070000000000000007
883,1782580453265,0.20999999999999999,-0.48999999999999999,0
884,1782580453332,0.20999999999999999,-0.56000000000000005,0
885,1782580453548,0.20999999999999999,-0.48999999999999999,0
886,1782580453649,0.20999999999999999,-0.48999999999999999,0
887,1782580453715,0.20999999999999999,-0.48999999999999999,-0.070000000000000007
888,1782580453765,0.20999999999999999,-0.63,0.070000000000000007
889,1782580453799,0.20999999999999999,-0.63,0.070000000000000007
890,1782580453848,0.28000000000000003,-0.63,0
891,1782580453881,0.20999999999999999,-0.63,0
892,1782580453932,0.20999999999999999,-0.48999999999999999,0
893,1782580453982,0.14000000000000001,-0.48999999999999999,0
894,1782580454048,0.20999999999999999,-0.48999999999999999,0.070000000000000007
895,1782580454164,0.20999999999999999,-0.56000000000000005,0.070000000000000007
896,1782580454198,0.14000000000000001,-0.56000000000000005,0.070000000000000007
897,1782580454231,0.14000000000000001,-0.56000000000000005,0.070000000000000007
898,1782580454248,0.14000000000000001,-0.56000000000000005,0.070000000000000007
899,1782580454298,0.20999999999999999,-0.41999999999999998,0
900,1782580454465,0.20999999999999999,-0.41999999999999998,0
901,1782580454514,0.070000000000000007,-0.56000000000000005,0
902,1782580454564,0.070000000000000007,-0.63,0
903,1782580454598,0.070000000000000007,-0.48999999999999999,0
904,1782580454648,0.14000000000000001,-0.63,0
905,1782580454697,0.20999999999999999,-0.77000000000000002,0
906,1782580454764,0.34999999999999998,-0.77000000000000002,0
907,1782580454781,0.34999999999999998,-0.77000000000000002,0
908,1782580454814,0.34999999999999998,-0.28000000000000003,0.070000000000000007
909,1782580454830,0.28000000000000003,-0.20999999999999999,0.14000000000000001
910,1782580454881,0.41999999999999998,-0.41999999999999998,0.070000000000000007
911,1782580455030,0.41999999999999998,-0.48999999999999999,0.070000000000000007
912,1782580455064,0.41999999999999998,-0.48999999999999999,0.070000000000000007
913,1782580455114,-0.070000000000000007,-0.63,0.070000000000000007
914,1782580455163,0.34999999999999998,-0.69999999999999996,-0.070000000000000007
915,1782580455198,0.41999999999999998,-0.69999999999999996,-0.070000000000000007
916,1782580455297,0.41999999999999998,-0.69999999999999996,-0.070000000000000007
917,1782580455380,0.28000000000000003,-0.69999999999999996,-0.070000000000000007
918,1782580455397,0.28000000000000003,-0.56000000000000005,0
919,1782580455497,0.28000000000000003,-0.48999999999999999,0
920,1782580455530,0.28000000000000003,-0.41999999999999998,0
921,1782580455596,0.20999999999999999,-0.41999999999999998,0
922,1782580455630,0.34999999999999998,-0.69999999999999996,0
923,1782580455697,0.20999999999999999,-0.69999999999999996,0
924,1782580455764,0.070000000000000007,-0.56000000000000005,0
925,1782580455796,0.070000000000000007,-0.41999999999999998,0
926,1782580455813,0.070000000000000007,-0.41999999999999998,0
927,1782580455829,0.070000000000000007,-0.41999999999999998,0
928,1782580455879,0.28000000000000003,-0.56000000000000005,0
929,1782580455947,0.070000000000000007,-0.56000000000000005,0
930,1782580456030,0.070000000000000007,-0.56000000000000005,0.070000000000000007
931,1782580456113,0.070000000000000007,-0.56000000000000005,0.070000000000000007
932,1782580456179,0.14000000000000001,-0.56000000000000005,0
933,1782580456246,0.14000000000000001,-0.63,0
934,1782580456346,0.14000000000000001,-0.63,0
935,1782580456445,0.070000000000000007,-0.48999999999999999,0
936,1782580456462,0.20999999999999999,-0.48999999999999999,0
937,1782580456496,0.20999999999999999,-0.48999999999999999,0
938,1782580456613,0.41999999999999998,-0.63,0
939,1782580456662,0,-0.41999999999999998,0.070000000000000007
940,1782580456712,0,-0.56000000000000005,0
941,1782580456813,0.28000000000000003,-0.63,0
942,1782580456862,0.34999999999999998,-0.63,-0.070000000000000007
943,1782580456879,0.34999999999999998,-0.63,0
944,1782580456896,0.34999999999999998,-0.56000000000000005,0.070000000000000007
945,1782580456929,0.14000000000000001,-0.48999999999999999,0
946,1782580456978,0.28000000000000003,-0.63,0
947,1782580457029,0.34999999999999998,-0.63,0
948,1782580457079,0.34999999999999998,-0.63,-0.070000000000000007
949,1782580457112,0.28000000000000003,-0.63,-0.070000000000000007
950,1782580457145,0.20999999999999999,-0.56000000000000005,-0.070000000000000007
951,1782580457179,0.20999999999999999,-0.48999999999999999,0
952,1782580457195,0.20999999999999999,-0.41999999999999998,0
953,1782580457263,0.14000000000000001,-0.56000000000000005,0.070000000000000007
954,1782580457345,0.14000000000000001,-0.56000000000000005,0.070000000000000007
955,1782580457362,0.14000000000000001,-0.56000000000000005,0.14000000000000001
956,1782580457378,0.20999999999999999,-0.56000000000000005,0.14000000000000001
957,1782580457411,0.20999999999999999,-0.48999999999999999,0.070000000000000007
958,1782580457428,0.20999999999999999,-0.34999999999999998,0.070000000000000007
959,1782580457478,0.20999999999999999,-0.34999999999999998,0
960,1782580457495,0.070000000000000007,-0.69999999999999996,0.070000000000000007
961,1782580457587,0.14000000000000001,-0.69999999999999996,0.070000000000000007
962,1782580457711,0.28000000000000003,-0.63,0
963,1782580457794,0.20999999999999999,-0.63,0.070000000000000007
964,1782580457844,0.28000000000000003,-0.41999999999999998,0
965,1782580457927,0.28000000000000003,-0.41999999999999998,0.070000000000000007
966,1782580458044,0.20999999999999999,-0.56000000000000005,0.14000000000000001
967,1782580458078,0.20999999999999999,-0.56000000000000005,0
968,1782580458096,0.28000000000000003,-0.56000000000000005,-0.070000000000000007
969,1782580458127,0.20999999999999999,-0.56000000000000005,-0.070000000000000007
970,1782580458145,0.20999999999999999,-0.56000000000000005,-0.070000000000000007
971,1782580458245,0.20999999999999999,-0.48999999999999999,0.14000000000000001
972,1782580458311,0.20999999999999999,-0.56000000000000005,0.070000000000000007
973,1782580458477,0.20999999999999999,-0.34999999999999998,0
974,1782580458528,0.20999999999999999,-0.34999999999999998,0
975,1782580458577,0.20999999999999999,-0.34999999999999998,0
976,1782580458644,0.20999999999999999,-0.63,0
977,1782580458760,0.14000000000000001,-0.41999999999999998,0
978,1782580458827,0.14000000000000001,-0.41999999999999998,0
979,1782580458894,0.14000000000000001,-0.56000000000000005,0
980,1782580458960,0.20999999999999999,-0.56000000000000005,0
981,1782580458977,0.28000000000000003,-0.34999999999999998,0.070000000000000007
982,1782580459027,0.28000000000000003,-0.34999999999999998,0
983,1782580459060,0.28000000000000003,-0.48999999999999999,-0.070000000000000007
984,1782580459110,0.20999999999999999,-0.56000000000000005,-0.070000000000000007
985,1782580459160,0.20999999999999999,-0.56000000000000005,-0.070000000000000007
986,1782580459193,0.20999999999999999,-0.63,0
987,1782580459210,0.20999999999999999,-0.56000000000000005,0.070000000000000007
988,1782580459260,0.20999999999999999,-0.48999999999999999,0
989,1782580459310,0.20999999999999999,-0.48999999999999999,0
990,1782580459360,0.20999999999999999,-0.56000000000000005,0
991,1782580459426,0.20999999999999999,-0.56000000000000005,0
992,1782580459443,0.20999999999999999,-0.56000000000000005,0
993,1782580459460,0.20999999999999999,-0.56000000000000005,0.070000000000000007
994,1782580459493,0.20999999999999999,-0.56000000000000005,0.070000000000000007
995,1782580459510,0.20999999999999999,-0.56000000000000005,0.070000000000000007
996,1782580459560,0.20999999999999999,-0.56000000000000005,0.070000000000000007
997,1782580459576,0.14000000000000001,-1.05,0.28000000000000003
998,1782580459610,0.14000000000000001,-0.56000000000000005,0.20999999999999999
999,1782580459627,0.14000000000000001,-0.28000000000000003,0
1000,1782580459660,0.14000000000000001,-0.41999999999999998,-0.070000000000000007
1001,1782580459843,0.20999999999999999,-0.28000000000000003,-0.070000000000000007
1002,1782580459893,0.20999999999999999,-0.69999999999999996,0.14000000000000001
1003,1782580459976,0.20999999999999999,-0.48999999999999999,0.20999999999999999
1004,1782580460026,0.20999999999999999,-0.48999999999999999,0.20999999999999999
1005,1782580460044,0.14000000000000001,-0.41999999999999998,0.20999999999999999
1006,1782580460076,0.14000000000000001,-0.41999999999999998,0.070000000000000007
1007,1782580460093,0.14000000000000001,-0.41999999999999998,0.070000000000000007
1008,1782580460160,-0.070000000000000007,-0.20999999999999999,-0.20999999999999999
1009,1782580460226,0.070000000000000007,0.070000000000000007,-0.48999999999999999
1010,1782580460359,0.48999999999999999,1.05,-5.04
1011,1782580460426,0,0.97999999999999998,-5.8099999999999996
1012,1782580460475,0,0.77000000000000002,-5.8099999999999996
1013,1782580460526,0.48999999999999999,0.20999999999999999,-5.8099999999999996
1014,1782580460576,0.77000000000000002,-1.47,-5.3200000000000003
1015,1782580460642,1.1899999999999999,-1.1200000000000001,-3.29
1016,1782580460692,1.1899999999999999,-1.26,-2.6600000000000001
1017,1782580460710,1.26,-1.8899999999999999,-1.8200000000000001
1018,1782580460775,1.26,-1.8899999999999999,-0.28000000000000003
1019,1782580460810,0.77000000000000002,-1.3300000000000001,0.56000000000000005
1020,1782580460892,3.4300000000000002,-1.3999999999999999,-2.1699999999999999
1021,1782580460942,2.3799999999999999,-1.54,-0.69999999999999996
1022,1782580461041,0.83999999999999997,-1.54,1.05
1023,1782580461075,0.14000000000000001,0.070000000000000007,2.73
1024,1782580461108,0.14000000000000001,0.14000000000000001,3.5699999999999998
1025,1782580461142,-0.070000000000000007,0.56000000000000005,2.73
1026,1782580461225,-0.14000000000000001,-0.20999999999999999,3.0099999999999998
1027,1782580461308,-0.14000000000000001,-0.56000000000000005,3.3599999999999999
1028,1782580461392,-0.41999999999999998,-1.3300000000000001,4.4800000000000004
1029,1782580461425,-0.28000000000000003,-1.3300000000000001,4.5499999999999998
1030,1782580461491,-0.14000000000000001,-1.3300000000000001,4.6200000000000001
1031,1782580461541,0.34999999999999998,-0.56000000000000005,4.8300000000000001
1032,1782580461592,-0.14000000000000001,-0.56000000000000005,5.04
1033,1782580461624,0.63,0,7.2800000000000002
1034,1782580461641,0.91000000000000003,0,7.4199999999999999
1035,1782580461708,0.63,-0.070000000000000007,7.4199999999999999
1036,1782580461758,0,0,7.2800000000000002
1037,1782580461791,0,0.34999999999999998,7.1399999999999997
1038,1782580461824,0,0.34999999999999998,7.1399999999999997
1039,1782580461875,0,-0.41999999999999998,7
1040,1782580461924,1.3999999999999999,-0.63,7
1041,1782580461974,2.3100000000000001,-0.28000000000000003,8.6799999999999997
1042,1782580462024,1.1200000000000001,-1.6100000000000001,9.3100000000000005
1043,1782580462075,0.28000000000000003,-2.7999999999999998,11.41
1044,1782580462124,-2.1000000000000001,-2.7999999999999998,11.970000000000001
1045,1782580462174,-2.1000000000000001,-2.9399999999999999,13.44
1046,1782580462274,1.8200000000000001,1.3999999999999999,15.33
1047,1782580462308,-0.41999999999999998,1.3999999999999999,16.73
1048,1782580462324,-1.54,1.3999999999999999,17.359999999999999
1049,1782580462357,-1.54,0.14000000000000001,17.989999999999998
1050,1782580462440,-1.54,0.97999999999999998,18.059999999999999
1051,1782580462490,-1.8200000000000001,0,19.739999999999998
1052,1782580462573,-1.05,0,20.02
1053,1782580462640,-1.05,-0.97999999999999998,20.02
1054,1782580462657,-0.91000000000000003,-1.6799999999999999,20.370000000000001
1055,1782580462690,-0.91000000000000003,0.63,20.719999999999999
1056,1782580462724,-0.91000000000000003,-1.6799999999999999,20.93
1057,1782580462757,-0.34999999999999998,0,23.100000000000001
1058,1782580462823,-0.34999999999999998,1.6100000000000001,23.100000000000001
1059,1782580462923,0.34999999999999998,1.05,23.309999999999999
1060,1782580462990,-0.77000000000000002,-0.97999999999999998,25.34
1061,1782580463040,-0.77000000000000002,0.20999999999999999,25.34
1062,1782580463090,-0.34999999999999998,-0.28000000000000003,25.550000000000001
1063,1782580463156,-0.34999999999999998,-0.28000000000000003,25.34
1064,1782580463190,-0.34999999999999998,-1.05,25.34
1065,1782580463273,-0.97999999999999998,-0.41999999999999998,18.199999999999999
1066,1782580463290,-0.97999999999999998,-0.48999999999999999,16.52
1067,1782580463307,0.48999999999999999,-0.97999999999999998,15.609999999999999
1068,1782580463340,3.29,-1.3300000000000001,14.77
1069,1782580463406,3.29,-1.54,14.07
1070,1782580463573,-2.0299999999999998,-3.71,11.48
1071,1782580463656,-1.3999999999999999,-3.71,11.199999999999999
1072,1782580463690,1.6100000000000001,2.73,10.43
1073,1782580463724,2.7999999999999998,2.73,10.220000000000001
1074,1782580463789,-4.6900000000000004,-2.1699999999999999,12.6
1075,1782580463823,-4.6900000000000004,0.83999999999999997,12.25
1076,1782580463889,-2.9399999999999999,0.83999999999999997,12.039999999999999
1077,1782580464006,1.3300000000000001,3.6400000000000001,9.8000000000000007
1078,1782580464056,1.3300000000000001,4.1299999999999999,9.8000000000000007
1079,1782580464106,-1.6799999999999999,5.04,9.8000000000000007
1080,1782580464189,-1.6799999999999999,5.25,9.8000000000000007
1081,1782580464239,-1.6799999999999999,5.5300000000000002,8.9600000000000009
1082,1782580464356,-0.97999999999999998,-0.070000000000000007,9.0999999999999996
1083,1782580464439,-0.97999999999999998,-2.5899999999999999,9.0999999999999996
1084,1782580464505,-0.97999999999999998,-3.3599999999999999,9.8699999999999992
1085,1782580464572,-0.56000000000000005,-4.4100000000000001,10.289999999999999
1086,1782580464572,1.47,-2.2400000000000002,10.99
1087,1782580464622,-0.070000000000000007,-2.2400000000000002,10.85
1088,1782580464672,-7.3499999999999996,-2.2400000000000002,10.640000000000001
1089,1782580464739,-1.05,-2.2400000000000002,11.130000000000001
1090,1782580464839,-0.41999999999999998,-1.1200000000000001,9.6600000000000001
1091,1782580464888,-1.05,-2.7999999999999998,9.2400000000000002
1092,1782580464905,-1.75,-2.9399999999999999,9.1699999999999999
1093,1782580464939,-1.8200000000000001,-5.3200000000000003,8.6799999999999997
1094,1782580464955,-1.8200000000000001,-5.3200000000000003,7.9100000000000001
1095,1782580465038,-2.4500000000000002,-2.9399999999999999,7.7699999999999996
1096,1782580465172,3.0099999999999998,0.20999999999999999,3.4300000000000002
1097,1782580465221,2.4500000000000002,-0.91000000000000003,3.8500000000000001
1098,1782580465305,2.4500000000000002,-1.1200000000000001,3.8500000000000001
1099,1782580465338,-0.77000000000000002,-1.05,4.0599999999999996
1100,1782580465405,3.5,0.070000000000000007,-0.97999999999999998
1101,1782580465455,3.5,0.070000000000000007,-0.83999999999999997
1102,1782580465538,1.05,-0.20999999999999999,-0.63
1103,1782580465638,-1.96,1.1899999999999999,-1.1899999999999999
1104,1782580465688,-1.96,3.71,-1.26
1105,1782580465738,3.1499999999999999,3.71,-1.26
1106,1782580465837,3.1499999999999999,5.1799999999999997,-1.26
1107,1782580465871,2.52,-5.1799999999999997,-5.9500000000000002
1108,1782580465904,3.9900000000000002,-4.0599999999999996,-6.6500000000000004
1109,1782580465955,3.9900000000000002,-2.73,-6.9299999999999997
1110,1782580465971,3.29,-2.73,-6.9299999999999997
1111,1782580466037,3.29,-0.63,-6.9299999999999997
1112,1782580466137,0.69999999999999996,1.6799999999999999,-12.949999999999999
1113,1782580466204,0.070000000000000007,1.6799999999999999,-13.09
1114,1782580466288,0.070000000000000007,1.47,-13.51
1115,1782580466304,0.69999999999999996,2.0299999999999998,-13.789999999999999
1116,1782580466321,0.69999999999999996,1.47,-14.210000000000001
1117,1782580466354,0.070000000000000007,-3.2200000000000002,-14.210000000000001
1118,1782580466387,-1.1899999999999999,0.28000000000000003,-14.210000000000001
1119,1782580466420,2.73,2.2400000000000002,-22.75
1120,1782580466554,2.73,-0.97999999999999998,-25.41
1121,1782580466620,2.2400000000000002,2.1000000000000001,-25.829999999999998
1122,1782580466653,2.2400000000000002,2.1000000000000001,-26.600000000000001
1123,1782580466687,2.2400000000000002,-0.56000000000000005,-28.280000000000001
1124,1782580466704,-5.1100000000000003,-8.0500000000000007,-28.210000000000001
1125,1782580466754,-3.0099999999999998,1.3999999999999999,-27.16
1126,1782580466837,2.0299999999999998,1.3999999999999999,-26.739999999999998
1127,1782580466871,9.4499999999999993,2.1000000000000001,-26.390000000000001
1128,1782580466887,9.4499999999999993,2.1000000000000001,-26.390000000000001
1129,1782580466904,9.4499999999999993,3.2200000000000002,-26.390000000000001
1130,1782580466937,8.0500000000000007,3.2200000000000002,-27.510000000000002
1131,1782580466970,2.3100000000000001,0.41999999999999998,-27.510000000000002
1132,1782580467053,4.8300000000000001,2.4500000000000002,-38.640000000000001
1133,1782580467104,4.8300000000000001,1.75,-39.549999999999997
1134,1782580467136,3.5,1.54,-48.299999999999997
1135,1782580467170,-0.28000000000000003,-3.8500000000000001,-43.82
1136,1782580467186,-0.48999999999999999,-4.2699999999999996,-43.82
1137,1782580467253,-0.48999999999999999,-5.1799999999999997,-43.049999999999997
1138,1782580467270,-2.3100000000000001,-2.3100000000000001,-41.649999999999999
1139,1782580467320,-3.0800000000000001,-2.3100000000000001,-41.93
1140,1782580467353,-3.0800000000000001,-3.2200000000000002,-42.630000000000003
1141,1782580467436,-3.0800000000000001,-3.2200000000000002,-42.700000000000003
1142,1782580467520,-0.63,-1.3999999999999999,-42.700000000000003
1143,1782580467570,0.48999999999999999,2.52,-42.979999999999997
1144,1782580467653,0.91000000000000003,2.52,-42.979999999999997
1145,1782580467686,1.1200000000000001,2.52,-42.979999999999997
1146,1782580467752,1.1899999999999999,2.3100000000000001,-42.770000000000003
1147,1782580467786,1.47,1.1899999999999999,-42.770000000000003
1148,1782580467869,1.6100000000000001,-6.6500000000000004,-48.439999999999998
1149,1782580467936,7,-2.7999999999999998,-49.420000000000002
1150,1782580468003,9.4499999999999993,-1.3999999999999999,-49.490000000000002
1151,1782580468036,-2.5899999999999999,7.6299999999999999,-40.880000000000003
1152,1782580468069,0.63,7.6299999999999999,-40.880000000000003
1153,1782580468086,5.3899999999999997,7.8399999999999999,-41.229999999999997
1154,1782580468119,5.3899999999999997,9.8699999999999992,-148.75
1155,1782580468202,5.3899999999999997,7.8399999999999999,-41.229999999999997
1156,1782580468219,-1.05,1.6100000000000001,-41.229999999999997
1157,1782580468269,-6.7199999999999998,1.54,-42.210000000000001
1158,1782580468302,5.5300000000000002,-8.6799999999999997,-44.170000000000002
1159,1782580468402,3.4300000000000002,-6.9299999999999997,-45.710000000000001
1160,1782580468469,1.47,-8.1199999999999992,-45.780000000000001
1161,1782580468535,-3.71,-6.1600000000000001,-46.130000000000003
1162,1782580468602,-0.91000000000000003,-0.28000000000000003,-52.5
1163,1782580468652,-3.2200000000000002,-0.070000000000000007,-53.270000000000003
1164,1782580468702,-3.9199999999999999,1.26,-53.340000000000003
1165,1782580468752,-4.6200000000000001,1.26,-53.409999999999997
1166,1782580468885,-6.2300000000000004,-7.8399999999999999,-49.630000000000003
1167,1782580468952,-6.2300000000000004,-9.2400000000000002,-49.350000000000001
1168,1782580469002,-6.2300000000000004,-9.8000000000000007,-49.350000000000001
1169,1782580469052,-2.52,-9.8000000000000007,-49.350000000000001
1170,1782580469135,4.9000000000000004,-9.2400000000000002,-49.280000000000001
1171,1782580469152,-2.1699999999999999,0.48999999999999999,-53.829999999999998
1172,1782580469219,-2.4500000000000002,0.48999999999999999,-53.829999999999998
1173,1782580469269,-5.7400000000000002,0.48999999999999999,-53.060000000000002
1174,1782580469318,-7.7000000000000002,-3.9199999999999999,-52.990000000000002
1175,1782580469368,-7.7000000000000002,-4.3399999999999999,-53.060000000000002
1176,1782580469402,-7.7000000000000002,-3.9199999999999999,-52.990000000000002
1177,1782580469435,-0.56000000000000005,-3.9199999999999999,-52.640000000000001
1178,1782580469484,-2.5899999999999999,-1.1899999999999999,-50.68
1179,1782580469568,-1.3999999999999999,-1.1899999999999999,-51.170000000000002
1180,1782580469618,3.6400000000000001,-0.91000000000000003,-52.219999999999999
1181,1782580469668,8.4700000000000006,-0.91000000000000003,-52.219999999999999
1182,1782580469751,1.26,3.0099999999999998,-52.219999999999999
1183,1782580469784,1.26,4.2000000000000002,-52.43
1184,1782580469918,0,4.2000000000000002,-52.219999999999999
1185,1782580469968,-0.41999999999999998,4.2000000000000002,-52.149999999999999
1186,1782580469985,-3.5699999999999998,-0.48999999999999999,-51.590000000000003
1187,1782580470034,-10.92,-3.71,-51.659999999999997
1188,1782580470101,-10.92,-3.71,-51.659999999999997
1189,1782580470201,-10.92,-2.3799999999999999,-51.729999999999997
1190,1782580470251,4.6200000000000001,-2.7999999999999998,-52.359999999999999
1191,1782580470301,4.6200000000000001,-2.7999999999999998,-52.359999999999999
1192,1782580470317,2.0299999999999998,-3.9199999999999999,-52.079999999999998
1193,1782580470334,-4.6200000000000001,-3.7799999999999998,-52.359999999999999
1194,1782580470367,-4.6900000000000004,-4.6200000000000001,-52.359999999999999
1195,1782580470434,-5.5999999999999996,-4.6200000000000001,-52.850000000000001
1196,1782580470500,1.96,-7.9100000000000001,-51.100000000000001
1197,1782580470550,1.96,-7.7699999999999996,-51.380000000000003
1198,1782580470617,1.96,-7.9100000000000001,-51.380000000000003
1199,1782580470684,-6.2999999999999998,-7.7699999999999996,-52.289999999999999
1200,1782580470750,-6.79,-7.7699999999999996,-52.289999999999999
1201,1782580470767,-3.6400000000000001,-5.25,-52.079999999999998
1202,1782580470867,-3.6400000000000001,-5.25,-52.009999999999998
1203,1782580470918,0.28000000000000003,-4.7599999999999998,-52.009999999999998
1204,1782580470967,1.3300000000000001,-4.7599999999999998,-52.009999999999998
1205,1782580471050,4.3399999999999999,0.48999999999999999,-55.229999999999997
1206,1782580471150,9.7300000000000004,1.3999999999999999,-55.649999999999999
1207,1782580471217,9.7300000000000004,1.3999999999999999,-55.229999999999997
1208,1782580471283,10.43,1.3999999999999999,-55.229999999999997
1209,1782580471317,-5.3200000000000003,-4.2699999999999996,-47.600000000000001
1210,1782580471366,-4.9000000000000004,-4.2699999999999996,-48.229999999999997
1211,1782580471466,1.1200000000000001,-4.2699999999999996,-48.439999999999998
1212,1782580471533,1.1200000000000001,-1.6799999999999999,-48.789999999999999
1213,1782580471583,1.1200000000000001,-3.1499999999999999,-48.439999999999998
1214,1782580471649,-12.880000000000001,4.7599999999999998,-46.829999999999998
1215,1782580471700,-0.69999999999999996,4.7599999999999998,-46.549999999999997
1216,1782580471749,-0.69999999999999996,5.25,-46.130000000000003
1217,1782580471800,-0.69999999999999996,9.1699999999999999,-45.079999999999998
1218,1782580471850,-3.7799999999999998,9.8699999999999992,-44.869999999999997
1219,1782580471883,-3.7799999999999998,9.8699999999999992,-44.240000000000002
1220,1782580471966,-0.28000000000000003,-5.8799999999999999,-50.469999999999999
1221,1782580472032,0,-1.3999999999999999,-50.82
1222,1782580472099,5.1799999999999997,0.77000000000000002,-53.130000000000003
1223,1782580472149,5.1799999999999997,0.77000000000000002,-53.409999999999997
1224,1782580472249,5.3899999999999997,-4.5499999999999998,-57.259999999999998
1225,1782580472316,1.8899999999999999,-4.5499999999999998,-56.490000000000002
1226,1782580472366,1.05,-4.5499999999999998,-56.210000000000001
1227,1782580472415,-2.1000000000000001,-2.5899999999999999,-57.259999999999998
1228,1782580472432,-12.6,-10.15,-49.350000000000001
1229,1782580472465,-12.6,-10.15,-49.350000000000001
1230,1782580472516,-12.6,-8.1199999999999992,-49.350000000000001
1231,1782580472616,0.41999999999999998,-8.1199999999999992,-51.520000000000003
1232,1782580472666,0.41999999999999998,-6.5099999999999998,-52.640000000000001
1233,1782580472682,3.29,2.4500000000000002,-62.369999999999997
1234,1782580472732,4.5499999999999998,5.3899999999999997,-63.07
1235,1782580472799,4.5499999999999998,5.3899999999999997,-63.07
1236,1782580472865,4.5499999999999998,4.9699999999999998,-63.07
1237,1782580472899,3.5,4.9699999999999998,-62.369999999999997
1238,1782580472932,-10.85,-3.2200000000000002,-60.270000000000003
1239,1782580472999,-10.85,-3.5699999999999998,-59.009999999999998
1240,1782580473082,-10.85,-4.3399999999999999,-58.100000000000001
1241,1782580473131,-3.5,-4.7599999999999998,-56.420000000000002
1242,1782580473199,0.91000000000000003,-2.8700000000000001,-25.829999999999998
1243,1782580473282,0.91000000000000003,-2.8700000000000001,-25.829999999999998
1244,1782580473381,-4.8300000000000001,-2.8700000000000001,-24.710000000000001
1245,1782580473415,-7.9100000000000001,-2.8700000000000001,-24.710000000000001
1246,1782580473448,7.9100000000000001,-1.3300000000000001,-51.659999999999997
1247,1782580473481,7.9100000000000001,1.47,-52.640000000000001
1248,1782580473515,4.2000000000000002,1.47,-54.950000000000003
1249,1782580473531,0.77000000000000002,3.3599999999999999,-56.140000000000001
1250,1782580473581,-6.79,1.47,-56.350000000000001
1251,1782580473714,0.14000000000000001,-1.96,-57.119999999999997
1252,1782580473748,-1.3300000000000001,-1.8899999999999999,-59.009999999999998
1253,1782580473815,-3.9900000000000002,-1.8899999999999999,-61.18
1254,1782580473865,-7.21,0.28000000000000003,-61.740000000000002
1255,1782580473914,-7.21,1.54,-61.740000000000002
1256,1782580473947,-4.0599999999999996,0.28000000000000003,-61.740000000000002
1257,1782580473964,-4.0599999999999996,2.0299999999999998,-61.740000000000002
1258,1782580473981,-4.0599999999999996,2.0299999999999998,-61.740000000000002
1259,1782580473998,-2.2400000000000002,-0.77000000000000002,-60.899999999999999
1260,1782580474031,-0.070000000000000007,-4.2699999999999996,-61.530000000000001
1261,1782580474064,-2.52,-7.5599999999999996,-60.969999999999999
1262,1782580474081,-4.4800000000000004,-7.5599999999999996,-60.549999999999997
1263,1782580474097,-4.4800000000000004,-5.1100000000000003,-59.850000000000001
1264,1782580474164,-2.52,-5.1100000000000003,-59.289999999999999
1265,1782580474231,-4.6200000000000001,-2.5899999999999999,-58.520000000000003
1266,1782580474330,-8.2599999999999998,-11.619999999999999,-29.399999999999999
1267,1782580474430,-8.2599999999999998,-2.9399999999999999,-26.530000000000001
1268,1782580474464,-9.2400000000000002,-2.73,-24.219999999999999
1269,1782580474481,-9.2400000000000002,-2.2400000000000002,-18.690000000000001
1270,1782580474514,-9.2400000000000002,-0.56000000000000005,-16.59
1271,1782580474581,2.73,2.9399999999999999,-51.170000000000002
1272,1782580474630,2.73,2.9399999999999999,-52.219999999999999
1273,1782580474747,2.73,2.9399999999999999,-52.57
1274,1782580474797,4.2000000000000002,2.9399999999999999,-52.850000000000001
1275,1782580474863,-0.69999999999999996,-11.550000000000001,-49.07
1276,1782580474914,-8.0500000000000007,-12.81,-47.460000000000001
1277,1782580474963,-8.0500000000000007,-14.07,-47.25
1278,1782580475013,-11.619999999999999,-14.07,-47.25
1279,1782580475130,1.1200000000000001,6.0199999999999996,-67.480000000000004
1280,1782580475180,0.34999999999999998,6.0199999999999996,-67.900000000000006
1281,1782580475230,0.34999999999999998,6.0199999999999996,-70.769999999999996
1282,1782580475297,0.34999999999999998,3.6400000000000001,-70.769999999999996
1283,1782580475346,-3.5,-2.73,-61.670000000000002
1284,1782580475396,-3.5,-2.73,-61.670000000000002
1285,1782580475463,-2.5899999999999999,-3.7799999999999998,-61.530000000000001
1286,1782580475513,-2.5899999999999999,-5.46,-61.25
1287,1782580475529,-2.3799999999999999,-5.46,-61.530000000000001
1288,1782580475563,-2.5899999999999999,-4.5499999999999998,-61.530000000000001
1289,1782580475596,-8.3300000000000001,-5.1100000000000003,-40.460000000000001
1290,1782580475696,-2.5899999999999999,0.14000000000000001,-35.280000000000001
1291,1782580475780,-2.5899999999999999,0.14000000000000001,-32.060000000000002
1292,1782580475846,0.56000000000000005,-7.5599999999999996,-36.189999999999998
1293,1782580475879,0.56000000000000005,-7.7699999999999996,-38.640000000000001
1294,1782580475946,0.56000000000000005,-7.7699999999999996,-39.689999999999998
1295,1782580475996,-0.69999999999999996,-9.4499999999999993,-41.229999999999997
1296,1782580476079,-0.69999999999999996,-10.779999999999999,-43.329999999999998
1297,1782580476096,-4.0599999999999996,4.6200000000000001,-56.840000000000003
1298,1782580476146,-7.7000000000000002,-4.2000000000000002,-56.420000000000002
1299,1782580476296,-7.7000000000000002,-5.6699999999999999,-56.350000000000001
1300,1782580476346,-3.1499999999999999,0.41999999999999998,-56.350000000000001
1301,1782580476396,4.4800000000000004,-5.3899999999999997,-56.07
1302,1782580476446,-3.29,2.73,-59.079999999999998
1303,1782580476495,-3.29,2.73,-59.079999999999998
1304,1782580476562,-3.29,2.73,-58.729999999999997
1305,1782580476596,-2.52,-0.69999999999999996,-57.329999999999998
1306,1782580476695,-0.34999999999999998,1.05,-55.93
1307,1782580476712,8.4000000000000004,-7.7699999999999996,-51.869999999999997
1308,1782580476778,8.4000000000000004,1.3300000000000001,-50.469999999999999
1309,1782580476878,8.4000000000000004,1.3300000000000001,-50.469999999999999
1310,1782580476945,5.1100000000000003,0.97999999999999998,-49.700000000000003
1311,1782580476962,0,-2.3799999999999999,-54.600000000000001
1312,1782580477045,0.69999999999999996,-0.28000000000000003,-54.460000000000001
1313,1782580477062,1.96,-0.28000000000000003,-54.600000000000001
1314,1782580477212,3.2200000000000002,-0.41999999999999998,-54.600000000000001
1315,1782580477212,-3.6400000000000001,-4.2000000000000002,-57.469999999999999
1316,1782580477278,-3.6400000000000001,-4.2000000000000002,-57.469999999999999
1317,1782580477311,-3.5699999999999998,-3.3599999999999999,-57.469999999999999
1318,1782580477328,-2.5899999999999999,-3.3599999999999999,-57.469999999999999
1319,1782580477344,-2.5899999999999999,-3.4300000000000002,-57.469999999999999
1320,1782580477411,-2.5899999999999999,-3.4300000000000002,-57.469999999999999
1321,1782580477545,-1.05,-3.8500000000000001,-54.740000000000002
1322,1782580477595,7,-3.8500000000000001,-54.460000000000001
1323,1782580477661,7,-3.71,-52.990000000000002
1324,1782580477695,7,-3.0800000000000001,-52.710000000000001
1325,1782580477744,5.1799999999999997,-3.0800000000000001,-50.75
1326,1782580477761,-6.0199999999999996,-1.8899999999999999,-34.719999999999999
1327,1782580477827,-4.4800000000000004,-3.0800000000000001,-29.75
1328,1782580477861,-4.4800000000000004,-3.0800000000000001,-24.640000000000001
1329,1782580477928,-3.9199999999999999,-4.7599999999999998,-21.489999999999998
1330,1782580478061,-4.5499999999999998,-0.20999999999999999,-46.759999999999998
1331,1782580478161,-4.9000000000000004,-1.96,-49.07
1332,1782580478211,-7.1399999999999997,-1.96,-49.560000000000002
1333,1782580478244,-8.6099999999999994,-10.85,-49.700000000000003
1334,1782580478277,-8.6099999999999994,-12.74,-49.700000000000003
1335,1782580478311,-8.6099999999999994,-12.74,-50.049999999999997
1336,1782580478361,-1.8899999999999999,-12.74,-51.170000000000002
1337,1782580478411,-0.91000000000000003,-8.2599999999999998,-51.240000000000002
1338,1782580478578,-17.149999999999999,-13.44,-52.780000000000001
1339,1782580478627,-17.149999999999999,-13.44,-52.850000000000001
1340,1782580478677,-17.149999999999999,-6.6500000000000004,-55.229999999999997
1341,1782580478727,2.3799999999999999,-0.34999999999999998,-55.93
1342,1782580478761,2.3799999999999999,4.6900000000000004,-57.329999999999998
1343,1782580478860,7.0700000000000003,23.52,-80.920000000000002
1344,1782580478893,0.48999999999999999,26.670000000000002,-87.010000000000005
1345,1782580478910,-5.7400000000000002,26.670000000000002,-90.510000000000005
1346,1782580478943,-5.7400000000000002,15.960000000000001,-90.510000000000005
1347,1782580478993,-1.3300000000000001,12.25,-90.510000000000005
1348,1782580479027,-1.3300000000000001,3.29,-73.709999999999994
1349,1782580479077,0.070000000000000007,3.29,-70.209999999999994
1350,1782580479160,5.7400000000000002,1.75,-60.130000000000003
1351,1782580479226,-2.3799999999999999,-3.5,-56.280000000000001
1352,1782580479311,-6.6500000000000004,-10.289999999999999,-50.75
1353,1782580479327,-7.5599999999999996,-10.289999999999999,-46.479999999999997
1354,1782580479359,-19.390000000000001,-14.49,-44.729999999999997
1355,1782580479376,-19.390000000000001,-10.99,-40.109999999999999
1356,1782580479476,-6.5800000000000001,6.5800000000000001,-10.359999999999999
1357,1782580479543,-6.5800000000000001,9.7300000000000004,-10.5
1358,1782580479659,1.96,-7.7699999999999996,-48.719999999999999
1359,1782580479743,1.96,-6.5099999999999998,-48.229999999999997
1360,1782580479776,3.2200000000000002,-7.9100000000000001,-48.719999999999999
1361,1782580479843,5.1799999999999997,-6.5099999999999998,-49.210000000000001
1362,1782580479976,-1.54,-3.0800000000000001,-57.82
1363,1782580480009,-7,-3.0800000000000001,-57.189999999999998
1364,1782580480042,-7,-6.2999999999999998,-54.950000000000003
1365,1782580480092,-7.7699999999999996,-6.2999999999999998,-54.530000000000001
1366,1782580480142,6.7199999999999998,-7,-54.32
1367,1782580480193,4.6200000000000001,-7.9800000000000004,-54.32
1368,1782580480259,4.2699999999999996,-7,-55.020000000000003
1369,1782580480325,2.3100000000000001,-1.47,-56.420000000000002
1370,1782580480342,-8.4000000000000004,-1.47,-58.869999999999997
1371,1782580480392,-12.390000000000001,-1.47,-60.899999999999999
1372,1782580480425,-4.0599999999999996,-2.2400000000000002,-63.700000000000003
1373,1782580480525,-4.0599999999999996,-0.56000000000000005,-63.700000000000003
1374,1782580480559,2.3799999999999999,-0.56000000000000005,-61.039999999999999
1375,1782580480626,2.3799999999999999,-0.56000000000000005,-60.899999999999999
1376,1782580480709,-10.57,-7.9100000000000001,18.899999999999999
1377,1782580480809,-11.69,-10.99,23.66
1378,1782580480908,-12.81,-10.99,43.049999999999997
1379,1782580481025,10.220000000000001,5.1799999999999997,18.620000000000001
1380,1782580481092,0.34999999999999998,0.28000000000000003,18.620000000000001
1381,1782580481141,0.34999999999999998,-6.5800000000000001,18.27
1382,1782580481192,0.34999999999999998,-6.5800000000000001,17.850000000000001
1383,1782580481258,-0.070000000000000007,4.6900000000000004,27.440000000000001
1384,1782580481325,-1.54,0.83999999999999997,28.420000000000002
1385,1782580481375,-1.75,-2.73,30.239999999999998
1386,1782580481474,-9.8699999999999992,-2.73,30.239999999999998
1387,1782580481542,7.0700000000000003,1.6100000000000001,42.210000000000001
1388,1782580481624,5.9500000000000002,1.6100000000000001,44.240000000000002
1389,1782580481675,4.5499999999999998,0.20999999999999999,46.200000000000003
1390,1782580481725,-2.1699999999999999,-0.20999999999999999,46.829999999999998
1391,1782580481758,2.5899999999999999,-0.63,51.729999999999997
1392,1782580481791,6.2999999999999998,-0.63,51.799999999999997
1393,1782580481841,6.2999999999999998,-0.63,51.030000000000001
1394,1782580481908,6.2999999999999998,-0.63,52.640000000000001
1395,1782580481924,5.8799999999999999,0.34999999999999998,54.740000000000002
1396,1782580481957,3.7799999999999998,1.6799999999999999,55.509999999999998
1397,1782580481991,2.1699999999999999,1.6799999999999999,55.579999999999998
1398,1782580482024,2.3100000000000001,-11.550000000000001,45.009999999999998
1399,1782580482074,1.3999999999999999,-11.550000000000001,46.130000000000003
1400,1782580482174,-2.8700000000000001,-11.619999999999999,50.75
1401,1782580482224,-2.8700000000000001,-6.8600000000000003,54.530000000000001
1402,1782580482292,9.1699999999999999,-4.2000000000000002,51.100000000000001
1403,1782580482357,9.1699999999999999,1.1200000000000001,51.100000000000001
1404,1782580482407,11.199999999999999,1.1200000000000001,51.100000000000001
1405,1782580482458,11.199999999999999,1.1200000000000001,50.609999999999999
1406,1782580482507,11.199999999999999,1.1200000000000001,51.100000000000001
1407,1782580482541,3.3599999999999999,1.47,57.539999999999999
1408,1782580482690,1.47,0.34999999999999998,57.539999999999999
1409,1782580482724,1.47,0.34999999999999998,57.329999999999998
1410,1782580482790,5.7400000000000002,-1.75,54.039999999999999
1411,1782580482840,5.7400000000000002,-0.56000000000000005,54.039999999999999
1412,1782580482857,6.9299999999999997,-1.75,54.600000000000001
1413,1782580482940,6.9299999999999997,-0.56000000000000005,54.600000000000001
1414,1782580482973,6.9299999999999997,-0.56000000000000005,54.670000000000002
1415,1782580482990,2.4500000000000002,-8.0500000000000007,54.740000000000002
1416,1782580483040,-2.2400000000000002,-8.1899999999999995,52.009999999999998
1417,1782580483140,3.29,-8.1899999999999995,52.009999999999998
1418,1782580483207,3.5,-8.1899999999999995,52.640000000000001
1419,1782580483273,3.29,-1.6100000000000001,52.780000000000001
1420,1782580483340,6.3700000000000001,-7.7699999999999996,55.859999999999999
1421,1782580483390,5.8799999999999999,-7.2800000000000002,57.049999999999997
1422,1782580483440,5.8799999999999999,-4.1299999999999999,58.380000000000003
1423,1782580483506,4.9699999999999998,-4.1299999999999999,60.969999999999999
1424,1782580483557,2.2400000000000002,-4.1299999999999999,61.18
1425,1782580483622,10.15,-1.75,62.509999999999998
1426,1782580483673,10.01,-0.20999999999999999,64.120000000000005
1427,1782580483722,9.0999999999999996,-0.14000000000000001,65.450000000000003
1428,1782580483773,6.9299999999999997,3.0800000000000001,65.659999999999997
1429,1782580483906,7.3499999999999996,4.9699999999999998,31.43
1430,1782580483956,-0.48999999999999999,2.52,30.870000000000001
1431,1782580484023,-1.1899999999999999,1.3999999999999999,30.309999999999999
1432,1782580484106,-3.3599999999999999,-1.6100000000000001,30.239999999999998
1433,1782580484189,-1.6100000000000001,-2.3100000000000001,35.909999999999997
1434,1782580484239,-0.91000000000000003,-2.3799999999999999,36.960000000000001
1435,1782580484307,-0.20999999999999999,-3.8500000000000001,37.590000000000003
1436,1782580484356,-0.20999999999999999,-2.3799999999999999,37.659999999999997
1437,1782580484372,4.3399999999999999,-2.1000000000000001,48.159999999999997
1438,1782580484422,5.6699999999999999,-1.3300000000000001,48.649999999999999
1439,1782580484472,5.9500000000000002,-1.3300000000000001,48.649999999999999
1440,1782580484539,5.9500000000000002,0.41999999999999998,48.509999999999998
1441,1782580484556,9.8699999999999992,0.41999999999999998,49
1442,1782580484572,5.9500000000000002,0.41999999999999998,49
1443,1782580484655,8.9600000000000009,1.75,58.869999999999997
1444,1782580484755,8.6099999999999994,1.75,61.740000000000002
1445,1782580484855,8.6099999999999994,2.1699999999999999,61.740000000000002
1446,1782580484921,1.96,0.20999999999999999,45.219999999999999
1447,1782580484955,1.96,0.20999999999999999,42.770000000000003
1448,1782580485005,3.29,0.20999999999999999,39.549999999999997
1449,1782580485072,5.9500000000000002,-0.83999999999999997,36.539999999999999
1450,1782580485121,5.9500000000000002,-1.6799999999999999,35.210000000000001
1451,1782580485222,6.6500000000000004,3.1499999999999999,43.189999999999998
1452,1782580485255,5.9500000000000002,3.1499999999999999,43.329999999999998
1453,1782580485305,5.9500000000000002,3.0099999999999998,46.340000000000003
1454,1782580485372,0.77000000000000002,-2.1699999999999999,48.509999999999998
1455,1782580485438,6.8600000000000003,-4.3399999999999999,49.140000000000001
1456,1782580485488,1.54,-6.0199999999999996,49.560000000000002
1457,1782580485571,0.69999999999999996,-7.0700000000000003,49.700000000000003
1458,1782580485605,0.69999999999999996,-4.3399999999999999,50.68
1459,1782580485638,1.54,-4.3399999999999999,51.170000000000002
1460,1782580485687,3.29,-4.2000000000000002,55.369999999999997
1461,1782580485771,-2290.6799999999998,-161.49000000000001,55.859999999999999
1462,1782580485821,0.14000000000000001,-4.2000000000000002,55.93
1463,1782580485871,-4.0599999999999996,-4.2000000000000002,55.93
1464,1782580485971,5.5300000000000002,-7.9800000000000004,55.020000000000003
1465,1782580486020,8.1199999999999992,-7.9800000000000004,55.159999999999997
1466,1782580486088,8.1199999999999992,-2.5899999999999999,55.159999999999997
1467,1782580486138,8.1199999999999992,-2.5899999999999999,56.140000000000001
1468,1782580486187,5.5300000000000002,-2.5899999999999999,56.490000000000002
1469,1782580486221,2.4500000000000002,-0.56000000000000005,58.240000000000002
1470,1782580486254,1.26,-2.5899999999999999,60.899999999999999
1471,1782580486287,5.3899999999999997,-1.6100000000000001,56.350000000000001
1472,1782580486387,5.3899999999999997,2.1699999999999999,57.189999999999998
1473,1782580486470,5.3899999999999997,4.4100000000000001,59.57
1474,1782580486487,3.0800000000000001,4.4100000000000001,59.640000000000001
1475,1782580486521,9.8000000000000007,2.4500000000000002,55.649999999999999
1476,1782580486554,9.2400000000000002,2.4500000000000002,56.840000000000003
1477,1782580486621,4.0599999999999996,-2.0299999999999998,56.840000000000003
1478,1782580486720,2.8700000000000001,-2.0299999999999998,57.329999999999998
1479,1782580486804,-2.5899999999999999,-3.9900000000000002,53.759999999999998
1480,1782580486837,-25.690000000000001,-17.010000000000002,53.759999999999998
1481,1782580486904,-29.82,-17.010000000000002,54.18
1482,1782580486970,-29.82,-17.850000000000001,56.07
1483,1782580487037,8.4700000000000006,-5.9500000000000002,37.030000000000001
1484,1782580487137,8.4700000000000006,-5.9500000000000002,33.25
1485,1782580487153,8.4700000000000006,-5.9500000000000002,30.449999999999999
1486,1782580487220,7.21,-7.4900000000000002,26.949999999999999
1487,1782580487303,6.4400000000000004,-0.69999999999999996,39.899999999999999
1488,1782580487386,4.2699999999999996,-2.52,40.32
1489,1782580487453,-1.3999999999999999,-2.52,43.539999999999999
1490,1782580487520,3.29,-9.0299999999999994,47.810000000000002
1491,1782580487586,3.29,-8.5399999999999991,50.119999999999997
1492,1782580487636,3.29,-5.9500000000000002,50.609999999999999
1493,1782580487686,4.9000000000000004,-5.8099999999999996,51.310000000000002
1494,1782580487736,4.9000000000000004,-2.7999999999999998,52.219999999999999
1495,1782580487803,6.8600000000000003,-2.8700000000000001,54.740000000000002
1496,1782580487853,6.4400000000000004,0.63,56.490000000000002
1497,1782580487920,6.4400000000000004,3.5,56.630000000000003
1498,1782580487953,6.4400000000000004,3.7799999999999998,57.82
1499,1782580488036,8.3300000000000001,2.1699999999999999,60.829999999999998
1500,1782580488069,4.1299999999999999,2.1699999999999999,60.759999999999998
1501,1782580488136,4.1299999999999999,2.1699999999999999,59.359999999999999
1502,1782580488235,4.1299999999999999,2.1699999999999999,59.149999999999999
1503,1782580488286,3.71,-1.96,60.969999999999999
1504,1782580488335,3.5,-2.3100000000000001,60.969999999999999
1505,1782580488385,3.5,-3.3599999999999999,60.969999999999999
1506,1782580488452,0.48999999999999999,-3.3599999999999999,60.969999999999999
1507,1782580488502,-0.56000000000000005,-3.3599999999999999,60.549999999999997
1508,1782580488552,-3.71,-4.9000000000000004,60.549999999999997
1509,1782580488619,9.5899999999999999,-0.63,35
1510,1782580488668,9.5899999999999999,0.41999999999999998,34.229999999999997
1511,1782580488718,8.4000000000000004,0.48999999999999999,33.950000000000003
1512,1782580488736,7.3499999999999996,3.0099999999999998,33.670000000000002
1513,1782580488785,5.6699999999999999,3.0099999999999998,33.670000000000002
1514,1782580488819,5.5300000000000002,3.71,33.670000000000002
1515,1782580488902,-0.34999999999999998,-2.3100000000000001,28.84
1516,1782580488969,2.8700000000000001,-1.96,28.489999999999998
1517,1782580489035,1.3300000000000001,-0.14000000000000001,28.07
1518,1782580489118,1.6100000000000001,-0.34999999999999998,44.380000000000003
1519,1782580489169,1.6100000000000001,-2.7999999999999998,45.43
1520,1782580489234,1.6100000000000001,-4.1299999999999999,48.579999999999998
1521,1782580489285,-2.3799999999999999,-4.1299999999999999,49.280000000000001
1522,1782580489334,-5.3200000000000003,-4.1299999999999999,49.630000000000003
1523,1782580489368,6.9299999999999997,0.63,52.009999999999998
1524,1782580489434,6.9299999999999997,0.63,52.009999999999998
1525,1782580489501,6.5800000000000001,0.63,52.920000000000002
1526,1782580489535,6.4400000000000004,0.63,53.899999999999999
1527,1782580489568,0.69999999999999996,0.63,54.109999999999999
1528,1782580489635,9.9399999999999995,-1.96,56.909999999999997
1529,1782580489684,9.9399999999999995,-1.96,57.399999999999999
1530,1782580489785,5.6699999999999999,-1.96,59.57
1531,1782580489901,-2.52,-2.8700000000000001,61.670000000000002
1532,1782580489950,-5.04,-3.9900000000000002,61.390000000000001
1533,1782580490051,-5.04,-3.9900000000000002,57.539999999999999
1534,1782580490135,-7.21,0.83999999999999997,31.780000000000001
1535,1782580490201,0.070000000000000007,-1.96,31.780000000000001
1536,1782580490234,5.6699999999999999,1.26,31.57
1537,1782580490267,5.6699999999999999,2.1000000000000001,31.359999999999999
1538,1782580490334,5.6699999999999999,2.1000000000000001,31.219999999999999
1539,1782580490384,-1.54,-2.5899999999999999,45.640000000000001
1540,1782580490450,0.070000000000000007,0.070000000000000007,47.390000000000001
1541,1782580490500,-1.54,3.1499999999999999,49.280000000000001
1542,1782580490567,0.070000000000000007,3.1499999999999999,50.049999999999997
1543,1782580490600,1.3300000000000001,-0.14000000000000001,57.68
1544,1782580490684,1.3300000000000001,-4.8300000000000001,59.5
1545,1782580490733,6.6500000000000004,-3.1499999999999999,59.710000000000001
1546,1782580490817,9.0299999999999994,-3.1499999999999999,59.710000000000001
1547,1782580490867,9.3100000000000005,-3.1499999999999999,59.710000000000001
1548,1782580490917,-0.69999999999999996,1.54,56
1549,1782580490966,-1.6100000000000001,1.54,56.560000000000002
1550,1782580491017,-1.6100000000000001,2.1000000000000001,56.560000000000002
1551,1782580491083,-0.77000000000000002,2.1000000000000001,56.560000000000002
1552,1782580491116,-0.77000000000000002,2.1000000000000001,55.299999999999997
1553,1782580491183,1.05,2.1000000000000001,55.090000000000003
1554,1782580491200,2.5899999999999999,3.0099999999999998,43.119999999999997
1555,1782580491266,2.5899999999999999,3.0099999999999998,43.609999999999999
1556,1782580491316,2.5899999999999999,3.0099999999999998,45.359999999999999
1557,1782580491366,-3.5,2.3100000000000001,45.850000000000001
1558,1782580491416,-3.71,-2.8700000000000001,46.060000000000002
1559,1782580491466,-1.1200000000000001,-0.28000000000000003,52.219999999999999
1560,1782580491533,-0.77000000000000002,-0.28000000000000003,52.079999999999998
1561,1782580491583,-0.77000000000000002,-3.5,50.82
1562,1782580491683,2.1699999999999999,-3.5,49.700000000000003
1563,1782580491732,1.47,-1.54,51.659999999999997
1564,1782580491749,1.47,-1.6100000000000001,51.659999999999997
1565,1782580491816,1.47,-3.5,51.659999999999997
1566,1782580491866,-0.41999999999999998,-3.5,51.310000000000002
1567,1782580491882,-0.41999999999999998,-4.2000000000000002,51.310000000000002
1568,1782580491932,-0.41999999999999998,-4.2000000000000002,51.450000000000003
1569,1782580491966,-1.47,-3.71,52.850000000000001
1570,1782580491999,5.8799999999999999,-3.71,52.850000000000001
1571,1782580492066,5.8799999999999999,-3.71,52.850000000000001
1572,1782580492116,8.6799999999999997,-3.71,52.850000000000001
1573,1782580492182,6.9299999999999997,-3.71,54.25
1574,1782580492249,-2.2400000000000002,-2.7999999999999998,57.890000000000001
1575,1782580492299,1.96,0,58.659999999999997
1576,1782580492399,8.2599999999999998,4.1299999999999999,61.390000000000001
1577,1782580492449,10.85,4.1299999999999999,61.390000000000001
1578,1782580492548,5.1100000000000003,-1.6799999999999999,50.049999999999997
1579,1782580492582,5.25,-1.6799999999999999,49.350000000000001
1580,1782580492649,5.25,-2.5899999999999999,48.859999999999999
1581,1782580492732,-7.5599999999999996,-4.0599999999999996,51.869999999999997
1582,1782580492765,-4.4100000000000001,-4.6200000000000001,51.659999999999997
1583,1782580492798,10.57,-4.0599999999999996,51.590000000000003
1584,1782580492832,12.81,-4.0599999999999996,51.659999999999997
1585,1782580492898,16.309999999999999,-4.0599999999999996,52.43
1586,1782580492932,16.309999999999999,-2.1000000000000001,52.43
1587,1782580492982,8.0500000000000007,0.14000000000000001,54.740000000000002
1588,1782580493032,8.3300000000000001,-0.20999999999999999,54.950000000000003
1589,1782580493082,8.0500000000000007,1.8899999999999999,55.020000000000003
1590,1782580493131,7.2800000000000002,-0.20999999999999999,55.649999999999999
1591,1782580493198,4.2000000000000002,1.8899999999999999,55.649999999999999
1592,1782580493281,1.3300000000000001,5.8099999999999996,58.799999999999997
1593,1782580493348,-4.6200000000000001,5.8099999999999996,56.770000000000003
1594,1782580493382,-5.7400000000000002,-1.1899999999999999,55.090000000000003
1595,1782580493415,-5.7400000000000002,-8.4000000000000004,55.020000000000003
1596,1782580493448,-5.7400000000000002,-8.4000000000000004,54.950000000000003
1597,1782580493465,2.0299999999999998,-9.6600000000000001,51.520000000000003
1598,1782580493498,7.2800000000000002,-9.6600000000000001,50.259999999999998
1599,1782580493515,8.2599999999999998,-12.039999999999999,48.93
1600,1782580493581,8.4700000000000006,-8.6099999999999994,46.689999999999998
1601,1782580493614,3.0099999999999998,-3.71,51.240000000000002
1602,1782580493681,3.7799999999999998,-1.75,52.920000000000002
1603,1782580493731,3.7799999999999998,1.54,52.920000000000002
1604,1782580493748,4.4800000000000004,1.54,54.109999999999999
1605,1782580493797,4.4800000000000004,1.54,54.109999999999999
1606,1782580493848,15.539999999999999,2.7999999999999998,48.020000000000003
1607,1782580493897,14.42,5.04,47.039999999999999
1608,1782580493947,9.7300000000000004,8.8200000000000003,44.380000000000003
1609,1782580494064,6.1600000000000001,12.6,39.479999999999997
1610,1782580494097,6.1600000000000001,12.6,38.57
1611,1782580494164,-10.43,2.6600000000000001,53.479999999999997
1612,1782580494231,-10.43,-1.6100000000000001,54.32
1613,1782580494281,-10.43,3.8500000000000001,53.479999999999997
1614,1782580494381,1.75,-0.69999999999999996,55.159999999999997
1615,1782580494430,2.3799999999999999,-1.1899999999999999,55.509999999999998
1616,1782580494480,5.1100000000000003,0.34999999999999998,55.579999999999998
1617,1782580494530,6.5800000000000001,-0.77000000000000002,56.420000000000002
1618,1782580494597,5.1100000000000003,0.34999999999999998,57.329999999999998
1619,1782580494680,1.8200000000000001,-10.57,46.549999999999997
1620,1782580494697,1.8200000000000001,-10.289999999999999,47.390000000000001
1621,1782580494730,3.3599999999999999,-6.2999999999999998,50.960000000000001
1622,1782580494747,3.3599999999999999,-4.9000000000000004,51.869999999999997
1623,1782580494797,3.3599999999999999,-2.73,54.670000000000002
1624,1782580494863,3.1499999999999999,-1.75,54.950000000000003
1625,1782580494947,13.58,-2.6600000000000001,13.720000000000001
1626,1782580495013,17.640000000000001,-2.2400000000000002,10.359999999999999
1627,1782580495048,17.640000000000001,0.91000000000000003,7.4199999999999999
1628,1782580495064,17.640000000000001,0.91000000000000003,4.1299999999999999
1629,1782580495130,16.940000000000001,1.96,-9.5899999999999999
1630,1782580495163,2.73,-3.1499999999999999,-63.909999999999997
1631,1782580495197,2.73,-5.25,-63.909999999999997
1632,1782580495296,-3.1499999999999999,-3.1499999999999999,-63.909999999999997
1633,1782580495363,-6.5099999999999998,-6.2999999999999998,-63.210000000000001
1634,1782580495463,1.26,-3.5699999999999998,-40.530000000000001
1635,1782580495546,8.3300000000000001,-3.29,-41.93
1636,1782580495663,13.65,0.34999999999999998,-46.899999999999999
1637,1782580495713,13.65,0.48999999999999999,-50.329999999999998
1638,1782580495746,-4.9000000000000004,-0.48999999999999999,-56.840000000000003
1639,1782580495813,0.56000000000000005,0,-57.399999999999999
1640,1782580495846,6.6500000000000004,7.2800000000000002,-59.079999999999998
1641,1782580495896,6.6500000000000004,7.2800000000000002,-59.079999999999998
1642,1782580495945,6.6500000000000004,7.2800000000000002,-59.079999999999998
1643,1782580495979,0.48999999999999999,6.79,-58.170000000000002
1644,1782580495996,-3.9199999999999999,1.75,-55.719999999999999
1645,1782580496112,2.1699999999999999,-11.9,-49.630000000000003
1646,1782580496162,2.1699999999999999,-11.9,-50.329999999999998
1647,1782580496212,3.7799999999999998,-10.5,-51.659999999999997
1648,1782580496262,5.5999999999999996,-5.5300000000000002,-51.729999999999997
1649,1782580496295,7.6299999999999999,7.8399999999999999,-67.269999999999996
1650,1782580496345,7.6299999999999999,5.6699999999999999,-66.920000000000002
1651,1782580496395,-5.25,-0.070000000000000007,-66.359999999999999
1652,1782580496462,-10.359999999999999,-3.9900000000000002,-61.25
1653,1782580496496,-14.279999999999999,-3.9900000000000002,-60.200000000000003
1654,1782580496595,-8.5399999999999991,-6.7199999999999998,-34.649999999999999
1655,1782580496662,-8.5399999999999991,-3.2200000000000002,-33.390000000000001
1656,1782580496712,-8.4700000000000006,0.69999999999999996,-32.759999999999998
1657,1782580496762,-4.6200000000000001,0.69999999999999996,-31.780000000000001
1658,1782580496812,-6.8600000000000003,1.6100000000000001,-47.25
1659,1782580496912,-11.550000000000001,0.97999999999999998,-49.07
1660,1782580496962,-11.550000000000001,0.69999999999999996,-49.210000000000001
1661,1782580496978,-11.550000000000001,0.69999999999999996,-52.289999999999999
1662,1782580497028,3.9199999999999999,-2.52,-52.780000000000001
1663,1782580497078,2.0299999999999998,-12.039999999999999,-52.079999999999998
1664,1782580497128,3.2200000000000002,-12.039999999999999,-52.079999999999998
1665,1782580497228,3.2200000000000002,-10.220000000000001,-53.969999999999999
1666,1782580497278,4.1299999999999999,-10.220000000000001,-54.390000000000001
1667,1782580497311,4.1299999999999999,-7.7699999999999996,-56.840000000000003
1668,1782580497328,4.1299999999999999,-5.25,-57.890000000000001
1669,1782580497362,7.0700000000000003,-4.5499999999999998,-60.969999999999999
1670,1782580497428,7.0700000000000003,0,-61.18
1671,1782580497461,7.0700000000000003,0,-60.969999999999999
1672,1782580497611,3.5,2.7999999999999998,-64.260000000000005
1673,1782580497694,2.73,-1.6100000000000001,-64.260000000000005
1674,1782580497761,-3.0099999999999998,0,-65.310000000000002
1675,1782580497811,-7.4199999999999999,-1.6100000000000001,-65.310000000000002
1676,1782580497878,-28.210000000000001,-5.25,-59.5
1677,1782580497927,-28.210000000000001,-3.1499999999999999,-59.5
1678,1782580497960,-18.129999999999999,-3.1499999999999999,-56.210000000000001
1679,1782580498061,-2.3799999999999999,-2.1699999999999999,-54.32
1680,1782580498110,2.2400000000000002,-1.6799999999999999,-53.549999999999997
1681,1782580498194,7.0700000000000003,-1.26,-21.350000000000001
1682,1782580498261,10.92,-3.0099999999999998,-24.920000000000002
1683,1782580498394,10.92,-6.2300000000000004,-29.469999999999999
1684,1782580498444,3.0800000000000001,-6.2300000000000004,-32.200000000000003
1685,1782580498510,-7.9800000000000004,-2.1699999999999999,-54.460000000000001
1686,1782580498661,-3.5,4.4100000000000001,-58.310000000000002
1687,1782580498710,-3.5,4.4100000000000001,-58.659999999999997
1688,1782580498793,0,1.8899999999999999,-61.460000000000001
1689,1782580498860,4.7599999999999998,1.8899999999999999,-61.460000000000001
1690,1782580498960,4.7599999999999998,3.7799999999999998,-62.509999999999998
1691,1782580499026,3.7799999999999998,2.6600000000000001,-56.770000000000003
1692,1782580499061,3.7799999999999998,2.6600000000000001,-56.350000000000001
1693,1782580499093,3.7799999999999998,1.8899999999999999,-53.759999999999998
1694,1782580499143,-2.0299999999999998,1.1899999999999999,-53.549999999999997
1695,1782580499160,-3.5,-5.1100000000000003,-50.049999999999997
1696,1782580499226,-8.1899999999999995,-7,-49.280000000000001
1697,1782580499293,2.5899999999999999,2.9399999999999999,-59.710000000000001
1698,1782580499376,2.5899999999999999,2.52,-59.079999999999998
1699,1782580499443,-3.7799999999999998,-0.56000000000000005,-58.240000000000002
1700,1782580499476,-3.7799999999999998,-2.52,-56.700000000000003
1701,1782580499493,-3.7799999999999998,-2.8700000000000001,-56.140000000000001
1702,1782580499526,-4.6200000000000001,-2.52,-53.340000000000003
1703,1782580499626,-8.2599999999999998,-0.91000000000000003,-53.340000000000003
1704,1782580499693,-4.6200000000000001,-1.96,-52.850000000000001
1705,1782580499742,-3.0800000000000001,-0.91000000000000003,-53.340000000000003
1706,1782580499809,36.119999999999997,3.71,-57.609999999999999
1707,1782580499876,36.119999999999997,5.25,-59.990000000000002
1708,1782580499959,36.119999999999997,3.71,-59.990000000000002
1709,1782580500076,6.79,12.109999999999999,-57.82
1710,1782580500125,15.26,-11.619999999999999,-57.609999999999999
1711,1782580500159,15.26,-11.619999999999999,-57.609999999999999
1712,1782580500175,15.26,-7.1399999999999997,-57.609999999999999
1713,1782580500192,6.79,-4.4100000000000001,-56.700000000000003
1714,1782580500242,6.1600000000000001,-7.1399999999999997,-53.270000000000003
1715,1782580500259,-1.47,-12.67,-6.1600000000000001
1716,1782580500325,-1.47,-12.67,-4.2699999999999996
1717,1782580500408,-0.070000000000000007,-11.48,-3.9199999999999999
1718,1782580500492,-2.0299999999999998,-11.48,-2.73
1719,1782580500525,-2.0299999999999998,-9.1699999999999999,-1.8899999999999999
1720,1782580500542,-2.3100000000000001,-3.9199999999999999,-1.8899999999999999
1721,1782580500575,-0.83999999999999997,-5.8799999999999999,-1.8899999999999999
