index,date,ACCEL_X,ACCEL_Y,ACCEL_Z
0,1782580170153,0.050000000000000003,-0.040000000000000001,1.01
1,1782580170170,0.050000000000000003,-0.040000000000000001,1.01
2,1782580170204,0.040000000000000001,-0.040000000000000001,1.01
3,1782580170270,0.040000000000000001,-0.040000000000000001,1.01
4,1782580170836,0.050000000000000003,-0.040000000000000001,1.01
5,1782580170869,0.050000000000000003,-0.040000000000000001,1.01
6,1782580170919,0.050000000000000003,-0.040000000000000001,1.01
7,1782580170986,0.050000000000000003,-0.040000000000000001,1.01
8,1782580171052,0.040000000000000001,-0.040000000000000001,1.01
9,1782580171086,0.040000000000000001,-0.040000000000000001,1.01
10,1782580171136,0.040000000000000001,-0.040000000000000001,1.01
11,1782580171152,0.050000000000000003,-0.040000000000000001,1.01
12,1782580171169,0.050000000000000003,-0.040000000000000001,1.01
13,1782580171186,0.050000000000000003,-0.040000000000000001,1.01
14,1782580171219,0.050000000000000003,-0.040000000000000001,1.01
15,1782580171236,0.050000000000000003,-0.040000000000000001,1.01
16,1782580171286,0.050000000000000003,-0.040000000000000001,1.01
17,1782580171336,0.050000000000000003,-0.040000000000000001,1.01
18,1782580171402,0.040000000000000001,-0.040000000000000001,1.01
19,1782580171436,0.040000000000000001,-0.040000000000000001,1.01
20,1782580171486,0.040000000000000001,-0.040000000000000001,1.01
21,1782580171536,0.040000000000000001,-0.040000000000000001,1.01
22,1782580171586,0.040000000000000001,-0.040000000000000001,1.01
23,1782580171636,0.040000000000000001,-0.050000000000000003,1.01
24,1782580171686,0.040000000000000001,-0.050000000000000003,1.02
25,1782580171719,0.050000000000000003,-0.050000000000000003,1.02
26,1782580171737,0.050000000000000003,-0.040000000000000001,1.02
27,1782580171769,0.050000000000000003,-0.040000000000000001,1.02
28,1782580171785,0.050000000000000003,-0.040000000000000001,1.02
29,1782580171802,0.050000000000000003,-0.040000000000000001,1.01
30,1782580171869,0.040000000000000001,-0.040000000000000001,1.01
31,1782580403361,0.17999999999999999,-0.78000000000000003,1.1100000000000001
32,1782580403407,0.19,-0.78000000000000003,1.1100000000000001
33,1782580403458,0.19,-0.89000000000000001,1.3200000000000001
34,1782580403508,0.19,-0.89000000000000001,1.1100000000000001
35,1782580403524,0.16,-0.87,1.28
36,1782580403540,0.14999999999999999,-0.87,1.28
37,1782580403608,0.38,-0.55000000000000004,0.78000000000000003
38,1782580403640,0.37,-0.55000000000000004,0.68999999999999995
39,1782580403707,0.31,-0.55000000000000004,0.68999999999999995
40,1782580403773,0.28999999999999998,-0.62,0.54000000000000004
41,1782580403841,0.28999999999999998,-0.67000000000000004,0.68999999999999995
42,1782580403873,0.28999999999999998,-0.67000000000000004,0.73999999999999999
43,1782580403906,0.34999999999999998,-0.67000000000000004,0.73999999999999999
44,1782580403924,0.34999999999999998,-0.67000000000000004,0.73999999999999999
45,1782580403974,0.48999999999999999,-0.81000000000000005,1.1200000000000001
46,1782580404024,0.52000000000000002,-0.81000000000000005,1.1200000000000001
47,1782580404040,0.52000000000000002,-0.79000000000000004,0.97999999999999998
48,1782580404056,0.48999999999999999,-0.83999999999999997,1.1200000000000001
49,1782580404090,0.46999999999999997,-0.79000000000000004,0.97999999999999998
50,1782580404123,0.46999999999999997,-0.79000000000000004,0.84999999999999998
51,1782580404256,0.33000000000000002,-0.87,1.0700000000000001
52,1782580404357,0.33000000000000002,-0.81999999999999995,1.0700000000000001
53,1782580404457,0.32000000000000001,-0.72999999999999998,0.77000000000000002
54,1782580404507,0.32000000000000001,-0.73999999999999999,0.90000000000000002
55,1782580404573,0.29999999999999999,-0.73999999999999999,0.82999999999999996
56,1782580404640,0.32000000000000001,-0.66000000000000003,0.82999999999999996
57,1782580404673,0.31,-0.66000000000000003,0.82999999999999996
58,1782580404757,0.17000000000000001,-0.23999999999999999,0.83999999999999997
59,1782580404773,0.17000000000000001,-0.32000000000000001,1
60,1782580404839,0.17000000000000001,-0.33000000000000002,1.1000000000000001
61,1782580404906,0.19,-0.41999999999999998,1.1100000000000001
62,1782580404989,0.28000000000000003,-0.40999999999999998,0.78000000000000003
63,1782580405023,0.27000000000000002,-0.39000000000000001,0.73999999999999999
64,1782580405105,0.22,-0.31,0.69999999999999996
65,1782580405239,0.14999999999999999,-0.27000000000000002,0.94999999999999996
66,1782580405272,0.14999999999999999,-0.29999999999999999,1
67,1782580405356,0.16,-0.38,1.21
68,1782580405422,0.22,-0.44,1.21
69,1782580405522,0.14000000000000001,-0.16,1.02
70,1782580405556,0.17000000000000001,-0.23000000000000001,1.02
71,1782580405606,0.17999999999999999,-0.23000000000000001,0.95999999999999996
72,1782580405655,0.22,-0.20000000000000001,0.95999999999999996
73,1782580405688,0.16,-0.070000000000000007,0.85999999999999999
74,1782580405722,0.17000000000000001,-0.050000000000000003,0.85999999999999999
75,1782580405805,0.17999999999999999,-0.050000000000000003,0.85999999999999999
76,1782580405905,0.17000000000000001,-0.13,0.88
77,1782580405939,0.14000000000000001,0,0.90000000000000002
78,1782580406005,0.13,0.029999999999999999,0.90000000000000002
79,1782580406071,0.11,0.029999999999999999,1.04
80,1782580406105,0.089999999999999997,0.029999999999999999,1.0900000000000001
81,1782580406205,0.089999999999999997,-0.14000000000000001,1.0900000000000001
82,1782580406238,0.089999999999999997,-0.14000000000000001,1.0900000000000001
83,1782580406271,0.089999999999999997,-0.14000000000000001,1
84,1782580406305,0.13,-0.10000000000000001,1
85,1782580406321,0.13,-0.10000000000000001,0.94999999999999996
86,1782580406339,0.13,-0.10000000000000001,0.94999999999999996
87,1782580406388,0.11,-0.10000000000000001,0.94999999999999996
88,1782580406438,0.11,-0.10000000000000001,0.93999999999999995
89,1782580406504,0.11,-0.10000000000000001,0.94999999999999996
90,1782580406538,0.11,-0.10000000000000001,0.95999999999999996
91,1782580406555,0.12,-0.10000000000000001,1
92,1782580406688,0.11,-0.070000000000000007,1
93,1782580406688,0.11,-0.070000000000000007,1.01
94,1782580406721,0.089999999999999997,-0.070000000000000007,1.01
95,1782580406755,0.070000000000000007,-0.070000000000000007,1.02
96,1782580406822,0.070000000000000007,-0.050000000000000003,1.02
97,1782580406854,0.080000000000000002,-0.029999999999999999,1.04
98,1782580406938,0.080000000000000002,-0.12,1.1499999999999999
99,1782580407039,0.10000000000000001,-0.19,1.04
100,1782580407071,0.10000000000000001,-0.19,1.0600000000000001
101,1782580407104,0.11,-0.23000000000000001,1.02
102,1782580407171,0.14000000000000001,-0.22,1.01
103,1782580407370,0.17000000000000001,-0.19,0.95999999999999996
104,1782580407388,0.17000000000000001,-0.19,1.02
105,1782580407420,0.16,-0.20000000000000001,1.03
106,1782580407470,0.16,-0.20000000000000001,1.0800000000000001
107,1782580407571,0.11,-0.17000000000000001,1.0900000000000001
108,1782580407671,0.11,-0.10000000000000001,1.05
109,1782580407704,0.13,-0.089999999999999997,1.05
110,1782580407720,0.14000000000000001,-0.070000000000000007,1.03
111,1782580407753,0.16,-0.070000000000000007,1.0800000000000001
112,1782580407821,0.17000000000000001,-0.070000000000000007,1.03
113,1782580407903,0.14000000000000001,0.080000000000000002,0.97999999999999998
114,1782580408020,0.14000000000000001,0.11,0.94999999999999996
115,1782580408087,0.11,0.13,0.97999999999999998
116,1782580408153,0.13,0.17000000000000001,0.97999999999999998
117,1782580408186,0.12,0.19,0.97999999999999998
118,1782580408270,0.12,0.19,0.97999999999999998
119,1782580408421,0.23999999999999999,0.19,1.05
120,1782580408469,0.14000000000000001,0.20000000000000001,0.97999999999999998
121,1782580408503,0.11,0.19,0.94999999999999996
122,1782580408569,0.089999999999999997,0.19,0.94999999999999996
123,1782580408622,0.070000000000000007,0.17999999999999999,0.94999999999999996
124,1782580408686,0.13,0.14999999999999999,1.05
125,1782580408736,0.16,0.14999999999999999,0.94999999999999996
126,1782580408786,0.17000000000000001,0.14999999999999999,0.94999999999999996
127,1782580408886,0.17999999999999999,0.14999999999999999,0.93999999999999995
128,1782580408985,0.13,0.089999999999999997,0.93999999999999995
129,1782580409002,0.14000000000000001,0.089999999999999997,0.93999999999999995
130,1782580409052,0.14000000000000001,0.12,0.95999999999999996
131,1782580409102,0.14000000000000001,0.12,0.95999999999999996
132,1782580409185,0.11,0.070000000000000007,1.0600000000000001
133,1782580409285,0.10000000000000001,0.059999999999999998,1.05
134,1782580409368,0.11,0.029999999999999999,1.03
135,1782580409385,0.11,0.02,1.03
136,1782580409419,0.12,0.02,1.03
137,1782580409452,0.11,0.059999999999999998,0.90000000000000002
138,1782580409551,0.14999999999999999,0.029999999999999999,1
139,1782580409635,0.14999999999999999,0.02,1
140,1782580409702,0.13,0.040000000000000001,0.89000000000000001
141,1782580409768,0.19,0.070000000000000007,0.89000000000000001
142,1782580409834,0.20000000000000001,0.040000000000000001,0.89000000000000001
143,1782580409951,0.22,0.050000000000000003,0.94999999999999996
144,1782580409984,0.14999999999999999,0.050000000000000003,0.84999999999999998
145,1782580410001,0.070000000000000007,0.12,0.84999999999999998
146,1782580410035,0.070000000000000007,0.13,0.82999999999999996
147,1782580410084,0.070000000000000007,0.13,0.82999999999999996
148,1782580410118,0.050000000000000003,0.12,0.93000000000000005
149,1782580410184,0.050000000000000003,0.050000000000000003,0.97999999999999998
150,1782580410324,-0.16,0.14000000000000001,1.02
151,1782580410351,-0.20000000000000001,0.14000000000000001,1.03
152,1782580410385,-0.16,0.14000000000000001,1.0900000000000001
153,1782580410401,-0.16,0.17000000000000001,1.0900000000000001
154,1782580410418,-0.10000000000000001,0.17000000000000001,1.1699999999999999
155,1782580410452,0.050000000000000003,0.080000000000000002,1.0900000000000001
156,1782580410484,-0.22,0.14000000000000001,1.3100000000000001
157,1782580410568,-0.22,0.16,1.27
158,1782580410651,-0.14999999999999999,0.26000000000000001,1.1699999999999999
159,1782580410701,-0.14000000000000001,0.26000000000000001,0.92000000000000004
160,1782580410718,-0.11,0.14000000000000001,0.93999999999999995
161,1782580410768,-0.12,0.14000000000000001,0.88
162,1782580410834,-0.12,0.17000000000000001,0.88
163,1782580410934,-0.12,0.17000000000000001,0.88
164,1782580410984,-0.12,0.17000000000000001,0.88
165,1782580411084,-0.14000000000000001,0.12,1.0800000000000001
166,1782580411135,-0.14000000000000001,0.080000000000000002,1.0800000000000001
167,1782580411168,-0.14000000000000001,0.070000000000000007,1.0900000000000001
168,1782580411236,-0.14000000000000001,0.029999999999999999,1.0900000000000001
169,1782580411300,-0.14000000000000001,0.029999999999999999,1.0900000000000001
170,1782580411350,-0.13,0.029999999999999999,1.0800000000000001
171,1782580411418,-0.12,0.02,1.0800000000000001
172,1782580411518,-0.12,0.02,1.0800000000000001
173,1782580411550,-0.12,0.029999999999999999,1.0800000000000001
174,1782580411600,-0.12,0.040000000000000001,1.05
175,1782580411666,-0.11,0.040000000000000001,0.88
176,1782580411750,-0.11,0.040000000000000001,1.1399999999999999
177,1782580411800,-0.11,0.029999999999999999,1.1399999999999999
178,1782580411850,-0.11,0.029999999999999999,1.1899999999999999
179,1782580411900,-0.070000000000000007,-0.10000000000000001,1.1100000000000001
180,1782580411967,-0.070000000000000007,-0.10000000000000001,1.1100000000000001
181,1782580412033,-0.070000000000000007,-0.080000000000000002,1.1100000000000001
182,1782580412149,-0.02,-0.050000000000000003,1.01
183,1782580412217,-0.01,-0.070000000000000007,1.01
184,1782580412234,-0,-0.080000000000000002,1.0700000000000001
185,1782580412267,-0,-0.080000000000000002,1.01
186,1782580412300,0.01,-0.050000000000000003,1.01
187,1782580412366,-0,-0.050000000000000003,1.01
188,1782580412366,-0.01,-0.14000000000000001,0.93999999999999995
189,1782580412517,-0.01,-0.14999999999999999,0.90000000000000002
190,1782580412567,-0.01,-0.14999999999999999,0.87
191,1782580412618,-0.01,-0.14999999999999999,0.87
192,1782580412733,0,-0.17000000000000001,0.93000000000000005
193,1782580412799,0,-0.23000000000000001,0.94999999999999996
194,1782580412849,0.029999999999999999,-0.23999999999999999,1.0800000000000001
195,1782580412916,0.13,-0.25,1.05
196,1782580413016,0.17000000000000001,-0.25,1.0800000000000001
197,1782580413100,0.17999999999999999,-0.27000000000000002,1.05
198,1782580413150,0.14999999999999999,-0.17999999999999999,1.01
199,1782580413199,0.14999999999999999,-0.17000000000000001,1.01
200,1782580413232,0.14999999999999999,-0.17000000000000001,0.93000000000000005
201,1782580413266,0.14999999999999999,-0.17000000000000001,0.93000000000000005
202,1782580413366,0.17999999999999999,-0.17999999999999999,0.96999999999999997
203,1782580413415,0.17999999999999999,-0.20000000000000001,0.96999999999999997
204,1782580413466,0.17000000000000001,-0.17999999999999999,1.05
205,1782580413499,0.17000000000000001,-0.17999999999999999,1.05
206,1782580413566,0.17000000000000001,-0.17999999999999999,1.05
207,1782580413649,0.17000000000000001,-0.17999999999999999,1.04
208,1782580413683,0.17000000000000001,-0.17999999999999999,1.04
209,1782580413749,0.17000000000000001,-0.16,1.04
210,1782580413832,0.14999999999999999,-0.11,1.03
211,1782580413882,0.14999999999999999,-0.12,1.03
212,1782580413949,0.17000000000000001,-0.14999999999999999,1.0600000000000001
213,1782580413998,0.17999999999999999,-0.16,1.0600000000000001
214,1782580414015,0.14999999999999999,-0.12,0.92000000000000004
215,1782580414049,0.17000000000000001,-0.13,1
216,1782580414132,0.17000000000000001,-0.14999999999999999,1.02
217,1782580414148,0.17000000000000001,-0.14999999999999999,1.04
218,1782580414182,0.17000000000000001,-0.14999999999999999,1.1000000000000001
219,1782580414216,0.17000000000000001,-0.14000000000000001,1.1000000000000001
220,1782580414315,0.13,-0.14000000000000001,1.0900000000000001
221,1782580414398,0.14000000000000001,-0.14000000000000001,1.0900000000000001
222,1782580414465,0.14000000000000001,-0.14000000000000001,1.04
223,1782580414548,0.10000000000000001,-0.12,1
224,1782580414598,0.11,-0.12,0.98999999999999999
225,1782580414648,0.14000000000000001,-0.14999999999999999,0.98999999999999999
226,1782580414698,0.16,-0.14999999999999999,0.98999999999999999
227,1782580414748,0.17000000000000001,-0.16,0.94999999999999996
228,1782580414848,0.19,-0.11,0.95999999999999996
229,1782580414931,0.19,-0.10000000000000001,0.89000000000000001
230,1782580414964,0.19,-0.089999999999999997,0.87
231,1782580415014,0.19,-0.089999999999999997,0.87
232,1782580415064,0.19,-0.089999999999999997,0.95999999999999996
233,1782580415081,0.17000000000000001,-0.040000000000000001,0.97999999999999998
234,1782580415147,0.14999999999999999,-0.040000000000000001,0.96999999999999997
235,1782580415214,0.14999999999999999,-0.040000000000000001,0.96999999999999997
236,1782580415280,0.14999999999999999,-0.040000000000000001,0.96999999999999997
237,1782580415381,0.20999999999999999,-0,0.98999999999999999
238,1782580415414,0.20000000000000001,-0,0.97999999999999998
239,1782580415465,0.17999999999999999,-0,0.97999999999999998
240,1782580415513,0.17000000000000001,-0.02,0.97999999999999998
241,1782580415530,0.16,-0.029999999999999999,0.97999999999999998
242,1782580415565,0.16,-0.029999999999999999,0.97999999999999998
243,1782580415614,0.23999999999999999,-0.040000000000000001,1.0700000000000001
244,1782580415665,0.29999999999999999,-0,1.0700000000000001
245,1782580415714,0.33000000000000002,0.02,1.0900000000000001
246,1782580415797,0.35999999999999999,0.029999999999999999,1.0800000000000001
247,1782580415930,-0.17999999999999999,0.080000000000000002,0.94999999999999996
248,1782580415963,-0.17999999999999999,0.029999999999999999,0.94999999999999996
249,1782580415980,-0.040000000000000001,0.029999999999999999,0.96999999999999997
250,1782580415996,0.11,-0.059999999999999998,0.96999999999999997
251,1782580416030,0.11,-0.070000000000000007,0.96999999999999997
252,1782580416063,0.11,-0.10000000000000001,1.1000000000000001
253,1782580416114,0.11,-0.16,1.1000000000000001
254,1782580416163,0.059999999999999998,-0.16,1.1000000000000001
255,1782580416214,-0.070000000000000007,-0.040000000000000001,1.04
256,1782580416248,-0.040000000000000001,-0.14999999999999999,1.04
257,1782580416297,-0.01,-0.16,0.96999999999999997
258,1782580416380,-0.01,-0.17999999999999999,0.96999999999999997
259,1782580416431,-0.01,-0.19,0.96999999999999997
260,1782580416547,-0.089999999999999997,-0.11,1
261,1782580416647,-0.070000000000000007,-0.12,1.1100000000000001
262,1782580416663,-0.059999999999999998,-0.12,1.1100000000000001
263,1782580416763,0.01,-0.040000000000000001,0.95999999999999996
264,1782580416814,0.01,-0.050000000000000003,0.97999999999999998
265,1782580416880,0.01,-0.050000000000000003,1.03
266,1782580416913,0.01,-0.040000000000000001,1.03
267,1782580417029,0.10000000000000001,-0.01,0.94999999999999996
268,1782580417112,0.089999999999999997,0,0.94999999999999996
269,1782580417180,0.080000000000000002,0,0.94999999999999996
270,1782580417214,0.089999999999999997,0,0.98999999999999999
271,1782580417247,0.10000000000000001,0.040000000000000001,1.01
272,1782580417263,0.10000000000000001,0.040000000000000001,0.98999999999999999
273,1782580417313,0.10000000000000001,0.040000000000000001,0.98999999999999999
274,1782580417379,0.089999999999999997,0.02,0.98999999999999999
275,1782580417412,0.089999999999999997,-0.01,0.98999999999999999
276,1782580417512,0.10000000000000001,-0.02,1
277,1782580417562,0.10000000000000001,-0.01,1
278,1782580417678,0.10000000000000001,-0,1
279,1782580417728,0.11,-0.01,1
280,1782580417764,0.13,-0.040000000000000001,1.01
281,1782580417828,0.13,-0.040000000000000001,1.01
282,1782580417912,0.11,-0.01,0.97999999999999998
283,1782580417962,0.11,-0.01,1
284,1782580418012,0.14999999999999999,-0.050000000000000003,1.04
285,1782580418063,0.14000000000000001,-0.040000000000000001,1.03
286,1782580418128,0.14000000000000001,-0.040000000000000001,1.01
287,1782580418195,0.14000000000000001,-0.02,0.98999999999999999
288,1782580418245,0.14000000000000001,-0,0.96999999999999997
289,1782580418346,0.11,-0.040000000000000001,1
290,1782580418379,0.11,-0.040000000000000001,1
291,1782580418429,0.11,-0.040000000000000001,1.01
292,1782580418478,0.11,-0.029999999999999999,1.01
293,1782580418529,0.11,-0.02,0.98999999999999999
294,1782580418579,0.11,-0.02,0.98999999999999999
295,1782580418628,0.11,0,0.96999999999999997
296,1782580418695,0.10000000000000001,-0.01,1.02
297,1782580418729,0.10000000000000001,-0.02,1.03
298,1782580418778,0.10000000000000001,-0.02,1.03
299,1782580418911,0.10000000000000001,-0.01,1.04
300,1782580418978,0.10000000000000001,-0,1.04
301,1782580419095,0.11,-0.01,1.03
302,1782580419177,0.10000000000000001,-0.02,1.03
303,1782580419194,0.10000000000000001,-0.02,1.03
304,1782580419295,0.11,-0.02,1.03
305,1782580419328,0.11,-0.01,1.02
306,1782580419344,0.10000000000000001,-0.01,0.98999999999999999
307,1782580419378,0.050000000000000003,-0.01,1.03
308,1782580419428,0.050000000000000003,-0.01,1.01
309,1782580419494,0.050000000000000003,-0.01,1.03
310,1782580419527,0.070000000000000007,-0.02,1.03
311,1782580419644,0.11,-0.02,1.03
312,1782580419694,0.11,-0.02,1.03
313,1782580419777,0.11,-0.029999999999999999,1.02
314,1782580419827,0.11,-0.029999999999999999,1.02
315,1782580419894,0.13,-0.01,1.02
316,1782580419945,0.13,-0.01,1.01
317,1782580419994,0.13,-0.01,1.01
318,1782580420061,0.13,-0.01,1.01
319,1782580420144,0.13,-0.01,1
320,1782580420177,0.01,-0.13,1.04
321,1782580420195,0.01,-0.10000000000000001,1.04
322,1782580420246,0.029999999999999999,-0.070000000000000007,1
323,1782580420328,0.080000000000000002,-0.02,0.95999999999999996
324,1782580420344,0.080000000000000002,0,0.90000000000000002
325,1782580420378,0.080000000000000002,0.029999999999999999,0.90000000000000002
326,1782580420427,0.080000000000000002,0.01,0.92000000000000004
327,1782580420477,0.089999999999999997,0.01,0.92000000000000004
328,1782580420544,0.089999999999999997,0.01,0.92000000000000004
329,1782580420577,0.089999999999999997,0.01,0.93999999999999995
330,1782580420660,0.089999999999999997,0.01,0.96999999999999997
331,1782580420711,0.089999999999999997,0,0.98999999999999999
332,1782580420726,0.11,-0.01,1.04
333,1782580420777,0.12,-0.02,1.05
334,1782580420793,0.13,-0.029999999999999999,1.05
335,1782580420826,0.13,-0.029999999999999999,1.05
336,1782580420844,0.13,-0.029999999999999999,1.04
337,1782580420861,0.13,-0.029999999999999999,1.01
338,1782580420893,0.13,-0.029999999999999999,1.01
339,1782580420959,0.13,-0.02,1
340,1782580421042,0.12,-0.02,1.01
341,1782580421077,0.12,-0.02,1.01
342,1782580421111,0.11,-0.02,1.01
343,1782580421126,0.11,-0.02,1.01
344,1782580421159,0.11,-0.02,1.01
345,1782580421210,0.11,-0.02,1.01
346,1782580421343,0.050000000000000003,-0.029999999999999999,1
347,1782580421376,0.040000000000000001,-0.029999999999999999,1
348,1782580421443,0.040000000000000001,-0.029999999999999999,1
349,1782580421509,0.029999999999999999,-0.029999999999999999,1.01
350,1782580421526,0.059999999999999998,-0.02,1.01
351,1782580421593,0.059999999999999998,-0.02,1.01
352,1782580421693,0.050000000000000003,-0.02,1.01
353,1782580421759,0.050000000000000003,-0.02,1.01
354,1782580421792,0.059999999999999998,-0.02,1.02
355,1782580421792,0.059999999999999998,-0.02,1.02
356,1782580421825,0.059999999999999998,-0.02,1.02
357,1782580421858,0.059999999999999998,-0.02,1.02
358,1782580421942,0.050000000000000003,-0.02,1.02
359,1782580421993,0.050000000000000003,-0.02,1.01
360,1782580422059,0.050000000000000003,-0.02,1.01
361,1782580422142,0.050000000000000003,-0.02,1.01
362,1782580422175,0.050000000000000003,-0.02,1.01
363,1782580422225,0.050000000000000003,-0.02,1.01
364,1782580422259,0.050000000000000003,-0.02,1.01
365,1782580422276,0.050000000000000003,-0.02,1.01
366,1782580422309,0.050000000000000003,-0.02,1.01
367,1782580422426,0.050000000000000003,-0.02,1.01
368,1782580422476,0.050000000000000003,-0.02,1.01
369,1782580422526,0.050000000000000003,-0.02,1.01
370,1782580422609,0.050000000000000003,-0.02,1.01
371,1782580422676,0.050000000000000003,-0.02,1.01
372,1782580422758,0.050000000000000003,-0.02,1.01
373,1782580422792,0.050000000000000003,-0.029999999999999999,1.01
374,1782580422825,0.050000000000000003,-0.029999999999999999,1.01
375,1782580422841,0.050000000000000003,-0.029999999999999999,1.01
376,1782580422891,0.050000000000000003,-0.029999999999999999,1.01
377,1782580422925,0.050000000000000003,-0.02,1.01
378,1782580423024,0.050000000000000003,-0.02,1.01
379,1782580423124,0.050000000000000003,-0.02,1.01
380,1782580423174,0.050000000000000003,-0.02,1.01
381,1782580423240,0.050000000000000003,-0.02,1.01
382,1782580423275,0.050000000000000003,-0.02,1.01
383,1782580423341,0.050000000000000003,-0.02,1.01
384,1782580423391,0.050000000000000003,-0.02,1.01
385,1782580423457,0.050000000000000003,-0.02,1.02
386,1782580423542,0.050000000000000003,-0.02,1.02
387,1782580423690,0.050000000000000003,-0.02,1.01
388,1782580423741,0.050000000000000003,-0.02,1.01
389,1782580423774,0.050000000000000003,-0.02,1.01
390,1782580423807,0.050000000000000003,-0.02,1.01
391,1782580423857,0.050000000000000003,-0.02,1.01
392,1782580423973,0.050000000000000003,-0.02,1.01
393,1782580423990,0.050000000000000003,-0.02,1.01
394,1782580424058,0.050000000000000003,-0.02,1.01
395,1782580424107,0.050000000000000003,-0.02,1.01
396,1782580424191,0.040000000000000001,-0.029999999999999999,1.02
397,1782580424257,0.040000000000000001,-0.029999999999999999,1.02
398,1782580424357,0.040000000000000001,-0.029999999999999999,1.02
399,1782580424407,0.050000000000000003,-0.029999999999999999,1.02
400,1782580424473,0.050000000000000003,-0.02,1.01
401,1782580424606,0.050000000000000003,-0.02,1.01
402,1782580424740,0.040000000000000001,-0.02,1.01
403,1782580424740,0.050000000000000003,-0.02,1.01
404,1782580424774,0.050000000000000003,-0.02,1.01
405,1782580424807,0.050000000000000003,-0.029999999999999999,1.01
406,1782580424824,0.050000000000000003,-0.029999999999999999,1.01
407,1782580424841,0.050000000000000003,-0.029999999999999999,1.01
408,1782580425006,0.050000000000000003,-0.02,1.01
409,1782580425057,0.050000000000000003,-0.02,1.01
410,1782580425090,0.050000000000000003,-0.02,1.01
411,1782580425156,0.050000000000000003,-0.029999999999999999,1.01
412,1782580425189,0.050000000000000003,-0.02,1.01
413,1782580425239,0.050000000000000003,-0.02,1.01
414,1782580425389,0.050000000000000003,-0.02,1.01
415,1782580425423,0.050000000000000003,-0.029999999999999999,1.01
416,1782580425506,0.050000000000000003,-0.029999999999999999,1.01
417,1782580425540,0.050000000000000003,-0.029999999999999999,1.01
418,1782580425590,0.050000000000000003,-0.02,1.01
419,1782580425639,0.050000000000000003,-0.02,1.02
420,1782580425706,0.050000000000000003,-0.02,1.02
421,1782580425756,0.050000000000000003,-0.02,1.02
422,1782580425839,0.050000000000000003,-0.02,1.01
423,1782580425905,0.050000000000000003,-0.02,1.02
424,1782580425955,0.050000000000000003,-0.02,1.02
425,1782580426023,0.050000000000000003,-0.02,1.01
426,1782580426138,0.050000000000000003,-0.029999999999999999,1.01
427,1782580426190,0.050000000000000003,-0.029999999999999999,1.02
428,1782580426338,0.050000000000000003,-0.029999999999999999,1.01
429,1782580426355,0.050000000000000003,-0.029999999999999999,1.01
430,1782580426388,0.050000000000000003,-0.029999999999999999,1.01
431,1782580426405,0.050000000000000003,-0.029999999999999999,1.01
432,1782580426456,0.050000000000000003,-0.029999999999999999,1.01
433,1782580426687,0.050000000000000003,-0.02,1.01
434,1782580426739,0.050000000000000003,-0.02,1.01
435,1782580426838,0.050000000000000003,-0.02,1.01
436,1782580426938,0.050000000000000003,-0.02,1.02
437,1782580426988,0.050000000000000003,-0.02,1.02
438,1782580427038,0.050000000000000003,-0.02,1.02
439,1782580427071,0.050000000000000003,-0.029999999999999999,1.02
440,1782580427138,0.050000000000000003,-0.029999999999999999,1.02
441,1782580427255,0.050000000000000003,-0.02,1.02
442,1782580427305,0.050000000000000003,-0.029999999999999999,1.01
443,1782580427389,0.050000000000000003,-0.029999999999999999,1.01
444,1782580427471,0.050000000000000003,-0.029999999999999999,1.01
445,1782580427489,0.050000000000000003,-0.02,1.01
446,1782580427521,0.050000000000000003,-0.02,1.01
447,1782580427537,0.050000000000000003,-0.02,1.01
448,1782580427572,0.050000000000000003,-0.02,1.01
449,1782580427654,0.050000000000000003,-0.02,1.01
450,1782580427754,0.050000000000000003,-0.02,1.01
451,1782580427821,0.050000000000000003,-0.02,1.01
452,1782580427854,0.050000000000000003,-0.02,1.01
453,1782580427904,0.050000000000000003,-0.02,1.01
454,1782580427954,0.050000000000000003,-0.02,1.01
455,1782580428055,0.050000000000000003,-0.02,1.02
456,1782580428104,0.050000000000000003,-0.02,1.02
457,1782580428170,0.050000000000000003,-0.02,1.01
458,1782580428237,0.050000000000000003,-0.02,1.01
459,1782580428271,0.050000000000000003,-0.029999999999999999,1.01
460,1782580428403,0.050000000000000003,-0.02,1.01
461,1782580428471,0.050000000000000003,-0.02,1.01
462,1782580428587,0.050000000000000003,-0.029999999999999999,1.01
463,1782580428621,0.050000000000000003,-0.02,1.01
464,1782580428654,0.050000000000000003,-0.02,1.01
465,1782580428687,0.050000000000000003,-0.02,1.01
466,1782580428719,0.050000000000000003,-0.02,1.01
467,1782580428753,0.050000000000000003,-0.029999999999999999,1.01
468,1782580428803,0.050000000000000003,-0.029999999999999999,1.01
469,1782580428936,0.050000000000000003,-0.02,1.01
470,1782580429053,0.050000000000000003,-0.029999999999999999,1.01
471,1782580429102,0.050000000000000003,-0.029999999999999999,1.02
472,1782580429186,0.050000000000000003,-0.029999999999999999,1.03
473,1782580429219,0.050000000000000003,-0.029999999999999999,1.03
474,1782580429337,0.050000000000000003,-0.029999999999999999,1.03
475,1782580429403,0.050000000000000003,-0.029999999999999999,1.03
476,1782580429503,0.050000000000000003,-0.02,0.98999999999999999
477,1782580429602,0.050000000000000003,-0.02,0.98999999999999999
478,1782580429703,0.050000000000000003,-0.02,1
479,1782580429752,0.050000000000000003,-0.029999999999999999,1
480,1782580429769,0.050000000000000003,-0.029999999999999999,1.01
481,1782580429786,0.050000000000000003,-0.029999999999999999,1.01
482,1782580429820,0.050000000000000003,-0.029999999999999999,1.02
483,1782580429952,0.050000000000000003,-0.029999999999999999,1.02
484,1782580430052,0.050000000000000003,-0.029999999999999999,1.02
485,1782580430118,0.050000000000000003,-0.029999999999999999,1.02
486,1782580430185,0.040000000000000001,-0.029999999999999999,1.02
487,1782580430287,0.040000000000000001,-0.029999999999999999,1.03
488,1782580430369,0.050000000000000003,-0.029999999999999999,1.01
489,1782580430401,0.050000000000000003,-0.02,1.03
490,1782580430451,0.050000000000000003,-0.02,1.03
491,1782580430502,0.050000000000000003,-0.02,1.01
492,1782580430568,0.050000000000000003,-0.029999999999999999,1.01
493,1782580430601,0.050000000000000003,-0.02,1.01
494,1782580430669,0.050000000000000003,-0.02,1.02
495,1782580430701,0.050000000000000003,-0.02,1.02
496,1782580430718,0.050000000000000003,-0.02,1.02
497,1782580430734,0.050000000000000003,-0.02,1.02
498,1782580430801,0.050000000000000003,-0.029999999999999999,1.02
499,1782580430868,0.050000000000000003,-0.029999999999999999,1.02
500,1782580430934,0.050000000000000003,-0.029999999999999999,1.02
501,1782580430984,0.050000000000000003,-0.029999999999999999,1.02
502,1782580431034,0.070000000000000007,-0.02,1.01
503,1782580431085,0.059999999999999998,-0.02,1.01
504,1782580431200,0.059999999999999998,-0.01,1.01
505,1782580431251,0.050000000000000003,-0.029999999999999999,1.01
506,1782580431284,0.050000000000000003,-0.029999999999999999,1.01
507,1782580431301,0.050000000000000003,-0.02,1.01
508,1782580431334,0.050000000000000003,-0.02,1.01
509,1782580431485,0.050000000000000003,-0.02,1.01
510,1782580431534,0.050000000000000003,-0.029999999999999999,1.02
511,1782580431650,0.050000000000000003,-0.02,1.02
512,1782580431684,0.050000000000000003,-0.02,1.02
513,1782580431717,0.050000000000000003,-0.02,1.02
514,1782580431734,0.050000000000000003,-0.02,1.01
515,1782580431917,0.050000000000000003,-0.02,1.02
516,1782580431984,0.059999999999999998,-0.02,1.02
517,1782580432133,0.050000000000000003,-0.02,1.01
518,1782580432200,0.050000000000000003,-0.02,1.01
519,1782580432218,0.050000000000000003,-0.02,1.01
520,1782580432300,0.050000000000000003,-0.02,1.01
521,1782580432316,0.050000000000000003,-0.02,1.01
522,1782580432333,0.050000000000000003,-0.02,1.01
523,1782580432350,0.050000000000000003,-0.02,1.01
524,1782580432433,0.050000000000000003,-0.02,1.01
525,1782580432499,0.050000000000000003,-0.02,1.01
526,1782580432516,0.050000000000000003,-0.02,1.02
527,1782580432617,0.050000000000000003,-0.02,1.02
528,1782580432666,0.050000000000000003,-0.02,1.02
529,1782580432733,0.050000000000000003,-0.02,1.02
530,1782580432749,0.050000000000000003,-0.02,1.02
531,1782580432766,0.050000000000000003,-0.02,1.01
532,1782580432816,0.050000000000000003,-0.02,1.01
533,1782580432866,0.050000000000000003,-0.029999999999999999,1.01
534,1782580432917,0.050000000000000003,-0.029999999999999999,1.01
535,1782580432934,0.050000000000000003,-0.029999999999999999,1.01
536,1782580432949,0.050000000000000003,-0.029999999999999999,1.01
537,1782580432966,0.050000000000000003,-0.029999999999999999,1.01
538,1782580433000,0.050000000000000003,-0.02,1.01
539,1782580433033,0.050000000000000003,-0.02,1.01
540,1782580433099,0.050000000000000003,-0.02,1.01
541,1782580433133,0.050000000000000003,-0.02,1.01
542,1782580433201,0.050000000000000003,-0.02,1.01
543,1782580433249,0.050000000000000003,-0.02,1.01
544,1782580433283,0.050000000000000003,-0.02,1.01
545,1782580433300,0.050000000000000003,-0.02,1.01
546,1782580433367,0.050000000000000003,-0.02,1.01
547,1782580433399,0.050000000000000003,-0.029999999999999999,1.01
548,1782580433449,0.050000000000000003,-0.029999999999999999,1.02
549,1782580433483,0.050000000000000003,-0.029999999999999999,1.02
550,1782580433649,0.050000000000000003,-0.02,1.02
551,1782580433800,0.050000000000000003,-0.02,1.01
552,1782580433833,0.050000000000000003,-0.02,1.01
553,1782580433884,0.050000000000000003,-0.02,1.01
554,1782580433916,0.050000000000000003,-0.02,1.01
555,1782580433933,0.050000000000000003,-0.02,1.01
556,1782580433981,0.050000000000000003,-0.02,1.01
557,1782580434098,0.050000000000000003,-0.02,1.01
558,1782580434215,0.050000000000000003,-0.02,1.01
559,1782580434265,0.050000000000000003,-0.02,1.01
560,1782580434300,0.050000000000000003,-0.02,1.01
561,1782580434333,0.050000000000000003,-0.02,1.01
562,1782580434398,0.050000000000000003,-0.02,1.01
563,1782580434431,0.050000000000000003,-0.02,1.01
564,1782580434498,0.050000000000000003,-0.02,1.01
565,1782580434565,0.050000000000000003,-0.02,1.01
566,1782580434666,0.050000000000000003,-0.02,1.01
567,1782580434715,0.040000000000000001,-0.029999999999999999,1.01
568,1782580434815,0.050000000000000003,-0.029999999999999999,1.01
569,1782580434881,0.050000000000000003,-0.029999999999999999,1.01
570,1782580434915,0.040000000000000001,-0.029999999999999999,1.01
571,1782580434981,0.040000000000000001,-0.029999999999999999,1.01
572,1782580434998,0.050000000000000003,-0.029999999999999999,1.02
573,1782580435015,0.050000000000000003,-0.029999999999999999,1.02
574,1782580435099,0.050000000000000003,-0.02,1.02
575,1782580435214,0.050000000000000003,-0.02,1.02
576,1782580435231,0.050000000000000003,-0.02,1.02
577,1782580435264,0.050000000000000003,-0.02,1.02
578,1782580435314,0.050000000000000003,-0.02,1.01
579,1782580435347,0.050000000000000003,-0.02,1.01
580,1782580435397,0.050000000000000003,-0.029999999999999999,1.01
581,1782580435465,0.050000000000000003,-0.029999999999999999,1.01
582,1782580435513,0.050000000000000003,-0.029999999999999999,1.01
583,1782580435547,0.050000000000000003,-0.02,1.01
584,1782580435631,0.050000000000000003,-0.02,1.01
585,1782580435696,0.050000000000000003,-0.02,1.01
586,1782580435797,0.050000000000000003,-0.02,1.02
587,1782580435863,0.050000000000000003,-0.02,1.01
588,1782580435913,0.050000000000000003,-0.02,1.01
589,1782580435930,0.050000000000000003,-0.02,1.01
590,1782580435963,0.050000000000000003,-0.02,1.01
591,1782580436063,0.050000000000000003,-0.02,1.01
592,1782580436146,0.050000000000000003,-0.02,1.01
593,1782580436229,0.050000000000000003,-0.02,1.01
594,1782580436279,0.050000000000000003,-0.02,1.01
595,1782580436313,0.050000000000000003,-0.029999999999999999,1.01
596,1782580436380,0.050000000000000003,-0.029999999999999999,1.01
597,1782580436479,0.050000000000000003,-0.029999999999999999,1.01
598,1782580436546,0.050000000000000003,-0.02,1.01
599,1782580436563,0.050000000000000003,-0.02,1.01
600,1782580436596,0.050000000000000003,-0.02,1.01
601,1782580436612,0.050000000000000003,-0.02,1.01
602,1782580436646,0.050000000000000003,-0.02,1.01
603,1782580436713,0.050000000000000003,-0.02,1.02
604,1782580436879,0.050000000000000003,-0.02,1.01
605,1782580436929,0.050000000000000003,-0.02,1.01
606,1782580436995,0.050000000000000003,-0.02,1.01
607,1782580437012,0.050000000000000003,-0.02,1.01
608,1782580437095,0.050000000000000003,-0.02,1.01
609,1782580437162,0.050000000000000003,-0.02,1.01
610,1782580437213,0.050000000000000003,-0.02,1.01
611,1782580437279,0.050000000000000003,-0.02,1.01
612,1782580437279,0.050000000000000003,-0.02,1.01
613,1782580437329,0.050000000000000003,-0.02,1.01
614,1782580437396,0.050000000000000003,-0.02,1.01
615,1782580437479,0.050000000000000003,-0.02,1.01
616,1782580437545,0.050000000000000003,-0.02,1.02
617,1782580437578,0.050000000000000003,-0.029999999999999999,1.01
618,1782580437595,0.050000000000000003,-0.029999999999999999,1.01
619,1782580437645,0.050000000000000003,-0.029999999999999999,1.01
620,1782580437711,0.050000000000000003,-0.02,1.01
621,1782580437745,0.050000000000000003,-0.02,1.01
622,1782580437878,0.050000000000000003,-0.02,1.01
623,1782580437928,0.050000000000000003,-0.02,1.01
624,1782580437978,0.050000000000000003,-0.02,1.01
625,1782580438028,0.050000000000000003,-0.02,1.01
626,1782580438078,0.050000000000000003,-0.02,1.01
627,1782580438128,0.050000000000000003,-0.02,1.01
628,1782580438177,0.050000000000000003,-0.02,1.01
629,1782580438245,0.050000000000000003,-0.02,1.01
630,1782580438311,0.050000000000000003,-0.02,1.01
631,1782580438362,0.050000000000000003,-0.02,1.01
632,1782580438411,0.050000000000000003,-0.029999999999999999,1.02
633,1782580438461,0.050000000000000003,-0.029999999999999999,1.02
634,1782580438494,0.050000000000000003,-0.029999999999999999,1.02
635,1782580438544,0.050000000000000003,-0.029999999999999999,1.02
636,1782580438611,0.050000000000000003,-0.02,1.02
637,1782580438661,0.050000000000000003,-0.02,1.01
638,1782580438711,0.050000000000000003,-0.02,1.01
639,1782580438760,0.050000000000000003,-0.02,1.01
640,1782580438844,0.050000000000000003,-0.02,1.01
641,1782580438911,0.050000000000000003,-0.02,1.01
642,1782580438977,0.050000000000000003,-0.02,1.01
643,1782580439094,0.050000000000000003,-0.02,1.01
644,1782580439127,0.050000000000000003,-0.02,1.01
645,1782580439227,0.050000000000000003,-0.02,1.02
646,1782580439293,0.050000000000000003,-0.02,1.01
647,1782580439376,0.050000000000000003,-0.02,1.01
648,1782580439443,0.050000000000000003,-0.02,1.01
649,1782580439527,0.050000000000000003,-0.02,1.01
650,1782580439560,0.050000000000000003,-0.02,1.01
651,1782580439627,0.050000000000000003,-0.02,1.01
652,1782580439644,0.050000000000000003,-0.02,1.01
653,1782580439710,0.050000000000000003,-0.02,1.01
654,1782580439743,0.050000000000000003,-0.02,1.01
655,1782580439793,0.050000000000000003,-0.02,1.01
656,1782580439876,0.050000000000000003,-0.02,1.01
657,1782580439943,0.050000000000000003,-0.02,1.02
658,1782580440010,0.050000000000000003,-0.02,1.02
659,1782580440043,0.050000000000000003,-0.02,1.02
660,1782580440110,0.050000000000000003,-0.02,1.02
661,1782580440160,0.050000000000000003,-0.02,1.02
662,1782580440194,0.050000000000000003,-0.029999999999999999,1.02
663,1782580440242,0.050000000000000003,-0.029999999999999999,1.02
664,1782580440327,0.050000000000000003,-0.029999999999999999,1.01
665,1782580440393,0.050000000000000003,-0.02,1.01
666,1782580440526,0.050000000000000003,-0.02,1.02
667,1782580440576,0.050000000000000003,-0.02,1.02
668,1782580440626,0.050000000000000003,-0.02,1.02
669,1782580440692,0.050000000000000003,-0.02,1.01
670,1782580440776,0.050000000000000003,-0.02,1.01
671,1782580440792,0.050000000000000003,-0.02,1.01
672,1782580440842,0.050000000000000003,-0.02,1.01
673,1782580440910,0.050000000000000003,-0.02,1.01
674,1782580440993,0.050000000000000003,-0.02,1.01
675,1782580441025,0.050000000000000003,-0.02,1.01
676,1782580441092,0.050000000000000003,-0.02,1.01
677,1782580441143,0.050000000000000003,-0.02,1.01
678,1782580441175,0.050000000000000003,-0.02,1.01
679,1782580441192,0.050000000000000003,-0.02,1.01
680,1782580441275,0.050000000000000003,-0.02,1.01
681,1782580441342,0.050000000000000003,-0.02,1.02
682,1782580441408,0.050000000000000003,-0.02,1.01
683,1782580441492,0.050000000000000003,-0.02,1.01
684,1782580441508,0.050000000000000003,-0.02,1.01
685,1782580441525,0.050000000000000003,-0.029999999999999999,1.01
686,1782580441558,0.050000000000000003,-0.029999999999999999,1.01
687,1782580441642,0.050000000000000003,-0.029999999999999999,1.01
688,1782580441708,0.050000000000000003,-0.029999999999999999,1.01
689,1782580441791,0.050000000000000003,-0.02,1.01
690,1782580441841,0.050000000000000003,-0.02,1.01
691,1782580441891,0.050000000000000003,-0.02,1.01
692,1782580441974,0.050000000000000003,-0.02,1.01
693,1782580442041,0.050000000000000003,-0.02,1.01
694,1782580442108,0.050000000000000003,-0.02,1.02
695,1782580442175,0.050000000000000003,-0.02,1.02
696,1782580442274,0.050000000000000003,-0.02,1.02
697,1782580442324,0.050000000000000003,-0.02,1.02
698,1782580442374,0.050000000000000003,-0.02,1.02
699,1782580442440,0.050000000000000003,-0.02,1.01
700,1782580442508,0.050000000000000003,-0.02,1.01
701,1782580442541,0.050000000000000003,-0.02,1.01
702,1782580442591,0.050000000000000003,-0.02,1.01
703,1782580442641,0.050000000000000003,-0.02,1.01
704,1782580442691,0.050000000000000003,-0.02,1.01
705,1782580442708,0.050000000000000003,-0.02,1.01
706,1782580442774,0.050000000000000003,-0.02,1.01
707,1782580442807,0.050000000000000003,-0.029999999999999999,1.01
708,1782580442857,0.050000000000000003,-0.029999999999999999,1.01
709,1782580442907,0.050000000000000003,-0.029999999999999999,1.01
710,1782580442974,0.050000000000000003,-0.029999999999999999,1.01
711,1782580443075,0.050000000000000003,-0.02,1.01
712,1782580443141,0.050000000000000003,-0.02,1.01
713,1782580443207,0.050000000000000003,-0.02,1.01
714,1782580443273,0.050000000000000003,-0.02,1.01
715,1782580443307,0.050000000000000003,-0.02,1.01
716,1782580443340,0.050000000000000003,-0.02,1.01
717,1782580443407,0.050000000000000003,-0.02,1.01
718,1782580443524,0.050000000000000003,-0.02,1.01
719,1782580443607,0.050000000000000003,-0.02,1.01
720,1782580443640,0.050000000000000003,-0.02,1.01
721,1782580443675,0.050000000000000003,-0.02,1.01
722,1782580443691,0.050000000000000003,-0.02,1.01
723,1782580443740,0.050000000000000003,-0.02,1.01
724,1782580443824,0.050000000000000003,-0.02,1.01
725,1782580443923,0.050000000000000003,-0.02,1.01
726,1782580444039,0.050000000000000003,-0.02,1.01
727,1782580444106,0.050000000000000003,-0.02,1.01
728,1782580444173,0.050000000000000003,-0.02,1.01
729,1782580444289,0.050000000000000003,-0.029999999999999999,1.01
730,1782580444439,0.050000000000000003,-0.02,1.02
731,1782580444473,0.050000000000000003,-0.02,1.02
732,1782580444556,0.050000000000000003,-0.02,1.01
733,1782580444573,0.050000000000000003,-0.029999999999999999,1.01
734,1782580444589,0.050000000000000003,-0.029999999999999999,1.01
735,1782580444606,0.050000000000000003,-0.029999999999999999,1.01
736,1782580444706,0.050000000000000003,-0.02,1.01
737,1782580444756,0.050000000000000003,-0.02,1.01
738,1782580444873,0.050000000000000003,-0.02,1.01
739,1782580444922,0.050000000000000003,-0.02,1.01
740,1782580444972,0.050000000000000003,-0.02,1.01
741,1782580445039,0.050000000000000003,-0.02,1.01
742,1782580445073,0.050000000000000003,-0.02,1.01
743,1782580445123,0.050000000000000003,-0.02,1.01
744,1782580445189,0.050000000000000003,-0.02,1.01
745,1782580445289,0.050000000000000003,-0.029999999999999999,1.01
746,1782580445455,0.050000000000000003,-0.02,1.01
747,1782580445472,0.050000000000000003,-0.02,1.01
748,1782580445488,0.050000000000000003,-0.02,1.02
749,1782580445539,0.050000000000000003,-0.02,1.02
750,1782580445572,0.050000000000000003,-0.02,1.02
751,1782580445721,0.050000000000000003,-0.02,1.01
752,1782580445838,0.050000000000000003,-0.02,1.01
753,1782580445855,0.050000000000000003,-0.02,1.01
754,1782580445871,0.050000000000000003,-0.02,1.01
755,1782580445938,0.050000000000000003,-0.02,1.01
756,1782580446004,0.050000000000000003,-0.02,1.01
757,1782580446105,0.050000000000000003,-0.02,1.02
758,1782580446155,0.050000000000000003,-0.02,1.02
759,1782580446188,0.050000000000000003,-0.02,1.01
760,1782580446255,0.050000000000000003,-0.02,1.01
761,1782580446321,0.050000000000000003,-0.02,1.01
762,1782580446371,0.050000000000000003,-0.02,1.01
763,1782580446471,0.050000000000000003,-0.02,1.01
764,1782580446555,0.050000000000000003,-0.02,1.01
765,1782580446588,0.050000000000000003,-0.02,1.01
766,1782580446621,0.050000000000000003,-0.029999999999999999,1.01
767,1782580446637,0.050000000000000003,-0.029999999999999999,1.01
768,1782580446671,0.050000000000000003,-0.029999999999999999,1.01
769,1782580446687,0.050000000000000003,-0.02,1.02
770,1782580446738,0.050000000000000003,-0.02,1.02
771,1782580446838,0.050000000000000003,-0.02,1.02
772,1782580446921,0.050000000000000003,-0.02,1.02
773,1782580447054,0.050000000000000003,-0.02,1.01
774,1782580447121,0.050000000000000003,-0.02,1.01
775,1782580447203,0.050000000000000003,-0.02,1.01
776,1782580447255,0.050000000000000003,-0.02,1.01
777,1782580447320,0.050000000000000003,-0.02,1.01
778,1782580447387,0.040000000000000001,-0.02,1.01
779,1782580447420,0.040000000000000001,-0.02,1.02
780,1782580447487,0.040000000000000001,-0.02,1.02
781,1782580447555,0.050000000000000003,-0.02,1.01
782,1782580447705,0.050000000000000003,-0.02,1.01
783,1782580447721,0.050000000000000003,-0.02,1.01
784,1782580447788,0.050000000000000003,-0.02,1.02
785,1782580447820,0.050000000000000003,-0.02,1.02
786,1782580447887,0.050000000000000003,-0.02,1.01
787,1782580447936,0.050000000000000003,-0.02,1.01
788,1782580448020,0.050000000000000003,-0.029999999999999999,1.02
789,1782580448136,0.050000000000000003,-0.029999999999999999,1.02
790,1782580448186,0.050000000000000003,-0.029999999999999999,1.01
791,1782580448202,0.050000000000000003,-0.029999999999999999,1.01
792,1782580448236,0.050000000000000003,-0.029999999999999999,1.01
793,1782580448269,0.050000000000000003,-0.02,1.01
794,1782580448303,0.050000000000000003,-0.029999999999999999,1.01
795,1782580448403,0.050000000000000003,-0.02,1.01
796,1782580448486,0.050000000000000003,-0.02,1.01
797,1782580448570,0.040000000000000001,-0.02,1.02
798,1782580448620,0.040000000000000001,-0.02,1.02
799,1782580448736,0.050000000000000003,-0.02,1.02
800,1782580448785,0.050000000000000003,-0.02,1.02
801,1782580448869,0.050000000000000003,-0.02,1.02
802,1782580448902,0.050000000000000003,-0.02,1.02
803,1782580448919,0.050000000000000003,-0.02,1.01
804,1782580448952,0.050000000000000003,-0.02,1.01
805,1782580449002,0.050000000000000003,-0.02,1.01
806,1782580449035,0.050000000000000003,-0.02,1.01
807,1782580449136,0.050000000000000003,-0.02,1.01
808,1782580449219,0.050000000000000003,-0.02,1.01
809,1782580449320,0.050000000000000003,-0.02,1.01
810,1782580449385,0.050000000000000003,-0.02,1.01
811,1782580449535,0.050000000000000003,-0.02,1.01
812,1782580449551,0.050000000000000003,-0.02,1.01
813,1782580449602,0.050000000000000003,-0.02,1.01
814,1782580449652,0.050000000000000003,-0.02,1.01
815,1782580449736,0.050000000000000003,-0.02,1.01
816,1782580449785,0.050000000000000003,-0.02,1.02
817,1782580449853,0.050000000000000003,-0.02,1.02
818,1782580449918,0.050000000000000003,-0.029999999999999999,1.01
819,1782580449952,0.050000000000000003,-0.02,1.01
820,1782580450018,0.050000000000000003,-0.02,1.01
821,1782580450085,0.050000000000000003,-0.02,1.01
822,1782580450151,0.050000000000000003,-0.02,1.01
823,1782580450251,0.050000000000000003,-0.02,1.01
824,1782580450285,0.050000000000000003,-0.02,1.01
825,1782580450418,0.050000000000000003,-0.02,1.02
826,1782580450501,0.050000000000000003,-0.02,1.01
827,1782580450518,0.050000000000000003,-0.02,1.01
828,1782580450534,0.050000000000000003,-0.02,1.01
829,1782580450567,0.050000000000000003,-0.02,1.01
830,1782580450667,0.050000000000000003,-0.02,1.01
831,1782580450718,0.050000000000000003,-0.02,1.01
832,1782580450801,0.050000000000000003,-0.02,1.01
833,1782580450918,0.050000000000000003,-0.02,1.01
834,1782580450984,0.050000000000000003,-0.02,1.01
835,1782580451018,0.050000000000000003,-0.02,1.01
836,1782580451117,0.050000000000000003,-0.02,1.01
837,1782580451184,0.050000000000000003,-0.02,1.02
838,1782580451367,0.050000000000000003,-0.02,1.02
839,1782580451384,0.050000000000000003,-0.029999999999999999,1.02
840,1782580451417,0.050000000000000003,-0.029999999999999999,1.02
841,1782580451450,0.050000000000000003,-0.02,1.01
842,1782580451533,0.050000000000000003,-0.02,1.01
843,1782580451567,0.050000000000000003,-0.02,1.01
844,1782580451583,0.050000000000000003,-0.02,1.01
845,1782580451600,0.050000000000000003,-0.02,1.01
846,1782580451667,0.050000000000000003,-0.02,1
847,1782580451733,0.050000000000000003,-0.02,1
848,1782580451816,0.050000000000000003,-0.02,1
849,1782580451983,0.050000000000000003,-0.02,1.02
850,1782580452017,0.050000000000000003,-0.02,1.02
851,1782580452066,0.050000000000000003,-0.02,1.01
852,1782580452183,0.050000000000000003,-0.02,1.01
853,1782580452249,0.050000000000000003,-0.02,1.01
854,1782580452283,0.050000000000000003,-0.029999999999999999,1.01
855,1782580452333,0.050000000000000003,-0.029999999999999999,1.01
856,1782580452382,0.050000000000000003,-0.029999999999999999,1.01
857,1782580452449,0.050000000000000003,-0.029999999999999999,1.01
858,1782580452482,0.050000000000000003,-0.02,1.01
859,1782580452499,0.050000000000000003,-0.02,1.01
860,1782580452549,0.050000000000000003,-0.02,1.01
861,1782580452682,0.050000000000000003,-0.02,1.01
862,1782580452716,0.050000000000000003,-0.02,1.01
863,1782580452783,0.050000000000000003,-0.02,1.02
864,1782580452900,0.050000000000000003,-0.02,1.01
865,1782580452982,0.050000000000000003,-0.02,1.01
866,1782580453032,0.050000000000000003,-0.029999999999999999,1.01
867,1782580453099,0.050000000000000003,-0.029999999999999999,1.01
868,1782580453133,0.050000000000000003,-0.02,1.01
869,1782580453149,0.050000000000000003,-0.02,1.01
870,1782580453165,0.050000000000000003,-0.02,1.01
871,1782580453199,0.050000000000000003,-0.02,1.01
872,1782580453265,0.050000000000000003,-0.02,1.01
873,1782580453298,0.050000000000000003,-0.02,1.01
874,1782580453416,0.050000000000000003,-0.02,1.01
875,1782580453548,0.050000000000000003,-0.029999999999999999,1.02
876,1782580453615,0.050000000000000003,-0.02,1.02
877,1782580453715,0.050000000000000003,-0.02,1.02
878,1782580453748,0.050000000000000003,-0.02,1.01
879,1782580453782,0.059999999999999998,-0.02,1.01
880,1782580453831,0.059999999999999998,-0.02,1.01
881,1782580453865,0.059999999999999998,-0.02,1.01
882,1782580453915,0.050000000000000003,-0.02,1.01
883,1782580454032,0.050000000000000003,-0.02,1.01
884,1782580454164,0.050000000000000003,-0.02,1.01
885,1782580454198,0.050000000000000003,-0.029999999999999999,1.01
886,1782580454215,0.050000000000000003,-0.029999999999999999,1.01
887,1782580454231,0.050000000000000003,-0.029999999999999999,1.01
888,1782580454264,0.050000000000000003,-0.029999999999999999,1.02
889,1782580454298,0.050000000000000003,-0.02,1.02
890,1782580454381,0.050000000000000003,-0.02,1.02
891,1782580454449,0.050000000000000003,-0.02,1.02
892,1782580454497,0.050000000000000003,-0.02,1.01
893,1782580454548,0.050000000000000003,-0.02,1
894,1782580454598,0.050000000000000003,-0.02,0.98999999999999999
895,1782580454648,0.050000000000000003,-0.02,0.98999999999999999
896,1782580454714,0.050000000000000003,-0.029999999999999999,0.98999999999999999
897,1782580454748,0.050000000000000003,-0.029999999999999999,1.01
898,1782580454781,0.050000000000000003,-0.029999999999999999,1.02
899,1782580454797,0.050000000000000003,-0.029999999999999999,1.03
900,1782580454814,0.040000000000000001,-0.029999999999999999,1.03
901,1782580454848,0.040000000000000001,-0.029999999999999999,1.03
902,1782580454947,0.050000000000000003,-0.02,1.01
903,1782580455047,0.040000000000000001,-0.02,1
904,1782580455097,0.040000000000000001,-0.02,1
905,1782580455114,0.040000000000000001,-0.02,1
906,1782580455146,0.040000000000000001,-0.029999999999999999,1.01
907,1782580455198,0.040000000000000001,-0.02,1.01
908,1782580455364,0.040000000000000001,-0.02,1.01
909,1782580455397,0.050000000000000003,-0.02,1.01
910,1782580455430,0.050000000000000003,-0.02,1.02
911,1782580455530,0.050000000000000003,-0.02,1.02
912,1782580455613,0.050000000000000003,-0.02,1.02
913,1782580455730,0.050000000000000003,-0.02,1.02
914,1782580455764,0.050000000000000003,-0.02,1.02
915,1782580455780,0.050000000000000003,-0.02,1.01
916,1782580455796,0.050000000000000003,-0.02,1.01
917,1782580455829,0.050000000000000003,-0.02,1.01
918,1782580455863,0.050000000000000003,-0.029999999999999999,1.01
919,1782580455879,0.050000000000000003,-0.02,1.02
920,1782580455947,0.050000000000000003,-0.02,1.02
921,1782580455997,0.050000000000000003,-0.02,1.02
922,1782580456162,0.059999999999999998,-0.02,1.01
923,1782580456246,0.050000000000000003,-0.029999999999999999,1.01
924,1782580456313,0.050000000000000003,-0.029999999999999999,1.01
925,1782580456379,0.050000000000000003,-0.02,1.01
926,1782580456429,0.050000000000000003,-0.02,1.01
927,1782580456462,0.050000000000000003,-0.029999999999999999,1.01
928,1782580456479,0.050000000000000003,-0.029999999999999999,1.01
929,1782580456596,0.050000000000000003,-0.029999999999999999,1.01
930,1782580456645,0.050000000000000003,-0.029999999999999999,1.01
931,1782580456696,0.050000000000000003,-0.029999999999999999,1.02
932,1782580456829,0.050000000000000003,-0.029999999999999999,1.02
933,1782580456847,0.050000000000000003,-0.029999999999999999,1.02
934,1782580456862,0.050000000000000003,-0.029999999999999999,1.02
935,1782580456895,0.050000000000000003,-0.029999999999999999,1.02
936,1782580456912,0.050000000000000003,-0.029999999999999999,1.02
937,1782580457013,0.050000000000000003,-0.029999999999999999,1.01
938,1782580457062,0.050000000000000003,-0.02,1.01
939,1782580457112,0.050000000000000003,-0.02,1.01
940,1782580457145,0.050000000000000003,-0.02,1.01
941,1782580457163,0.050000000000000003,-0.02,1.01
942,1782580457179,0.050000000000000003,-0.02,1.02
943,1782580457213,0.050000000000000003,-0.02,1.02
944,1782580457329,0.050000000000000003,-0.02,1.02
945,1782580457345,0.050000000000000003,-0.029999999999999999,1.02
946,1782580457378,0.050000000000000003,-0.029999999999999999,1.01
947,1782580457395,0.050000000000000003,-0.029999999999999999,1.01
948,1782580457411,0.050000000000000003,-0.029999999999999999,1.01
949,1782580457478,0.050000000000000003,-0.029999999999999999,1.01
950,1782580457629,0.059999999999999998,-0.029999999999999999,1.01
951,1782580457645,0.059999999999999998,-0.029999999999999999,1.02
952,1782580457761,0.050000000000000003,-0.02,1.02
953,1782580457828,0.050000000000000003,-0.02,1.02
954,1782580458028,0.050000000000000003,-0.029999999999999999,1.01
955,1782580458062,0.050000000000000003,-0.029999999999999999,1.01
956,1782580458096,0.050000000000000003,-0.02,1.01
957,1782580458111,0.050000000000000003,-0.02,1.02
958,1782580458127,0.050000000000000003,-0.02,1.02
959,1782580458294,0.050000000000000003,-0.02,1.02
960,1782580458411,0.050000000000000003,-0.02,1.01
961,1782580458461,0.050000000000000003,-0.029999999999999999,1.01
962,1782580458510,0.050000000000000003,-0.02,1.01
963,1782580458561,0.050000000000000003,-0.02,1.01
964,1782580458611,0.050000000000000003,-0.02,1.01
965,1782580458677,0.050000000000000003,-0.02,1.01
966,1782580458743,0.059999999999999998,-0.02,1.02
967,1782580458810,0.050000000000000003,-0.029999999999999999,1.02
968,1782580458878,0.050000000000000003,-0.029999999999999999,1.02
969,1782580458928,0.050000000000000003,-0.029999999999999999,1.02
970,1782580459010,0.050000000000000003,-0.02,1.01
971,1782580459044,0.050000000000000003,-0.02,1.01
972,1782580459093,0.050000000000000003,-0.02,1.01
973,1782580459160,0.050000000000000003,-0.02,1.01
974,1782580459177,0.050000000000000003,-0.029999999999999999,1.01
975,1782580459193,0.050000000000000003,-0.029999999999999999,1.01
976,1782580459243,0.050000000000000003,-0.02,1.02
977,1782580459293,0.050000000000000003,-0.02,1.02
978,1782580459343,0.050000000000000003,-0.02,1.02
979,1782580459410,0.050000000000000003,-0.02,1.02
980,1782580459426,0.050000000000000003,-0.02,1.02
981,1782580459460,0.050000000000000003,-0.02,1.01
982,1782580459476,0.050000000000000003,-0.02,1.01
983,1782580459493,0.050000000000000003,-0.02,1.01
984,1782580459527,0.050000000000000003,-0.02,1.01
985,1782580459593,0.070000000000000007,-0.02,1
986,1782580459610,0.070000000000000007,-0.02,1
987,1782580459643,0.059999999999999998,-0.029999999999999999,1
988,1782580459810,0.050000000000000003,-0.029999999999999999,1.01
989,1782580459876,0.059999999999999998,-0.02,1.01
990,1782580459944,0.059999999999999998,-0.02,1.01
991,1782580460010,0.059999999999999998,-0.02,1.01
992,1782580460044,0.059999999999999998,-0.02,1.01
993,1782580460060,0.059999999999999998,-0.02,1.01
994,1782580460093,0.059999999999999998,-0.02,1.01
995,1782580460126,0.040000000000000001,-0.029999999999999999,1.01
996,1782580460193,-0.02,-0.02,1.01
997,1782580460309,-0.070000000000000007,-0.029999999999999999,1
998,1782580460359,-0.02,-0.11,1.01
999,1782580460393,-0.050000000000000003,-0.12,1.04
1000,1782580460459,-0.089999999999999997,-0.11,1.04
1001,1782580460509,-0.11,-0.11,1.04
1002,1782580460559,-0.11,-0.080000000000000002,1.1100000000000001
1003,1782580460658,-0.050000000000000003,-0.059999999999999998,1.0900000000000001
1004,1782580460675,-0.050000000000000003,-0.040000000000000001,1.0900000000000001
1005,1782580460692,-0.050000000000000003,-0.02,1.0800000000000001
1006,1782580460710,-0.040000000000000001,-0.01,1.0600000000000001
1007,1782580460810,-0.040000000000000001,0.01,1.02
1008,1782580460875,-0.11,-0.029999999999999999,0.94999999999999996
1009,1782580460925,-0.11,0.02,0.93999999999999995
1010,1782580461025,-0.11,0.02,0.93999999999999995
1011,1782580461075,-0.11,0.040000000000000001,0.94999999999999996
1012,1782580461092,-0.089999999999999997,0.050000000000000003,0.97999999999999998
1013,1782580461108,-0.080000000000000002,0.050000000000000003,1.01
1014,1782580461125,-0.01,0.02,1.01
1015,1782580461209,-0.01,0.02,1.02
1016,1782580461291,-0.01,0.02,1.03
1017,1782580461424,-0.059999999999999998,-0.040000000000000001,1.03
1018,1782580461475,-0.059999999999999998,-0.040000000000000001,1.03
1019,1782580461525,-0.059999999999999998,-0.040000000000000001,1.03
1020,1782580461575,-0.059999999999999998,-0.040000000000000001,1.02
1021,1782580461624,-0.070000000000000007,-0.080000000000000002,1.02
1022,1782580461691,-0.080000000000000002,-0.070000000000000007,1.05
1023,1782580461758,-0.089999999999999997,-0.070000000000000007,1.02
1024,1782580461775,-0.089999999999999997,-0.070000000000000007,1.02
1025,1782580461791,-0.10000000000000001,-0.089999999999999997,1.03
1026,1782580461858,-0.089999999999999997,-0.089999999999999997,1.03
1027,1782580461908,-0.089999999999999997,-0.089999999999999997,1.01
1028,1782580461958,-0.14999999999999999,-0.050000000000000003,0.90000000000000002
1029,1782580462008,-0.14999999999999999,0.01,0.90000000000000002
1030,1782580462057,-0.14999999999999999,0.01,0.90000000000000002
1031,1782580462108,-0.13,0.01,0.93000000000000005
1032,1782580462174,-0.13,-0,1.05
1033,1782580462241,-0.080000000000000002,-0.080000000000000002,0.93000000000000005
1034,1782580462291,-0.089999999999999997,-0.080000000000000002,0.93000000000000005
1035,1782580462308,-0.10000000000000001,-0.080000000000000002,1.04
1036,1782580462340,-0.10000000000000001,-0.089999999999999997,1.04
1037,1782580462440,-0.10000000000000001,-0.089999999999999997,1.04
1038,1782580462474,-0.070000000000000007,-0.14000000000000001,1.1000000000000001
1039,1782580462541,-0.080000000000000002,-0.14000000000000001,1.03
1040,1782580462624,-0.080000000000000002,-0.14000000000000001,1.0900000000000001
1041,1782580462657,-0.070000000000000007,-0.14000000000000001,1.05
1042,1782580462674,-0.070000000000000007,-0.14000000000000001,1.03
1043,1782580462691,-0.070000000000000007,-0.14999999999999999,1.03
1044,1782580462741,-0.01,-0.20000000000000001,1.04
1045,1782580462807,-0.01,-0.20000000000000001,1.03
1046,1782580462873,-0.02,-0.20000000000000001,1
1047,1782580463024,-0.059999999999999998,-0.14999999999999999,0.96999999999999997
1048,1782580463073,-0.059999999999999998,-0.16,0.98999999999999999
1049,1782580463123,-0.059999999999999998,-0.17999999999999999,0.98999999999999999
1050,1782580463173,-0.059999999999999998,-0.17999999999999999,1.0800000000000001
1051,1782580463257,-0.070000000000000007,-0.23000000000000001,1.0700000000000001
1052,1782580463273,-0.070000000000000007,-0.23000000000000001,1.0700000000000001
1053,1782580463307,-0.070000000000000007,-0.23000000000000001,1.1000000000000001
1054,1782580463323,-0.070000000000000007,-0.23000000000000001,1.1000000000000001
1055,1782580463489,-0.040000000000000001,-0.20999999999999999,1.05
1056,1782580463556,-0.080000000000000002,-0.16,1.1299999999999999
1057,1782580463639,-0.080000000000000002,-0.16,1.1299999999999999
1058,1782580463673,-0.080000000000000002,-0.16,1.1299999999999999
1059,1782580463724,-0.080000000000000002,-0.17999999999999999,1.1299999999999999
1060,1782580463756,-0.059999999999999998,-0.11,1.1699999999999999
1061,1782580463823,-0.050000000000000003,-0.12,1.1699999999999999
1062,1782580463939,-0.029999999999999999,-0.14999999999999999,1.1799999999999999
1063,1782580463989,-0.040000000000000001,-0.11,0.95999999999999996
1064,1782580464056,-0.040000000000000001,-0.11,0.90000000000000002
1065,1782580464123,-0.040000000000000001,-0.11,0.95999999999999996
1066,1782580464189,-0.040000000000000001,-0.14999999999999999,0.88
1067,1782580464256,-0.059999999999999998,-0.20000000000000001,0.98999999999999999
1068,1782580464373,-0.080000000000000002,-0.13,1.1000000000000001
1069,1782580464422,-0.089999999999999997,-0.13,1.1000000000000001
1070,1782580464505,-0.080000000000000002,-0.13,1.1000000000000001
1071,1782580464539,-0.070000000000000007,-0.16,1.1000000000000001
1072,1782580464605,-0.029999999999999999,-0.13,1
1073,1782580464672,-0.040000000000000001,-0.089999999999999997,0.89000000000000001
1074,1782580464705,-0.040000000000000001,-0.089999999999999997,1.1100000000000001
1075,1782580464772,-0.040000000000000001,-0.089999999999999997,1.1000000000000001
1076,1782580464872,-0.040000000000000001,-0.089999999999999997,1
1077,1782580464905,-0.040000000000000001,-0.089999999999999997,1.04
1078,1782580464922,-0.029999999999999999,-0.080000000000000002,0.95999999999999996
1079,1782580464939,-0.029999999999999999,-0.080000000000000002,0.95999999999999996
1080,1782580465022,-0.029999999999999999,-0.10000000000000001,0.95999999999999996
1081,1782580465072,-0.02,-0.13,0.95999999999999996
1082,1782580465122,-0.059999999999999998,-0.070000000000000007,0.93000000000000005
1083,1782580465239,-0.059999999999999998,-0.029999999999999999,0.90000000000000002
1084,1782580465289,-0.059999999999999998,0,0.89000000000000001
1085,1782580465321,-0.059999999999999998,0,0.89000000000000001
1086,1782580465388,-0.070000000000000007,-0.070000000000000007,1.01
1087,1782580465438,-0.059999999999999998,-0.050000000000000003,1.01
1088,1782580465588,-0.070000000000000007,-0.050000000000000003,0.97999999999999998
1089,1782580465621,-0.029999999999999999,0,1.0600000000000001
1090,1782580465671,-0.029999999999999999,-0.040000000000000001,1.03
1091,1782580465738,-0.070000000000000007,-0.040000000000000001,1.03
1092,1782580465804,-0.070000000000000007,-0.01,0.88
1093,1782580465871,-0.02,-0.10000000000000001,1.24
1094,1782580465888,-0.02,-0.10000000000000001,1.24
1095,1782580465904,-0,-0.029999999999999999,1.1399999999999999
1096,1782580465987,-0.01,0.01,0.97999999999999998
1097,1782580466104,-0.01,0.080000000000000002,0.95999999999999996
1098,1782580466187,-0.059999999999999998,0.12,0.97999999999999998
1099,1782580466271,-0.070000000000000007,0.12,0.97999999999999998
1100,1782580466288,-0.080000000000000002,0.16,0.93999999999999995
1101,1782580466321,-0.12,0.11,0.97999999999999998
1102,1782580466354,-0.12,0.12,1.03
1103,1782580466420,-0.01,0.23999999999999999,0.95999999999999996
1104,1782580466587,-0.01,0.25,0.91000000000000003
1105,1782580466637,-0.01,0.28000000000000003,0.95999999999999996
1106,1782580466671,-0.01,0.28000000000000003,0.95999999999999996
1107,1782580466771,-0.14000000000000001,0.059999999999999998,1.0700000000000001
1108,1782580466820,-0.14000000000000001,0.059999999999999998,1.0700000000000001
1109,1782580466854,-0.13,0.059999999999999998,0.96999999999999997
1110,1782580466871,-0.13,0.22,0.96999999999999997
1111,1782580466904,-0.13,0.26000000000000001,0.96999999999999997
1112,1782580466920,-0.13,0.35999999999999999,0.96999999999999997
1113,1782580466970,-0.13,0.39000000000000001,1.04
1114,1782580467036,-0.01,0.40000000000000002,1.05
1115,1782580467104,-0.029999999999999999,0.46999999999999997,1.05
1116,1782580467136,-0.040000000000000001,0.52000000000000002,1.0900000000000001
1117,1782580467154,-0.050000000000000003,0.52000000000000002,1.1200000000000001
1118,1782580467170,-0.089999999999999997,0.52000000000000002,1.1799999999999999
1119,1782580467303,-0.059999999999999998,0.5,1.03
1120,1782580467370,-0.050000000000000003,0.47999999999999998,1.0600000000000001
1121,1782580467604,-0.02,0.45000000000000001,1.02
1122,1782580467637,-0.089999999999999997,0.44,0.95999999999999996
1123,1782580467703,-0.13,0.44,0.95999999999999996
1124,1782580467736,-0.13,0.44,0.94999999999999996
1125,1782580467786,-0.13,0.44,0.94999999999999996
1126,1782580467803,-0.029999999999999999,0.40000000000000002,1.1200000000000001
1127,1782580467853,-0.029999999999999999,0.40000000000000002,1.1200000000000001
1128,1782580467986,-0.059999999999999998,0.51000000000000001,1.0800000000000001
1129,1782580468052,-0.17000000000000001,0.42999999999999999,1.22
1130,1782580468069,-0.17000000000000001,0.47999999999999998,1.1499999999999999
1131,1782580468102,-0.17000000000000001,0.47999999999999998,1.1100000000000001
1132,1782580468186,-0.17999999999999999,0.57999999999999996,1.01
1133,1782580468202,-0.17000000000000001,0.57999999999999996,1.1100000000000001
1134,1782580468269,-0.13,0.57999999999999996,1.1100000000000001
1135,1782580468419,0,0.68999999999999995,0.83999999999999997
1136,1782580468469,0.02,0.68000000000000005,0.83999999999999997
1137,1782580468519,0.029999999999999999,0.59999999999999998,0.88
1138,1782580468585,-0.02,0.69999999999999996,0.87
1139,1782580468652,-0.02,0.69999999999999996,0.82999999999999996
1140,1782580468686,-0.029999999999999999,0.69999999999999996,0.87
1141,1782580468785,-0.029999999999999999,0.69999999999999996,0.87
1142,1782580468885,-0.14999999999999999,0.68000000000000005,0.94999999999999996
1143,1782580468952,-0.080000000000000002,0.66000000000000003,1.25
1144,1782580468985,-0.080000000000000002,0.62,1.25
1145,1782580469035,3.5499999999999998,0.62,1.25
1146,1782580469168,-0.10000000000000001,0.87,1.0900000000000001
1147,1782580469201,-0.089999999999999997,0.87,1.0900000000000001
1148,1782580469251,-0.089999999999999997,0.87,1.0900000000000001
1149,1782580469301,-0.10000000000000001,0.82999999999999996,1.1299999999999999
1150,1782580469368,-0.11,0.68000000000000005,1.1299999999999999
1151,1782580469402,-0.11,0.64000000000000001,1.1299999999999999
1152,1782580469418,-0.11,0.64000000000000001,1.0600000000000001
1153,1782580469435,-0.089999999999999997,0.65000000000000002,1.05
1154,1782580469552,-0.059999999999999998,0.58999999999999997,1.1399999999999999
1155,1782580469601,-0.089999999999999997,0.58999999999999997,1.1399999999999999
1156,1782580469651,-0.13,0.65000000000000002,1.0900000000000001
1157,1782580469701,-0.17000000000000001,0.75,0.85999999999999999
1158,1782580469719,-0.029999999999999999,0.63,1
1159,1782580469835,-0.029999999999999999,0.68999999999999995,0.91000000000000003
1160,1782580469885,-0.070000000000000007,0.72999999999999998,0.79000000000000004
1161,1782580469951,-0.050000000000000003,0.72999999999999998,0.79000000000000004
1162,1782580469985,-0.059999999999999998,0.75,0.68999999999999995
1163,1782580470017,-0.10000000000000001,0.75,0.83999999999999997
1164,1782580470118,-0.10000000000000001,0.66000000000000003,1.03
1165,1782580470184,-0.10000000000000001,0.66000000000000003,1.26
1166,1782580470284,-0.10000000000000001,0.83999999999999997,1.04
1167,1782580470301,-0.070000000000000007,0.84999999999999998,1.02
1168,1782580470334,-0.10000000000000001,0.84999999999999998,1.04
1169,1782580470350,-0.059999999999999998,0.84999999999999998,1.02
1170,1782580470384,-0.059999999999999998,0.84999999999999998,1.04
1171,1782580470567,-0.13,0.82999999999999996,0.98999999999999999
1172,1782580470634,-0.12,0.82999999999999996,0.93999999999999995
1173,1782580470667,-0.13,0.83999999999999997,0.98999999999999999
1174,1782580470733,-0.12,0.82999999999999996,0.93999999999999995
1175,1782580470767,-0.13,0.81999999999999995,1.1000000000000001
1176,1782580470851,-0.13,0.81999999999999995,1.1000000000000001
1177,1782580470900,-0.16,0.81999999999999995,1.1000000000000001
1178,1782580470950,-0.19,0.84999999999999998,1.1000000000000001
1179,1782580471017,-0.19,0.82999999999999996,0.95999999999999996
1180,1782580471066,-0.10000000000000001,0.65000000000000002,1.52
1181,1782580471217,-0.14999999999999999,0.78000000000000003,1.1000000000000001
1182,1782580471266,-0.16,0.79000000000000004,1.0800000000000001
1183,1782580471400,-0.040000000000000001,0.66000000000000003,1.05
1184,1782580471499,-0.040000000000000001,0.66000000000000003,1.05
1185,1782580471533,-0.059999999999999998,0.63,0.90000000000000002
1186,1782580471566,-0.059999999999999998,0.66000000000000003,0.79000000000000004
1187,1782580471616,-0.080000000000000002,0.67000000000000004,0.72999999999999998
1188,1782580471633,-0.10000000000000001,0.58999999999999997,1.3700000000000001
1189,1782580471683,-0.10000000000000001,0.58999999999999997,1
1190,1782580471733,-0.080000000000000002,0.58999999999999997,0.91000000000000003
1191,1782580471782,-0.070000000000000007,0.65000000000000002,0.81000000000000005
1192,1782580471832,-0.070000000000000007,0.65000000000000002,0.77000000000000002
1193,1782580471866,0.01,0.65000000000000002,0.66000000000000003
1194,1782580471933,-0,0.68000000000000005,1.28
1195,1782580471999,-0,0.71999999999999997,1.28
1196,1782580472066,-0.080000000000000002,0.71999999999999997,1.5
1197,1782580472132,-0.12,0.73999999999999999,1.28
1198,1782580472265,-0.11,0.87,1.05
1199,1782580472299,-0.089999999999999997,0.85999999999999999,0.91000000000000003
1200,1782580472349,-0.040000000000000001,0.85999999999999999,0.85999999999999999
1201,1782580472415,-0.040000000000000001,0.80000000000000004,0.85999999999999999
1202,1782580472449,-0.01,0.64000000000000001,0.81000000000000005
1203,1782580472549,-0.01,0.64000000000000001,0.81000000000000005
1204,1782580472598,-0.01,0.64000000000000001,0.81000000000000005
1205,1782580472649,-0.01,0.64000000000000001,0.81000000000000005
1206,1782580472666,-0.059999999999999998,0.58999999999999997,0.92000000000000004
1207,1782580472716,-0.10000000000000001,0.63,0.92000000000000004
1208,1782580472782,-0.13,0.70999999999999996,0.92000000000000004
1209,1782580472865,-0.13,0.81000000000000005,0.92000000000000004
1210,1782580472881,-0.13,0.93000000000000005,1.04
1211,1782580472932,-0.13,0.93000000000000005,1.2
1212,1782580472965,-0.23000000000000001,0.93999999999999995,1.03
1213,1782580473015,-0.23999999999999999,0.93000000000000005,1.05
1214,1782580473065,-0.23999999999999999,0.83999999999999997,1.3700000000000001
1215,1782580473115,-0.23000000000000001,0.82999999999999996,1.3700000000000001
1216,1782580473331,-0.13,0.42999999999999999,0.78000000000000003
1217,1782580473349,-0.10000000000000001,0.41999999999999998,0.78000000000000003
1218,1782580473415,-0.01,0.41999999999999998,0.78000000000000003
1219,1782580473448,0.12,0.80000000000000004,0.94999999999999996
1220,1782580473481,0.12,0.80000000000000004,0.88
1221,1782580473498,0.11,0.87,0.81999999999999995
1222,1782580473515,0.059999999999999998,0.87,0.59999999999999998
1223,1782580473565,0.01,0.87,0.59999999999999998
1224,1782580473748,0.040000000000000001,0.82999999999999996,0.81999999999999995
1225,1782580473815,0.050000000000000003,0.81999999999999995,0.80000000000000004
1226,1782580473881,0.029999999999999999,0.71999999999999997,0.80000000000000004
1227,1782580473914,-0.01,0.66000000000000003,0.80000000000000004
1228,1782580473931,-0.080000000000000002,0.65000000000000002,0.80000000000000004
1229,1782580473947,-0.12,0.62,0.80000000000000004
1230,1782580473964,-0.16,0.62,1.1000000000000001
1231,1782580473998,-0.23000000000000001,0.62,1.1000000000000001
1232,1782580474047,-0.059999999999999998,1,1.03
1233,1782580474064,-0.059999999999999998,1,1.1299999999999999
1234,1782580474097,-0.13,0.87,1.1299999999999999
1235,1782580474147,-0.19,0.85999999999999999,1.1299999999999999
1236,1782580474264,-0.19,0.81999999999999995,1.02
1237,1782580474314,-0.12,0.37,0.90000000000000002
1238,1782580474414,-0.13,0.23000000000000001,0.84999999999999998
1239,1782580474464,-0.13,0.20999999999999999,1.01
1240,1782580474481,-0.13,0.16,1.01
1241,1782580474497,-0.12,0.11,1.01
1242,1782580474564,-0.029999999999999999,0.78000000000000003,1.1799999999999999
1243,1782580474614,0,0.78000000000000003,1.21
1244,1782580474697,0,0.79000000000000004,1.22
1245,1782580474814,-0.029999999999999999,0.82999999999999996,1.22
1246,1782580474847,-0.17000000000000001,0.83999999999999997,0.67000000000000004
1247,1782580474897,-0.13,0.78000000000000003,0.65000000000000002
1248,1782580474946,-0.11,0.77000000000000002,0.65000000000000002
1249,1782580475081,0.029999999999999999,0.76000000000000001,0.65000000000000002
1250,1782580475113,-0.029999999999999999,0.79000000000000004,0.91000000000000003
1251,1782580475163,-0.029999999999999999,0.88,0.91000000000000003
1252,1782580475230,-0.080000000000000002,0.91000000000000003,0.91000000000000003
1253,1782580475280,-0.080000000000000002,0.91000000000000003,0.91000000000000003
1254,1782580475363,-0.080000000000000002,0.87,1.0800000000000001
1255,1782580475396,-0.10000000000000001,0.87,1
1256,1782580475430,-0.10000000000000001,0.82999999999999996,0.93999999999999995
1257,1782580475496,-0.10000000000000001,0.82999999999999996,1
1258,1782580475529,-0.070000000000000007,0.87,1
1259,1782580475546,-0.11,0.83999999999999997,1
1260,1782580475613,-0.32000000000000001,0.56000000000000005,1.22
1261,1782580475680,-0.34000000000000002,0.56000000000000005,1.22
1262,1782580475729,-0.34000000000000002,0.56000000000000005,0.89000000000000001
1263,1782580475896,0.059999999999999998,0.54000000000000004,1.1000000000000001
1264,1782580475929,0.059999999999999998,0.59999999999999998,0.93000000000000005
1265,1782580475979,0.059999999999999998,0.63,0.93000000000000005
1266,1782580476062,0.01,0.59999999999999998,0.94999999999999996
1267,1782580476129,-0.11,0.93999999999999995,0.93999999999999995
1268,1782580476212,-0.13,0.85999999999999999,1.21
1269,1782580476279,-0.050000000000000003,0.93999999999999995,1.4299999999999999
1270,1782580476329,-0.10000000000000001,0.93999999999999995,1.4299999999999999
1271,1782580476396,-0.050000000000000003,0.94999999999999996,1.21
1272,1782580476479,-0.080000000000000002,0.75,0.81000000000000005
1273,1782580476545,-0.14999999999999999,0.79000000000000004,1.0900000000000001
1274,1782580476612,-0.14999999999999999,0.75,1.1499999999999999
1275,1782580476662,-0.19,0.79000000000000004,1.21
1276,1782580476762,-0.14000000000000001,0.76000000000000001,0.93000000000000005
1277,1782580476895,-0.14000000000000001,0.79000000000000004,0.91000000000000003
1278,1782580476928,-0.14000000000000001,0.81999999999999995,0.90000000000000002
1279,1782580477028,-0.14000000000000001,0.75,1.1499999999999999
1280,1782580477112,-0.17999999999999999,0.79000000000000004,1
1281,1782580477178,-0.070000000000000007,0.81999999999999995,0.93999999999999995
1282,1782580477261,-0.070000000000000007,0.72999999999999998,0.93000000000000005
1283,1782580477295,-0.070000000000000007,0.73999999999999999,0.93000000000000005
1284,1782580477312,-0.070000000000000007,0.79000000000000004,0.93000000000000005
1285,1782580477344,-0.059999999999999998,0.81000000000000005,1.01
1286,1782580477394,-0.059999999999999998,0.85999999999999999,1.05
1287,1782580477478,-0.059999999999999998,0.87,1.0800000000000001
1288,1782580477495,-0.26000000000000001,0.75,1.1699999999999999
1289,1782580477545,-0.26000000000000001,0.78000000000000003,1.3
1290,1782580477595,-0.26000000000000001,0.78000000000000003,1.3
1291,1782580477628,-0.26000000000000001,0.93999999999999995,1.3
1292,1782580477695,-0.20000000000000001,0.97999999999999998,1.1200000000000001
1293,1782580477811,-0.33000000000000002,0.41999999999999998,1.02
1294,1782580477878,-0.33000000000000002,0.41999999999999998,1.0800000000000001
1295,1782580477911,-0.31,0.41999999999999998,0.98999999999999999
1296,1782580478011,-0.28999999999999998,0.37,1.0800000000000001
1297,1782580478044,-0.040000000000000001,0.78000000000000003,0.78000000000000003
1298,1782580478161,-0.040000000000000001,0.75,1.1100000000000001
1299,1782580478194,-0.040000000000000001,0.71999999999999997,1.1699999999999999
1300,1782580478277,-0.12,0.79000000000000004,0.95999999999999996
1301,1782580478311,-0.059999999999999998,0.78000000000000003,1.0700000000000001
1302,1782580478344,0.029999999999999999,0.78000000000000003,1.0600000000000001
1303,1782580478377,0.029999999999999999,0.78000000000000003,1.0600000000000001
1304,1782580478561,0.029999999999999999,0.84999999999999998,1.1200000000000001
1305,1782580478610,0.070000000000000007,0.75,1.1200000000000001
1306,1782580478677,0.070000000000000007,0.66000000000000003,1.1200000000000001
1307,1782580478710,0.070000000000000007,0.66000000000000003,1.1200000000000001
1308,1782580478794,0.070000000000000007,0.66000000000000003,1.0800000000000001
1309,1782580478827,0.029999999999999999,0.76000000000000001,0.72999999999999998
1310,1782580478844,0.14999999999999999,0.57999999999999996,0.58999999999999997
1311,1782580478877,-0.050000000000000003,0.57999999999999996,0.58999999999999997
1312,1782580478893,-0.17999999999999999,0.76000000000000001,0.79000000000000004
1313,1782580478927,-0.34000000000000002,0.79000000000000004,0.82999999999999996
1314,1782580478960,-0.37,0.83999999999999997,1.46
1315,1782580479010,-0.42999999999999999,0.88,1.9399999999999999
1316,1782580479060,-0.42999999999999999,0.93000000000000005,1.9399999999999999
1317,1782580479143,-0.45000000000000001,0.96999999999999997,0.82999999999999996
1318,1782580479210,-0.45000000000000001,0.88,0.83999999999999997
1319,1782580479277,-0.45000000000000001,0.82999999999999996,0.82999999999999996
1320,1782580479311,-0.40999999999999998,0.81999999999999995,0.78000000000000003
1321,1782580479344,-0.37,0.55000000000000004,0.78000000000000003
1322,1782580479359,-0.28999999999999998,0.45000000000000001,0.78000000000000003
1323,1782580479476,-0.029999999999999999,0.089999999999999997,1
1324,1782580479543,-0,0.089999999999999997,1
1325,1782580479676,-0.029999999999999999,0.76000000000000001,1.0600000000000001
1326,1782580479709,-0.029999999999999999,0.76000000000000001,1.0900000000000001
1327,1782580479776,-0.02,0.68999999999999995,1.1499999999999999
1328,1782580479843,-0.029999999999999999,0.68999999999999995,1.4199999999999999
1329,1782580479959,-0.17999999999999999,1.01,1.3100000000000001
1330,1782580479976,-0.16,1.01,1.0800000000000001
1331,1782580480026,-0.10000000000000001,1,0.89000000000000001
1332,1782580480092,-0.059999999999999998,0.92000000000000004,0.89000000000000001
1333,1782580480159,-0.029999999999999999,0.89000000000000001,1.05
1334,1782580480193,0.029999999999999999,0.89000000000000001,0.71999999999999997
1335,1782580480226,0.080000000000000002,0.81000000000000005,0.71999999999999997
1336,1782580480309,0.029999999999999999,0.81000000000000005,0.71999999999999997
1337,1782580480325,0.029999999999999999,0.77000000000000002,0.71999999999999997
1338,1782580480359,0.029999999999999999,0.63,0.79000000000000004
1339,1782580480425,-0.22,0.75,1.1000000000000001
1340,1782580480492,-0.22,0.78000000000000003,1.22
1341,1782580480559,-0.23999999999999999,0.90000000000000002,1.3100000000000001
1342,1782580480608,-0.22,0.96999999999999997,1.3100000000000001
1343,1782580480759,-0.17000000000000001,-0.28000000000000003,1.1000000000000001
1344,1782580480792,-0.16,-0.34000000000000002,1.0700000000000001
1345,1782580480842,-0.11,-0.38,1.0600000000000001
1346,1782580480908,-0.070000000000000007,-0.38,1
1347,1782580480975,0.070000000000000007,-0.25,0.78000000000000003
1348,1782580481009,-0.01,-0.25,0.78000000000000003
1349,1782580481076,-0.01,-0.27000000000000002,0.93000000000000005
1350,1782580481125,-0.01,-0.27000000000000002,0.93999999999999995
1351,1782580481175,0.01,-0.33000000000000002,1.0700000000000001
1352,1782580481225,0.029999999999999999,-0.33000000000000002,1.0700000000000001
1353,1782580481258,-0.029999999999999999,-0.52000000000000002,1.03
1354,1782580481292,-0.029999999999999999,-0.52000000000000002,1.03
1355,1782580481392,-0.029999999999999999,-0.52000000000000002,1.03
1356,1782580481441,0,-0.53000000000000003,1.1399999999999999
1357,1782580481508,0.02,-0.56999999999999995,1.1399999999999999
1358,1782580481524,0.050000000000000003,-0.62,0.93000000000000005
1359,1782580481608,0.050000000000000003,-0.62,0.93000000000000005
1360,1782580481658,0.050000000000000003,-0.62,0.93000000000000005
1361,1782580481725,0.070000000000000007,-0.62,0.93000000000000005
1362,1782580481775,0.22,-0.88,0.87
1363,1782580481808,0.23000000000000001,-0.85999999999999999,1.0800000000000001
1364,1782580481891,0.23000000000000001,-0.81999999999999995,0.88
1365,1782580481908,0.19,-0.81000000000000005,0.88
1366,1782580481941,0.19,-0.81000000000000005,0.88
1367,1782580482007,0.19,-0.81000000000000005,0.91000000000000003
1368,1782580482008,0.050000000000000003,-0.60999999999999999,1.02
1369,1782580482058,0.050000000000000003,-0.58999999999999997,1.01
1370,1782580482157,0.070000000000000007,-0.58999999999999997,1.01
1371,1782580482274,0.17999999999999999,-1.02,1.1000000000000001
1372,1782580482341,0.17999999999999999,-1,1.1000000000000001
1373,1782580482390,0.17999999999999999,-1,1.1000000000000001
1374,1782580482440,0.17999999999999999,-0.94999999999999996,1.0900000000000001
1375,1782580482491,0.13,-0.85999999999999999,0.97999999999999998
1376,1782580482657,0.12,-0.77000000000000002,0.92000000000000004
1377,1782580482724,0.14000000000000001,-0.82999999999999996,0.93999999999999995
1378,1782580482790,0.17000000000000001,-0.92000000000000004,1.04
1379,1782580482823,0.14000000000000001,-0.78000000000000003,0.98999999999999999
1380,1782580482857,0.14000000000000001,-0.80000000000000004,1.03
1381,1782580482907,0.089999999999999997,-0.80000000000000004,1.03
1382,1782580482956,0.089999999999999997,-0.78000000000000003,0.98999999999999999
1383,1782580482990,0.11,-0.78000000000000003,0.98999999999999999
1384,1782580483090,0.23000000000000001,-1.04,1.0700000000000001
1385,1782580483173,0.23999999999999999,-0.89000000000000001,1.0600000000000001
1386,1782580483240,0.23000000000000001,-0.78000000000000003,1.0600000000000001
1387,1782580483306,0.29999999999999999,-0.90000000000000002,1.01
1388,1782580483373,0.27000000000000002,-0.85999999999999999,1.01
1389,1782580483440,0.27000000000000002,-0.81000000000000005,0.94999999999999996
1390,1782580483473,0.33000000000000002,-0.81000000000000005,0.94999999999999996
1391,1782580483539,0.33000000000000002,-0.85999999999999999,1.01
1392,1782580483590,0.32000000000000001,-0.93999999999999995,0.95999999999999996
1393,1782580483656,0.31,-0.83999999999999997,0.93000000000000005
1394,1782580483707,0.28999999999999998,-0.82999999999999996,0.89000000000000001
1395,1782580483756,0.25,-0.76000000000000001,0.77000000000000002
1396,1782580483806,0.25,-0.69999999999999996,0.76000000000000001
1397,1782580483856,0.23000000000000001,-0.67000000000000004,0.77000000000000002
1398,1782580483889,0.14999999999999999,-0.29999999999999999,0.70999999999999996
1399,1782580483939,0.089999999999999997,-0.29999999999999999,0.97999999999999998
1400,1782580483990,0,-0.40000000000000002,0.97999999999999998
1401,1782580484055,-0.01,-0.40000000000000002,0.97999999999999998
1402,1782580484189,0.01,-0.59999999999999998,0.98999999999999999
1403,1782580484222,0.02,-0.55000000000000004,0.95999999999999996
1404,1782580484273,0.02,-0.54000000000000004,0.87
1405,1782580484339,0.029999999999999999,-0.55000000000000004,0.93000000000000005
1406,1782580484406,0.059999999999999998,-0.72999999999999998,1.03
1407,1782580484439,0.029999999999999999,-0.68999999999999995,0.81000000000000005
1408,1782580484522,0.059999999999999998,-0.65000000000000002,0.81000000000000005
1409,1782580484539,0.040000000000000001,-0.64000000000000001,0.80000000000000004
1410,1782580484572,0.050000000000000003,-0.63,0.80000000000000004
1411,1782580484622,0.040000000000000001,-0.64000000000000001,0.80000000000000004
1412,1782580484639,0.10000000000000001,-0.80000000000000004,0.90000000000000002
1413,1782580484738,0.070000000000000007,-0.77000000000000002,0.88
1414,1782580484805,0.070000000000000007,-0.70999999999999996,0.89000000000000001
1415,1782580484889,0.080000000000000002,-0.58999999999999997,1.0700000000000001
1416,1782580484955,0.050000000000000003,-0.57999999999999996,1.0800000000000001
1417,1782580485022,0.059999999999999998,-0.57999999999999996,1.01
1418,1782580485055,0.059999999999999998,-0.57999999999999996,1.0700000000000001
1419,1782580485105,0.059999999999999998,-0.54000000000000004,1.0900000000000001
1420,1782580485188,0,-0.62,1.0700000000000001
1421,1782580485255,-0.01,-0.53000000000000003,0.78000000000000003
1422,1782580485321,-0.01,-0.53000000000000003,0.78000000000000003
1423,1782580485355,0.01,-0.53000000000000003,0.78000000000000003
1424,1782580485421,0.089999999999999997,-0.70999999999999996,0.76000000000000001
1425,1782580485471,0.089999999999999997,-0.69999999999999996,0.75
1426,1782580485538,0.11,-0.70999999999999996,0.78000000000000003
1427,1782580485587,0.11,-0.71999999999999997,0.78000000000000003
1428,1782580485605,0.11,-0.75,0.78000000000000003
1429,1782580485655,0.12,-0.75,0.85999999999999999
1430,1782580485738,0.12,-0.75,0.93999999999999995
1431,1782580485804,0.12,-0.75,0.90000000000000002
1432,1782580485971,0.28999999999999998,-1.0900000000000001,1.3100000000000001
1433,1782580486038,0.28000000000000003,-1.0900000000000001,1.3100000000000001
1434,1782580486054,0.28000000000000003,-1.0600000000000001,1.3100000000000001
1435,1782580486121,0.25,-0.98999999999999999,1.1200000000000001
1436,1782580486171,0.23999999999999999,-0.91000000000000003,1.0900000000000001
1437,1782580486221,0.23999999999999999,-0.87,0.98999999999999999
1438,1782580486237,0.23999999999999999,-0.87,0.97999999999999998
1439,1782580486304,0.17999999999999999,-0.78000000000000003,0.83999999999999997
1440,1782580486354,0.17000000000000001,-0.72999999999999998,0.78000000000000003
1441,1782580486454,0.16,-0.70999999999999996,0.77000000000000002
1442,1782580486487,0.13,-0.66000000000000003,0.77000000000000002
1443,1782580486504,0.12,-0.66000000000000003,0.77000000000000002
1444,1782580486570,0.14999999999999999,-0.73999999999999999,0.93000000000000005
1445,1782580486604,0.14999999999999999,-0.73999999999999999,0.72999999999999998
1446,1782580486671,0.14999999999999999,-0.73999999999999999,0.98999999999999999
1447,1782580486787,0,-0.57999999999999996,0.65000000000000002
1448,1782580486854,0.050000000000000003,-0.57999999999999996,0.94999999999999996
1449,1782580486887,0.080000000000000002,-0.80000000000000004,0.98999999999999999
1450,1782580486937,0.12,-0.92000000000000004,1.1200000000000001
1451,1782580487070,0.11,-0.91000000000000003,0.93999999999999995
1452,1782580487120,0.11,-0.81000000000000005,1.3899999999999999
1453,1782580487170,0.11,-0.70999999999999996,1.23
1454,1782580487203,0.059999999999999998,-0.68999999999999995,1.23
1455,1782580487237,0.050000000000000003,-0.68000000000000005,1.1100000000000001
1456,1782580487370,0.080000000000000002,-0.70999999999999996,1.1100000000000001
1457,1782580487436,0.10000000000000001,-0.68999999999999995,1.1100000000000001
1458,1782580487520,0.25,-0.84999999999999998,0.95999999999999996
1459,1782580487553,0.25,-0.83999999999999997,0.95999999999999996
1460,1782580487619,0.25,-0.83999999999999997,1.02
1461,1782580487669,0.26000000000000001,-0.83999999999999997,1.02
1462,1782580487786,0.32000000000000001,-0.84999999999999998,0.96999999999999997
1463,1782580487903,0.28000000000000003,-0.82999999999999996,0.85999999999999999
1464,1782580487936,0.28000000000000003,-0.78000000000000003,0.85999999999999999
1465,1782580488002,0.26000000000000001,-0.77000000000000002,0.84999999999999998
1466,1782580488019,0.28000000000000003,-0.81000000000000005,0.81999999999999995
1467,1782580488085,0.22,-0.81000000000000005,0.91000000000000003
1468,1782580488169,0.22,-0.81999999999999995,0.81999999999999995
1469,1782580488235,0.20999999999999999,-0.81999999999999995,0.81999999999999995
1470,1782580488269,0.12,-0.77000000000000002,0.84999999999999998
1471,1782580488320,0.12,-0.73999999999999999,0.84999999999999998
1472,1782580488385,0.12,-0.73999999999999999,0.84999999999999998
1473,1782580488435,0.16,-0.73999999999999999,0.89000000000000001
1474,1782580488486,0.11,-0.79000000000000004,0.98999999999999999
1475,1782580488552,0.089999999999999997,-0.87,1
1476,1782580488602,0.13,-0.51000000000000001,0.98999999999999999
1477,1782580488652,0.12,-0.42999999999999999,0.94999999999999996
1478,1782580488702,0.12,-0.38,0.92000000000000004
1479,1782580488752,0.10000000000000001,-0.38,0.90000000000000002
1480,1782580488768,0.050000000000000003,-0.34000000000000002,0.87
1481,1782580488852,0,-0.34000000000000002,0.87
1482,1782580488885,0.059999999999999998,-0.47999999999999998,1.02
1483,1782580488969,0.050000000000000003,-0.59999999999999998,1.03
1484,1782580489085,0.040000000000000001,-0.59999999999999998,1.03
1485,1782580489101,-0.050000000000000003,-0.60999999999999999,1
1486,1782580489185,-0.050000000000000003,-0.53000000000000003,0.94999999999999996
1487,1782580489218,-0.050000000000000003,-0.53000000000000003,0.94999999999999996
1488,1782580489268,-0.01,-0.53000000000000003,1
1489,1782580489334,-0.01,-0.68000000000000005,0.93000000000000005
1490,1782580489385,0.13,-0.93999999999999995,0.93999999999999995
1491,1782580489434,0.16,-0.93999999999999995,0.93000000000000005
1492,1782580489485,0.14000000000000001,-0.91000000000000003,0.93000000000000005
1493,1782580489518,0.14000000000000001,-0.79000000000000004,0.93000000000000005
1494,1782580489551,0.14000000000000001,-0.76000000000000001,0.92000000000000004
1495,1782580489601,0.14000000000000001,-0.76000000000000001,0.91000000000000003
1496,1782580489619,0.13,-0.68000000000000005,0.79000000000000004
1497,1782580489684,0.13,-0.68000000000000005,0.65000000000000002
1498,1782580489817,0.13,-0.68000000000000005,0.79000000000000004
1499,1782580489851,0.13,-0.69999999999999996,0.90000000000000002
1500,1782580489884,0.059999999999999998,-0.70999999999999996,0.98999999999999999
1501,1782580489950,0.059999999999999998,-0.78000000000000003,1.0800000000000001
1502,1782580490051,0.029999999999999999,-0.81000000000000005,1.0800000000000001
1503,1782580490117,0.080000000000000002,-0.54000000000000004,1.21
1504,1782580490217,0.050000000000000003,-0.54000000000000004,1.21
1505,1782580490234,0.050000000000000003,-0.47999999999999998,0.90000000000000002
1506,1782580490251,0.050000000000000003,-0.40000000000000002,0.90000000000000002
1507,1782580490317,0.01,-0.35999999999999999,0.83999999999999997
1508,1782580490400,0.089999999999999997,-0.68999999999999995,0.92000000000000004
1509,1782580490434,0.070000000000000007,-0.69999999999999996,0.94999999999999996
1510,1782580490484,0.059999999999999998,-0.70999999999999996,0.97999999999999998
1511,1782580490534,0.059999999999999998,-0.75,0.97999999999999998
1512,1782580490750,0.059999999999999998,-0.93000000000000005,1.0600000000000001
1513,1782580490783,0.12,-0.93000000000000005,1.0600000000000001
1514,1782580490850,0.059999999999999998,-0.93000000000000005,1.0600000000000001
1515,1782580490900,0.070000000000000007,-0.67000000000000004,0.81000000000000005
1516,1782580490950,0.059999999999999998,-0.67000000000000004,0.80000000000000004
1517,1782580491017,0.070000000000000007,-0.66000000000000003,0.80000000000000004
1518,1782580491050,0.059999999999999998,-0.70999999999999996,0.81000000000000005
1519,1782580491116,0.059999999999999998,-0.70999999999999996,0.84999999999999998
1520,1782580491166,0.059999999999999998,-0.68000000000000005,0.89000000000000001
1521,1782580491216,0.040000000000000001,-0.47999999999999998,0.80000000000000004
1522,1782580491250,-0.040000000000000001,-0.47999999999999998,0.80000000000000004
1523,1782580491300,-0.040000000000000001,-0.48999999999999999,0.93000000000000005
1524,1782580491350,-0.02,-0.48999999999999999,0.95999999999999996
1525,1782580491466,0.070000000000000007,-0.76000000000000001,1.0700000000000001
1526,1782580491516,0.070000000000000007,-0.84999999999999998,1.0700000000000001
1527,1782580491566,0.080000000000000002,-0.84999999999999998,1.0700000000000001
1528,1782580491632,0.080000000000000002,-0.84999999999999998,1.0700000000000001
1529,1782580491716,0.059999999999999998,-0.77000000000000002,0.96999999999999997
1530,1782580491732,0.050000000000000003,-0.77000000000000002,0.96999999999999997
1531,1782580491799,0.059999999999999998,-0.77000000000000002,0.96999999999999997
1532,1782580491849,0.059999999999999998,-0.80000000000000004,0.96999999999999997
1533,1782580491866,0.059999999999999998,-0.68999999999999995,0.94999999999999996
1534,1782580491932,0.10000000000000001,-0.71999999999999997,0.96999999999999997
1535,1782580491949,0.14000000000000001,-0.97999999999999998,1.1899999999999999
1536,1782580492016,0.14000000000000001,-0.96999999999999997,1.1200000000000001
1537,1782580492050,0.14999999999999999,-0.96999999999999997,1.1200000000000001
1538,1782580492099,0.14999999999999999,-0.89000000000000001,1.1200000000000001
1539,1782580492149,0.11,-0.84999999999999998,0.80000000000000004
1540,1782580492249,0.17999999999999999,-0.90000000000000002,0.98999999999999999
1541,1782580492315,0.14000000000000001,-0.90000000000000002,1.04
1542,1782580492366,0.20999999999999999,-0.93000000000000005,1.0700000000000001
1543,1782580492448,0.20999999999999999,-0.90000000000000002,1
1544,1782580492482,0.16,-0.94999999999999996,1.1899999999999999
1545,1782580492532,0.17999999999999999,-0.94999999999999996,1.1899999999999999
1546,1782580492599,0.14000000000000001,-0.94999999999999996,0.97999999999999998
1547,1782580492632,0.14000000000000001,-0.92000000000000004,1.1699999999999999
1548,1782580492765,0.26000000000000001,-1.01,1.1899999999999999
1549,1782580492782,0.26000000000000001,-1.02,1.28
1550,1782580492815,0.26000000000000001,-1.02,1.1899999999999999
1551,1782580492898,0.26000000000000001,-1.02,1.1899999999999999
1552,1782580492915,0.17999999999999999,-0.88,0.98999999999999999
1553,1782580493015,0.12,-0.77000000000000002,0.94999999999999996
1554,1782580493065,0.12,-0.75,0.82999999999999996
1555,1782580493115,0.12,-0.75,0.81000000000000005
1556,1782580493181,0.12,-0.75,0.81000000000000005
1557,1782580493265,0.040000000000000001,-0.58999999999999997,0.62
1558,1782580493315,0.050000000000000003,-0.58999999999999997,0.73999999999999999
1559,1782580493381,0.070000000000000007,-0.63,0.76000000000000001
1560,1782580493415,0.070000000000000007,-1.05,1.21
1561,1782580493431,0.12,-1.1299999999999999,1.25
1562,1782580493448,0.19,-1.1299999999999999,1.4299999999999999
1563,1782580493481,0.23000000000000001,-1.1299999999999999,1.4299999999999999
1564,1782580493514,0.19,-1.1299999999999999,1.23
1565,1782580493564,0.19,-1.04,1.23
1566,1782580493631,0.16,-0.93000000000000005,0.93999999999999995
1567,1782580493714,0.14000000000000001,-0.88,0.93999999999999995
1568,1782580493764,0.14000000000000001,-0.88,0.93999999999999995
1569,1782580493814,0.13,-0.84999999999999998,0.93999999999999995
1570,1782580493881,0.16,-0.46999999999999997,0.81000000000000005
1571,1782580493932,0.16,-0.46000000000000002,0.81000000000000005
1572,1782580494031,0.089999999999999997,-0.46999999999999997,0.81000000000000005
1573,1782580494097,0.089999999999999997,-0.46999999999999997,0.73999999999999999
1574,1782580494214,0.10000000000000001,-0.69999999999999996,0.94999999999999996
1575,1782580494264,0.11,-0.75,1.1200000000000001
1576,1782580494347,0.14000000000000001,-1.04,1.1399999999999999
1577,1782580494414,0.23000000000000001,-1.0700000000000001,1.2
1578,1782580494464,0.23000000000000001,-1.0700000000000001,1.2
1579,1782580494514,0.23000000000000001,-1.0700000000000001,1.1299999999999999
1580,1782580494580,0.22,-0.95999999999999996,1.03
1581,1782580494680,0.17999999999999999,-0.93000000000000005,0.98999999999999999
1582,1782580494714,0.17999999999999999,-0.89000000000000001,0.88
1583,1782580494747,0.17999999999999999,-0.84999999999999998,0.88
1584,1782580494780,0.17999999999999999,-0.84999999999999998,0.97999999999999998
1585,1782580494847,0.17999999999999999,-0.81000000000000005,0.97999999999999998
1586,1782580494896,0.19,-0.33000000000000002,1.1899999999999999
1587,1782580495013,0.19,-0.28000000000000003,1.1399999999999999
1588,1782580495030,0.19,-0.20999999999999999,1.01
1589,1782580495064,0.19,-0.14000000000000001,0.98999999999999999
1590,1782580495130,0.22,0.20000000000000001,0.80000000000000004
1591,1782580495197,0.059999999999999998,0.56000000000000005,0.82999999999999996
1592,1782580495296,-0.070000000000000007,0.51000000000000001,0.84999999999999998
1593,1782580495363,-0.080000000000000002,0.46999999999999997,1.03
1594,1782580495413,-0.28999999999999998,0.42999999999999999,1.03
1595,1782580495430,0.23000000000000001,0.45000000000000001,1.1499999999999999
1596,1782580495596,0.20999999999999999,0.48999999999999999,1.1499999999999999
1597,1782580495646,0.20000000000000001,0.48999999999999999,1.02
1598,1782580495696,0.12,0.58999999999999997,0.98999999999999999
1599,1782580495746,0.12,0.79000000000000004,1.1599999999999999
1600,1782580495796,0.12,0.79000000000000004,1.1599999999999999
1601,1782580495846,0.12,0.79000000000000004,1.01
1602,1782580495879,0.02,0.81000000000000005,1
1603,1782580495945,-0.01,0.90000000000000002,0.93000000000000005
1604,1782580495962,-0.11,0.90000000000000002,0.93000000000000005
1605,1782580495979,-0.11,0.90000000000000002,0.93000000000000005
1606,1782580496012,-0.11,0.88,0.96999999999999997
1607,1782580496079,0.10000000000000001,0.73999999999999999,1.04
1608,1782580496145,0.10000000000000001,0.73999999999999999,1.04
1609,1782580496196,0.070000000000000007,0.76000000000000001,1.04
1610,1782580496246,0.070000000000000007,0.78000000000000003,1.04
1611,1782580496279,-0.17000000000000001,0.92000000000000004,1
1612,1782580496329,-0.22,1.03,0.90000000000000002
1613,1782580496379,-0.22,1.03,0.90000000000000002
1614,1782580496429,-0.17000000000000001,1.03,1.0700000000000001
1615,1782580496496,-0.10000000000000001,0.93000000000000005,1.0600000000000001
1616,1782580496545,-0.029999999999999999,0.87,1.0700000000000001
1617,1782580496595,-0.16,0.52000000000000002,0.83999999999999997
1618,1782580496645,-0.16,0.47999999999999998,0.87
1619,1782580496695,-0.12,0.40000000000000002,0.84999999999999998
1620,1782580496745,-0.16,0.40000000000000002,1.02
1621,1782580496779,-0.16,0.41999999999999998,1.1000000000000001
1622,1782580496812,0.029999999999999999,0.81999999999999995,0.78000000000000003
1623,1782580496912,0.029999999999999999,0.72999999999999998,1
1624,1782580496945,0.029999999999999999,0.72999999999999998,1.1599999999999999
1625,1782580496978,0.029999999999999999,0.72999999999999998,1.1599999999999999
1626,1782580497061,-0.059999999999999998,0.81999999999999995,1.1499999999999999
1627,1782580497111,0,0.81999999999999995,1.23
1628,1782580497178,0,0.83999999999999997,1.1499999999999999
1629,1782580497278,0.070000000000000007,0.85999999999999999,1.1499999999999999
1630,1782580497295,0.080000000000000002,0.85999999999999999,1.1499999999999999
1631,1782580497311,0.12,0.85999999999999999,1.03
1632,1782580497344,-0.16,0.97999999999999998,1.2
1633,1782580497411,-0.16,1.03,1.2
1634,1782580497461,-0.059999999999999998,1.03,1.2
1635,1782580497544,-0.050000000000000003,0.97999999999999998,0.80000000000000004
1636,1782580497595,-0.089999999999999997,0.84999999999999998,0.82999999999999996
1637,1782580497678,-0.12,0.84999999999999998,0.67000000000000004
1638,1782580497744,-0.12,0.84999999999999998,0.67000000000000004
1639,1782580497794,-0.12,0.81999999999999995,0.67000000000000004
1640,1782580497860,-0.14000000000000001,0.58999999999999997,0.70999999999999996
1641,1782580497911,-0.19,0.51000000000000001,1.02
1642,1782580497960,-0.25,0.48999999999999999,1.04
1643,1782580498044,-0.26000000000000001,0.48999999999999999,1.04
1644,1782580498244,0.040000000000000001,0.37,1.1299999999999999
1645,1782580498310,0.040000000000000001,0.46000000000000002,1.0600000000000001
1646,1782580498377,0.040000000000000001,0.46999999999999997,0.90000000000000002
1647,1782580498427,0.050000000000000003,0.51000000000000001,0.90000000000000002
1648,1782580498477,0.059999999999999998,0.51000000000000001,0.85999999999999999
1649,1782580498494,0.13,0.79000000000000004,1.0600000000000001
1650,1782580498560,0.13,0.79000000000000004,1.0600000000000001
1651,1782580498643,0.13,0.79000000000000004,0.98999999999999999
1652,1782580498693,0.080000000000000002,0.75,0.89000000000000001
1653,1782580498743,-0.070000000000000007,0.75,0.85999999999999999
1654,1782580498777,-0.01,0.66000000000000003,0.93000000000000005
1655,1782580498827,-0.040000000000000001,0.68000000000000005,0.93000000000000005
1656,1782580498926,-0.089999999999999997,0.68000000000000005,0.96999999999999997
1657,1782580499010,-0.14000000000000001,0.70999999999999996,1.03
1658,1782580499043,-0.16,0.73999999999999999,0.95999999999999996
1659,1782580499093,-0.25,0.82999999999999996,0.84999999999999998
1660,1782580499127,-0.25,0.87,0.84999999999999998
1661,1782580499160,-0.14999999999999999,0.87,0.82999999999999996
1662,1782580499193,-0.14999999999999999,0.82999999999999996,0.82999999999999996
1663,1782580499243,-0.16,0.73999999999999999,0.90000000000000002
1664,1782580499426,-0.17000000000000001,0.73999999999999999,0.90000000000000002
1665,1782580499460,-0.17000000000000001,0.69999999999999996,0.95999999999999996
1666,1782580499476,-0.16,0.75,0.97999999999999998
1667,1782580499510,-0.080000000000000002,0.70999999999999996,0.64000000000000001
1668,1782580499609,-0.059999999999999998,0.69999999999999996,0.98999999999999999
1669,1782580499676,-0.050000000000000003,0.69999999999999996,0.98999999999999999
1670,1782580499726,-0.050000000000000003,0.69999999999999996,1.1000000000000001
1671,1782580499793,0.029999999999999999,0.5,1.24
1672,1782580499859,0.029999999999999999,1.05,1.1899999999999999
1673,1782580500026,-0.51000000000000001,0.71999999999999997,1.3100000000000001
1674,1782580500059,-0.51000000000000001,0.71999999999999997,1.53
1675,1782580500125,-0.38,0.81999999999999995,1.4299999999999999
1676,1782580500142,-0.34999999999999998,0.83999999999999997,1.4299999999999999
1677,1782580500159,-0.32000000000000001,0.84999999999999998,1.3100000000000001
1678,1782580500192,-0.29999999999999999,0.94999999999999996,1.1599999999999999
1679,1782580500226,-0.27000000000000002,0.94999999999999996,0.79000000000000004
1680,1782580500292,-0.14000000000000001,0.40999999999999998,1.0900000000000001
1681,1782580500459,-0.080000000000000002,0.38,0.96999999999999997
1682,1782580500475,-0.050000000000000003,0.29999999999999999,0.81000000000000005
1683,1782580500509,-0.040000000000000001,0.28999999999999998,0.78000000000000003
1684,1782580500542,-0.040000000000000001,0.20999999999999999,0.78000000000000003
1685,1782580500575,-0.02,0.20999999999999999,0.78000000000000003
1686,1782580500625,-0.20999999999999999,0.70999999999999996,1.3400000000000001
1687,1782580500675,-0.16,0.70999999999999996,1.3400000000000001
1688,1782580500692,-0.16,0.77000000000000002,1
1689,1782580500725,-0.19,0.90000000000000002,0.88
1690,1782580500758,-0.19,0.90000000000000002,0.88
1691,1782580500808,-0.16,0.90000000000000002,0.69999999999999996
1692,1782580500876,-0.23999999999999999,0.5,0.75
1693,1782580500942,-0.050000000000000003,0.5,0.75
1694,1782580500958,0.01,0.46000000000000002,0.89000000000000001
1695,1782580500975,0.01,0.39000000000000001,1.25
1696,1782580501058,0.01,0.39000000000000001,1.25
1697,1782580501092,0.01,0.39000000000000001,1.25
1698,1782580501108,-0.029999999999999999,0.48999999999999999,1.1799999999999999
1699,1782580501125,-0,0.60999999999999999,0.90000000000000002
1700,1782580501191,0.059999999999999998,0.57999999999999996,0.97999999999999998
1701,1782580501258,0.11,0.57999999999999996,1.3300000000000001
1702,1782580501308,0.11,0.57999999999999996,1.04
1703,1782580501358,0.059999999999999998,0.76000000000000001,1.04
1704,1782580501392,-0.29999999999999999,0.94999999999999996,1.27
1705,1782580501491,-0.29999999999999999,1.03,1.1200000000000001
1706,1782580501525,-0.28000000000000003,1.1200000000000001,1.1200000000000001
1707,1782580501591,-0.17000000000000001,1.1200000000000001,0.81999999999999995
1708,1782580501641,-0.14000000000000001,1.03,0.81999999999999995
1709,1782580501807,-0.050000000000000003,0.94999999999999996,0.78000000000000003
1710,1782580501824,-0.050000000000000003,0.89000000000000001,0.78000000000000003
1711,1782580501874,-0.050000000000000003,0.80000000000000004,0.78000000000000003
1712,1782580501924,-0.16,0.83999999999999997,0.73999999999999999
1713,1782580501957,-0.16,0.76000000000000001,0.72999999999999998
1714,1782580501974,-0.19,0.73999999999999999,0.63
1715,1782580502057,-0.20000000000000001,0.59999999999999998,0.63
1716,1782580502090,-0.23999999999999999,0.47999999999999998,0.70999999999999996
1717,1782580502107,-0.26000000000000001,0.37,0.70999999999999996
1718,1782580502257,0.070000000000000007,0.45000000000000001,0.80000000000000004
1719,1782580502274,0.070000000000000007,0.46000000000000002,0.80000000000000004
1720,1782580502357,0.050000000000000003,0.48999999999999999,0.84999999999999998
1721,1782580502490,-0.26000000000000001,0.68999999999999995,1.28
1722,1782580502524,-0.20999999999999999,0.78000000000000003,1.28
1723,1782580502574,-0.20000000000000001,0.85999999999999999,1.1899999999999999
1724,1782580502624,-0.14000000000000001,0.88,0.83999999999999997
1725,1782580502740,0.01,0.93000000000000005,0.97999999999999998
1726,1782580502773,0.01,0.94999999999999996,0.73999999999999999
1727,1782580502823,-0.029999999999999999,0.94999999999999996,0.71999999999999997
1728,1782580502890,-0.029999999999999999,0.94999999999999996,0.71999999999999997
1729,1782580502940,-0.059999999999999998,0.87,0.71999999999999997
1730,1782580503007,-0.059999999999999998,0.77000000000000002,1.22
1731,1782580503039,-0.22,0.77000000000000002,1.04
1732,1782580503106,-0.22,0.76000000000000001,0.97999999999999998
1733,1782580503157,-0.22,0.73999999999999999,0.97999999999999998
1734,1782580503223,-0.22,0.73999999999999999,0.87
1735,1782580503256,-0.20000000000000001,0.76000000000000001,0.83999999999999997
1736,1782580503339,-0.28000000000000003,0.64000000000000001,1.27
1737,1782580503423,-0.38,0.65000000000000002,1.27
1738,1782580503457,-0.42999999999999999,0.81999999999999995,1.02
1739,1782580503606,0.029999999999999999,0.39000000000000001,1.0900000000000001
1740,1782580503756,0.070000000000000007,0.45000000000000001,0.91000000000000003
1741,1782580503839,0.070000000000000007,0.84999999999999998,0.98999999999999999
1742,1782580503906,0.13,0.88,0.91000000000000003
1743,1782580503956,0.14000000000000001,0.88,0.82999999999999996
1744,1782580503989,0.17999999999999999,0.88,0.91000000000000003
1745,1782580504005,0.14000000000000001,0.88,0.82999999999999996
1746,1782580504039,0.14000000000000001,0.77000000000000002,0.82999999999999996
1747,1782580504106,0.14999999999999999,0.79000000000000004,0.87
1748,1782580504172,0.17999999999999999,0.75,0.58999999999999997
1749,1782580504289,0.20999999999999999,0.72999999999999998,0.90000000000000002
1750,1782580504322,0.040000000000000001,0.76000000000000001,1.1200000000000001
1751,1782580504356,0.040000000000000001,0.81999999999999995,1.1000000000000001
1752,1782580504405,-0.01,0.81999999999999995,1.05
1753,1782580504472,-0.059999999999999998,0.81999999999999995,0.93999999999999995
1754,1782580504605,-0.02,0.72999999999999998,1.1599999999999999
1755,1782580504672,-0.080000000000000002,0.81999999999999995,1.1599999999999999
1756,1782580504755,-0.13,0.87,1.0700000000000001
1757,1782580504823,-0.12,0.79000000000000004,1.03
1758,1782580504888,-0.14000000000000001,0.80000000000000004,0.81000000000000005
1759,1782580504955,-0.20999999999999999,0.84999999999999998,0.70999999999999996
1760,1782580505005,-0.20999999999999999,0.85999999999999999,0.70999999999999996
1761,1782580505022,-0.20999999999999999,0.85999999999999999,0.70999999999999996
1762,1782580505071,-0.01,0.85999999999999999,0.83999999999999997
1763,1782580505138,-0.080000000000000002,0.82999999999999996,0.83999999999999997
1764,1782580505188,-0.080000000000000002,0.79000000000000004,0.83999999999999997
1765,1782580505238,-0.080000000000000002,0.78000000000000003,1.01
1766,1782580505338,-0.080000000000000002,0.78000000000000003,1.01
1767,1782580505371,0.059999999999999998,0.68000000000000005,1.03
1768,1782580505438,0.059999999999999998,0.68999999999999995,1.03
1769,1782580505505,0.01,0.72999999999999998,0.91000000000000003
1770,1782580505571,0.01,0.73999999999999999,0.72999999999999998
1771,1782580505688,-0.12,0.84999999999999998,0.83999999999999997
1772,1782580505737,-0.080000000000000002,0.73999999999999999,0.93999999999999995
1773,1782580505787,-0.080000000000000002,0.69999999999999996,0.95999999999999996
1774,1782580505871,-0.059999999999999998,0.69999999999999996,1.1000000000000001
1775,1782580505921,-0.11,0.71999999999999997,1.01
1776,1782580505971,-0.11,0.67000000000000004,1.23
1777,1782580506020,-0.14999999999999999,0.60999999999999999,1.24
1778,1782580506070,-0.17999999999999999,0.60999999999999999,1.24
1779,1782580506120,-0.25,0.60999999999999999,1.24
1780,1782580506187,-0.31,0.40000000000000002,1.0800000000000001
1781,1782580506270,-0.31,0.40000000000000002,1.05
1782,1782580506320,-0.32000000000000001,0.39000000000000001,1
1783,1782580506387,-0.31,0.34000000000000002,0.95999999999999996
1784,1782580506454,0.059999999999999998,0.46999999999999997,1.24
1785,1782580506537,-0.040000000000000001,0.5,1.21
1786,1782580506571,-0.089999999999999997,0.65000000000000002,1
1787,1782580506637,-0.10000000000000001,0.66000000000000003,0.90000000000000002
1788,1782580506704,-0.089999999999999997,0.78000000000000003,0.76000000000000001
1789,1782580506770,-0.089999999999999997,0.72999999999999998,0.56999999999999995
1790,1782580506803,-0.10000000000000001,0.71999999999999997,0.76000000000000001
1791,1782580506870,-0.13,0.69999999999999996,0.76000000000000001
1792,1782580506937,-0.13,0.65000000000000002,1.01
1793,1782580507087,-0.20000000000000001,0.39000000000000001,1.5600000000000001
1794,1782580507120,-0.059999999999999998,0.39000000000000001,1.53
1795,1782580507170,-0.5,0.77000000000000002,1.24
1796,1782580507220,-0.5,0.76000000000000001,1.55
1797,1782580507253,-0.5,0.76000000000000001,1.73
1798,1782580507286,-0.41999999999999998,0.76000000000000001,1.73
1799,1782580507386,-0.40000000000000002,0.79000000000000004,1.73
1800,1782580507437,-0.38,0.94999999999999996,0.59999999999999998
1801,1782580507503,-0.28999999999999998,0.79000000000000004,0.67000000000000004
1802,1782580507619,-0.14000000000000001,0.65000000000000002,0.97999999999999998
1803,1782580507652,-0.029999999999999999,0.46999999999999997,0.97999999999999998
1804,1782580507752,-0.050000000000000003,0.73999999999999999,1.01
1805,1782580507769,-0.14999999999999999,0.73999999999999999,1.3600000000000001
1806,1782580507836,-0.16,0.73999999999999999,1.3600000000000001
1807,1782580507869,-0.16,0.75,1.3600000000000001
1808,1782580507903,-0.23000000000000001,0.75,0.93999999999999995
1809,1782580507952,-0.23000000000000001,0.75,0.93999999999999995
1810,1782580507969,-0.20000000000000001,0.72999999999999998,0.88
1811,1782580508002,-0.20000000000000001,0.72999999999999998,0.93999999999999995
1812,1782580508135,0.02,0.60999999999999999,0.92000000000000004
1813,1782580508169,-0.040000000000000001,0.60999999999999999,0.98999999999999999
1814,1782580508185,-0.050000000000000003,0.68000000000000005,1.03
1815,1782580508202,-0.080000000000000002,0.68999999999999995,1.0600000000000001
1816,1782580508236,-0.16,0.68999999999999995,1.0600000000000001
1817,1782580508285,-0.19,0.81999999999999995,1.0600000000000001
1818,1782580508335,-0.28000000000000003,0.93999999999999995,1.22
1819,1782580508502,-0.32000000000000001,1.03,1.1899999999999999
1820,1782580508535,-0.28000000000000003,1.03,1.1899999999999999
1821,1782580508602,-0.28000000000000003,1.03,0.94999999999999996
1822,1782580508685,-0.19,0.81000000000000005,1.0900000000000001
1823,1782580508718,-0.19,0.77000000000000002,1.0900000000000001
1824,1782580508818,-0.14000000000000001,-0.080000000000000002,0.82999999999999996
1825,1782580508852,-0.14000000000000001,-0.19,0.88
1826,1782580508885,-0.14000000000000001,-0.35999999999999999,1.0900000000000001
1827,1782580508901,-0.14000000000000001,-0.35999999999999999,1.0900000000000001
1828,1782580508968,-0.14000000000000001,-0.39000000000000001,1.0900000000000001
1829,1782580509068,-0.14999999999999999,-0.53000000000000003,1.0900000000000001
1830,1782580509134,-0.10000000000000001,-0.56000000000000005,1.0900000000000001
1831,1782580509185,-0.070000000000000007,-0.56999999999999995,1.1499999999999999
1832,1782580509268,-0.050000000000000003,-0.56999999999999995,1.0800000000000001
1833,1782580509335,0.14999999999999999,-0.83999999999999997,0.93000000000000005
1834,1782580509401,0.11,-0.75,0.80000000000000004
1835,1782580509451,0.040000000000000001,-0.75,0.79000000000000004
1836,1782580509534,0.040000000000000001,-0.75,0.79000000000000004
1837,1782580509568,-0.01,-0.65000000000000002,1.1599999999999999
1838,1782580509635,-0.01,-0.62,1.01
1839,1782580509718,-0.01,-0.59999999999999998,0.93000000000000005
1840,1782580509801,0.26000000000000001,-0.87,1.1200000000000001
1841,1782580509817,0.17999999999999999,-0.72999999999999998,1.01
1842,1782580509851,0.22,-0.71999999999999997,0.63
1843,1782580509917,0.17999999999999999,-0.69999999999999996,0.92000000000000004
1844,1782580509951,0.17999999999999999,-0.69999999999999996,0.65000000000000002
1845,1782580510000,0.17999999999999999,-0.69999999999999996,0.92000000000000004
1846,1782580510101,0.28000000000000003,-0.68000000000000005,0.75
1847,1782580510150,0.28000000000000003,-0.58999999999999997,0.81000000000000005
1848,1782580510167,0.37,-0.76000000000000001,0.81999999999999995
1849,1782580510201,0.37,-0.65000000000000002,0.81000000000000005
1850,1782580510234,0.37,-0.54000000000000004,0.81000000000000005
1851,1782580510250,0.37,-0.65000000000000002,0.81000000000000005
1852,1782580510301,0.37,-0.76000000000000001,0.81999999999999995
1853,1782580510350,0.23000000000000001,-0.82999999999999996,0.87
1854,1782580510467,0.40999999999999998,-1.0900000000000001,1.3300000000000001
1855,1782580510600,0.40999999999999998,-1.0600000000000001,1.3300000000000001
1856,1782580510717,0.31,-0.75,0.90000000000000002
1857,1782580510766,0.26000000000000001,-0.78000000000000003,0.77000000000000002
1858,1782580510784,0.26000000000000001,-0.72999999999999998,0.77000000000000002
1859,1782580510817,0.32000000000000001,-0.72999999999999998,0.77000000000000002
1860,1782580510833,0.32000000000000001,-0.72999999999999998,0.77000000000000002
1861,1782580510983,0.25,-0.64000000000000001,0.55000000000000004
1862,1782580511117,0.32000000000000001,-0.65000000000000002,0.83999999999999997
1863,1782580511183,0.31,-0.73999999999999999,0.83999999999999997
1864,1782580511250,0.31,-0.73999999999999999,1.1000000000000001
1865,1782580511366,0.31,-0.60999999999999999,0.83999999999999997
1866,1782580511400,0.34000000000000002,-0.60999999999999999,0.83999999999999997
1867,1782580511433,0.34000000000000002,-1,1.29
1868,1782580511449,0.32000000000000001,-0.97999999999999998,1.1200000000000001
1869,1782580511466,0.32000000000000001,-0.85999999999999999,1.0900000000000001
1870,1782580511616,0.33000000000000002,-0.80000000000000004,0.90000000000000002
1871,1782580511649,0.33000000000000002,-0.80000000000000004,0.90000000000000002
1872,1782580511733,0.32000000000000001,-0.53000000000000003,0.94999999999999996
1873,1782580511832,0.32000000000000001,-0.41999999999999998,0.84999999999999998
1874,1782580511849,0.29999999999999999,-0.33000000000000002,0.83999999999999997
1875,1782580511866,0.26000000000000001,-0.28999999999999998,0.80000000000000004
1876,1782580511883,0.25,-0.19,0.80000000000000004
1877,1782580511916,0.25,-0.13,0.80000000000000004
1878,1782580511949,0.13,-0.050000000000000003,0.88
1879,1782580512066,0.12,-0.089999999999999997,0.88
1880,1782580512199,0.11,-0.040000000000000001,0.97999999999999998
1881,1782580512233,0.11,-0.050000000000000003,0.97999999999999998
1882,1782580512282,0.080000000000000002,-0.050000000000000003,1
1883,1782580512349,0.070000000000000007,-0.059999999999999998,0.97999999999999998
1884,1782580512432,0.080000000000000002,-0.23000000000000001,1.1699999999999999
1885,1782580512482,0.10000000000000001,-0.23000000000000001,1.1699999999999999
1886,1782580512499,0.14000000000000001,-0.23000000000000001,0.97999999999999998
1887,1782580512515,0.14000000000000001,-0.22,0.95999999999999996
1888,1782580512565,0.14000000000000001,-0.22,0.94999999999999996
1889,1782580512615,0.14000000000000001,-0.19,0.93999999999999995
1890,1782580512682,0.16,-0.19,0.92000000000000004
1891,1782580512715,0.16,-0.22,0.88
1892,1782580512765,0.16,-0.23000000000000001,0.88
1893,1782580512832,0.14000000000000001,-0.33000000000000002,1.02
1894,1782580512898,0.14000000000000001,-0.28999999999999998,1.02
1895,1782580512931,0.14000000000000001,-0.20000000000000001,1.02
1896,1782580512982,0.14000000000000001,-0.20000000000000001,0.97999999999999998
1897,1782580513115,0.16,-0.22,1.1200000000000001
1898,1782580513264,0.17999999999999999,-0.17000000000000001,1.02
1899,1782580513281,0.14000000000000001,-0.059999999999999998,0.97999999999999998
1900,1782580513331,0.14999999999999999,-0.059999999999999998,0.96999999999999997
1901,1782580513381,0.14000000000000001,-0.070000000000000007,0.96999999999999997
1902,1782580513414,0.13,-0.080000000000000002,0.95999999999999996
1903,1782580513431,0.14000000000000001,-0.080000000000000002,0.95999999999999996
1904,1782580513448,0.14999999999999999,-0.089999999999999997,0.95999999999999996
1905,1782580513514,0.14000000000000001,-0.10000000000000001,0.97999999999999998
1906,1782580513631,0.10000000000000001,-0.059999999999999998,1.0600000000000001
1907,1782580513732,0.14000000000000001,-0.10000000000000001,1.0700000000000001
1908,1782580513830,0.12,0.059999999999999998,1.0800000000000001
1909,1782580513864,0.14000000000000001,0.080000000000000002,1.01
1910,1782580513930,0.12,0.13,1.01
