index,date,GYRO_X,GYRO_Y,GYRO_Z
0,1782565775677,0.28,-0.63,-0.07
1,1782565775710,0.28,-0.56,-0.07
2,1782565775727,0.28,-0.63,-0.07
3,1782565775760,0.28,-0.56,-0.07
4,1782565775777,0.28,-0.56,-0.07
5,1782565775827,0.28,-0.56,-0.07
6,1782565775860,0.28,-0.56,-0.07
7,1782565775910,0.21,-0.56,-0.07
8,1782565775927,0.21,-0.56,-0.07
9,1782565776027,0.21,-0.56,-0.07
10,1782565776044,0.21,-0.56,0
11,1782565776061,0.28,-0.56,0
12,1782565776144,0.28,-0.63,-0.07
13,1782565776194,0.28,-0.63,-0.07
14,1782565776210,0.28,-0.63,-0.07
15,1782565776243,0.42,-0.63,0
16,1782565776276,0.42,-0.63,0
17,1782565776376,0.42,-0.63,0
18,1782565776410,0.35,-0.63,0
19,1782565776460,0.21,-0.63,0
20,1782565776493,0.35,-0.63,0
21,1782565776510,0.35,-0.63,0
22,1782565776543,0.35,-0.63,0
23,1782565776576,0.35,-0.56,0
24,1782565776609,0.35,-0.56,0
25,1782565776648,0.35,-0.56,0
26,1782565776710,0.35,-0.49,0
27,1782565776726,0.35,-0.56,0
28,1782565776743,0.35,-0.63,0
29,1782565776793,0.35,-0.63,0
30,1782565776893,0.35,-0.63,0
31,1782565776993,0.28,-0.63,0
32,1782565777010,0.28,-0.63,-0.07
33,1782565777027,0.28,-0.56,-0.07
34,1782565777076,0.28,-0.56,-0.07
35,1782565777126,0.28,-0.56,-0.07
36,1782565777177,0.28,-0.56,-0.07
37,1782565777244,0.35,-0.56,-0.07
38,1782565777293,0.35,-0.56,-0.07
39,1782565777360,0.28,-0.56,-0.07
40,1782565777410,0.28,-0.63,-0.07
41,1782565777476,0.28,-0.56,-0.07
42,1782565777526,0.28,-0.56,-0.07
43,1782565777609,0.28,-0.49,-0.07
44,1782565777660,0.28,-0.49,-0.07
45,1782565777742,0.28,-0.56,-0.07
46,1782565777876,0.28,-0.56,0
47,1782565777926,0.28,-0.56,-0.07
48,1782565778009,0.21,-0.56,-0.07
49,1782565778059,0.28,-0.56,-0.07
50,1782565778109,0.28,-0.56,-0.07
51,1782565778159,0.28,-0.56,-0.07
52,1782565778259,0.28,-0.56,-0.07
53,1782565778292,0.28,-0.56,-0.07
54,1782565778359,0.28,-0.56,-0.07
55,1782565778409,0.35,-0.63,-0.07
56,1782565778442,0.35,-0.56,-0.07
57,1782565778492,0.35,-0.56,-0.07
58,1782565778526,0.28,-0.63,-0.07
59,1782565778576,0.28,-0.63,-0.07
60,1782565778625,0.35,-0.63,-0.07
61,1782565778675,0.35,-0.63,-0.07
62,1782565778708,0.28,-0.56,0
63,1782565778758,0.28,-0.56,0
64,1782565778792,0.28,-0.56,0
65,1782565778825,0.28,-0.56,-0.07
66,1782565778892,0.28,-0.56,-0.07
67,1782565778975,0.28,-0.56,-0.07
68,1782565778991,0.28,-0.56,-0.07
69,1782565779008,0.28,-0.56,-0.07
70,1782565779042,0.28,-0.56,-0.07
71,1782565779091,0.28,-0.56,-0.07
72,1782565779125,0.28,-0.56,-0.07
73,1782565779191,0.28,-0.56,-0.07
74,1782565779225,0.28,-0.56,-0.07
75,1782565779242,0.28,-0.56,0
76,1782565779259,0.28,-0.56,0
77,1782565779291,0.28,-0.56,0
78,1782565779308,0.28,-0.56,0
79,1782565779325,0.28,-0.56,0
80,1782565779425,0.28,-0.63,0
81,1782565779491,0.28,-0.56,0
82,1782565779558,0.28,-0.56,0
83,1782565779624,0.21,-0.56,-0.07
84,1782565779674,0.21,-0.56,-0.07
85,1782565779725,0.28,-0.56,-0.07
86,1782565779774,0.28,-0.56,-0.07
87,1782565779825,0.21,-0.56,-0.07
88,1782565779875,0.21,-0.56,-0.07
89,1782565779941,0.28,-0.56,0
90,1782565780007,0.28,-0.56,0
91,1782565780107,0.28,-0.63,0
92,1782565780240,0.28,-0.56,-0.07
93,1782565780274,0.28,-0.56,-0.07
94,1782565780324,0.28,-0.56,-0.07
95,1782565780407,0.28,-0.56,0
96,1782565780490,0.28,-0.56,-0.07
97,1782565780541,0.35,-0.56,-0.07
98,1782565780590,0.35,-0.56,-0.07
99,1782565780640,0.35,-0.56,-0.07
100,1782565780673,0.28,-0.63,-0.07
101,1782565780740,0.35,-0.63,-0.07
102,1782565780823,0.28,-0.56,-0.07
103,1782565780874,0.28,-0.63,-0.07
104,1782565780923,0.28,-0.56,-0.07
105,1782565780956,0.28,-0.56,-0.07
106,1782565780973,0.28,-0.56,-0.07
107,1782565781007,0.28,-0.56,-0.07
108,1782565781039,0.28,-0.49,-0.07
109,1782565781073,0.28,-0.56,-0.07
110,1782565781107,0.28,-0.56,-0.14
111,1782565781173,0.28,-0.56,-0.14
112,1782565781206,0.35,-0.56,-0.07
113,1782565781239,0.28,-0.56,-0.07
114,1782565781306,0.28,-0.56,-0.07
115,1782565781523,0.35,-0.63,0
116,1782565781556,0.35,-0.63,0
117,1782565781573,0.42,-0.56,-0.07
118,1782565781589,0.42,-0.56,-0.07
119,1782565781622,0.42,-0.56,-0.07
120,1782565781705,0.35,-0.56,-0.07
121,1782565781757,0.35,-0.56,-0.07
122,1782565781839,0.28,-0.56,-0.07
123,1782565781856,0.28,-0.56,-0.07
124,1782565781889,0.28,-0.56,-0.07
125,1782565781922,0.28,-0.56,0
126,1782565781972,0.35,-0.56,-0.07
127,1782565781989,0.35,-0.56,-0.07
128,1782565782055,0.35,-0.56,-0.07
129,1782565782089,0.35,-0.56,-0.07
130,1782565782155,0.28,-0.56,-0.07
131,1782565782189,0.28,-0.56,-0.07
132,1782565782239,0.28,-0.56,0
133,1782565782305,0.28,-0.63,0
134,1782565782355,0.28,-0.63,0
135,1782565782405,0.21,-0.56,-0.07
136,1782565782472,0.21,-0.56,-0.07
137,1782565782538,0.21,-0.63,-0.07
138,1782565782639,0.28,-0.56,-0.07
139,1782565782738,0.28,-0.56,-0.07
140,1782565782804,0.35,-0.56,0
141,1782565782855,0.28,-0.63,-0.07
142,1782565782921,0.28,-0.63,0
143,1782565782955,0.28,-0.63,0
144,1782565783021,0.28,-0.56,0
145,1782565783054,0.28,-0.56,0
146,1782565783138,0.28,-0.56,0
147,1782565783188,0.28,-0.56,-0.07
148,1782565783238,0.28,-0.56,-0.07
149,1782565783354,0.28,-0.56,-0.07
150,1782565783421,0.28,-0.56,-0.07
151,1782565783438,0.35,-0.56,-0.07
152,1782565783505,0.28,-0.56,-0.07
153,1782565783604,0.35,-0.56,-0.07
154,1782565783671,0.28,-0.56,0
155,1782565783837,0.28,-0.56,0
156,1782565783888,0.35,-0.56,0
157,1782565783937,0.35,-0.63,0
158,1782565783987,0.35,-0.63,0
159,1782565784021,0.28,-0.63,0
160,1782565784121,0.28,-0.56,-0.07
161,1782565784187,0.28,-0.63,-0.07
162,1782565784220,0.35,-0.63,-0.07
163,1782565784287,0.35,-0.63,-0.07
164,1782565784320,0.35,-0.56,-0.07
165,1782565784353,0.21,-0.49,-0.07
166,1782565784421,0.21,-0.49,-0.07
167,1782565784453,0.21,-0.49,-0.07
168,1782565784470,0.21,-0.49,0
169,1782565784487,0.21,-0.56,0
170,1782565784520,0.21,-0.56,0
171,1782565784553,0.21,-0.56,0
172,1782565784604,0.28,-0.63,-0.07
173,1782565784638,0.28,-0.56,-0.07
174,1782565784687,0.35,-0.56,-0.07
175,1782565784704,0.35,-0.56,-0.07
176,1782565784736,0.35,-0.56,-0.07
177,1782565784803,0.28,-0.56,-0.07
178,1782565784836,0.28,-0.56,-0.07
179,1782565784920,0.28,-0.56,0
180,1782565785003,0.35,-0.56,-0.07
181,1782565785053,0.35,-0.56,-0.07
182,1782565785103,0.35,-0.56,-0.07
183,1782565785154,0.28,-0.56,-0.07
184,1782565785187,0.28,-0.56,-0.07
185,1782565785386,0.35,-0.56,0
186,1782565785436,0.28,-0.56,-0.07
187,1782565785486,0.28,-0.63,-0.07
188,1782565785552,0.28,-0.56,-0.07
189,1782565785603,0.28,-0.56,-0.07
190,1782565785653,0.28,-0.63,-0.07
191,1782565785703,0.28,-0.63,-0.07
192,1782565785803,0.35,-0.49,-0.07
193,1782565785919,0.28,-0.56,0
194,1782565785986,0.28,-0.63,0
195,1782565786037,0.28,-0.63,0
196,1782565786085,0.28,-0.63,-0.07
197,1782565786135,0.28,-0.56,-0.07
198,1782565786253,0.28,-0.56,-0.07
199,1782565786320,0.28,-0.56,0
200,1782565786386,0.28,-0.56,0
201,1782565786418,0.28,-0.63,0
202,1782565786519,0.35,-0.63,0
203,1782565786669,0.28,-0.63,0
204,1782565786718,0.28,-0.63,0
205,1782565786752,0.28,-0.63,-0.07
206,1782565786819,0.28,-0.63,-0.07
207,1782565786851,0.28,-0.63,-0.07
208,1782565786902,0.28,-0.56,-0.07
209,1782565786918,0.28,-0.56,-0.07
210,1782565786952,0.28,-0.49,-0.07
211,1782565786968,0.28,-0.56,-0.07
212,1782565786986,0.28,-0.56,-0.07
213,1782565787069,0.28,-0.56,-0.07
214,1782565787118,0.28,-0.56,-0.07
215,1782565787135,0.35,-0.56,-0.07
216,1782565787168,0.35,-0.49,-0.07
217,1782565787185,0.35,-0.49,-0.07
218,1782565787201,0.35,-0.49,-0.07
219,1782565787268,0.28,-0.56,-0.07
220,1782565787334,0.35,-0.56,-0.07
221,1782565787401,0.28,-0.56,0
222,1782565787434,0.28,-0.56,0
223,1782565787468,0.28,-0.56,0
224,1782565787485,0.28,-0.56,-0.07
225,1782565787501,0.28,-0.56,-0.07
226,1782565787618,0.35,-0.56,-0.07
227,1782565787667,0.35,-0.56,-0.07
228,1782565787701,0.35,-0.56,-0.07
229,1782565787718,0.28,-0.56,-0.07
230,1782565787751,0.28,-0.56,0
231,1782565787784,0.28,-0.56,0
232,1782565787817,0.28,-0.56,0
233,1782565787851,0.28,-0.56,0
234,1782565787917,0.35,-0.56,-0.07
235,1782565788017,0.35,-0.56,-0.07
236,1782565788084,0.35,-0.56,-0.07
237,1782565788117,0.35,-0.56,-0.07
238,1782565788134,0.35,-0.56,-0.07
239,1782565788267,0.35,-0.49,-0.07
240,1782565788317,0.35,-0.49,-0.07
241,1782565788335,0.35,-0.56,-0.07
242,1782565788367,0.35,-0.56,0
243,1782565788384,0.28,-0.56,0
244,1782565788400,0.28,-0.56,0
245,1782565788434,0.28,-0.49,0
246,1782565788484,0.28,-0.56,0
247,1782565788550,0.28,-0.49,-0.07
248,1782565788600,0.28,-0.56,0
249,1782565788634,0.28,-0.56,0
250,1782565788700,0.28,-0.56,0
251,1782565788784,0.28,-0.56,0
252,1782565788817,0.28,-0.56,0
253,1782565788884,0.21,-0.56,0
254,1782565788917,0.21,-0.56,0
255,1782565788933,0.21,-0.49,0
256,1782565788967,0.21,-0.49,0
257,1782565788983,0.21,-0.56,-0.07
258,1782565789033,0.28,-0.56,-0.07
259,1782565789184,0.21,-0.56,-0.07
260,1782565789217,0.28,-0.56,-0.07
261,1782565789250,0.21,-0.49,-0.07
262,1782565789266,0.28,-0.49,-0.07
263,1782565789283,0.28,-0.49,-0.07
264,1782565789332,0.28,-0.56,0
265,1782565789350,0.35,-0.49,-0.07
266,1782565789383,0.35,-0.63,-0.07
267,1782565789399,0.35,-0.49,0
268,1782565789466,0.28,-0.49,0
269,1782565789516,0.28,-0.49,-0.07
270,1782565789583,0.28,-0.49,-0.07
271,1782565789633,0.28,-0.49,-0.07
272,1782565789633,0.28,-0.56,-0.07
273,1782565789666,0.28,-0.56,0
274,1782565789699,0.28,-0.56,0
275,1782565789765,0.28,-0.56,-0.07
276,1782565789799,0.28,-0.56,-0.07
277,1782565789899,0.28,-0.49,-0.07
278,1782565789933,0.28,-0.49,0
279,1782565789950,0.28,-0.49,0
280,1782565789966,0.21,-0.56,-0.07
281,1782565790016,0.28,-0.49,-0.07
282,1782565790065,0.28,-0.56,-0.07
283,1782565790182,0.28,-0.56,0
284,1782565790216,0.28,-0.56,0
285,1782565790249,0.28,-0.56,-0.07
286,1782565790265,0.28,-0.56,-0.07
287,1782565790299,0.28,-0.56,0
288,1782565790349,0.21,-0.56,-0.07
289,1782565790415,0.21,-0.56,-0.07
290,1782565790448,0.21,-0.56,0
291,1782565790482,0.28,-0.56,0
292,1782565790515,0.28,-0.56,0
293,1782565790532,0.28,-0.56,0
294,1782565790565,0.28,-0.56,-0.07
295,1782565790615,0.28,-0.56,-0.07
296,1782565790665,0.28,-0.56,-0.07
297,1782565790748,0.35,-0.56,0
298,1782565790799,0.35,-0.49,0
299,1782565790832,0.28,-0.56,-0.07
300,1782565790865,0.28,-0.49,-0.07
301,1782565790882,0.35,-0.56,0
302,1782565790898,0.35,-0.56,0
303,1782565790931,0.35,-0.56,0
304,1782565790998,0.35,-0.56,0
305,1782565791031,0.21,-0.56,-0.07
306,1782565791081,0.21,-0.56,-0.07
307,1782565791098,0.28,-0.63,-0.07
308,1782565791131,0.28,-0.56,-0.07
309,1782565791165,0.28,-0.56,-0.07
310,1782565791182,0.28,-0.56,-0.07
311,1782565791215,0.28,-0.56,-0.07
312,1782565791281,0.35,-0.56,-0.07
313,1782565791398,0.21,-0.56,-0.07
314,1782565791481,0.21,-0.56,-0.07
315,1782565791514,0.21,-0.56,-0.07
316,1782565791531,0.21,-0.63,-0.07
317,1782565791564,0.21,-0.56,-0.07
318,1782565791615,0.28,-0.49,0
319,1782565791631,0.28,-0.56,0
320,1782565791647,0.28,-0.56,0
321,1782565791681,0.28,-0.56,0
322,1782565791697,0.28,-0.56,0
323,1782565791748,0.28,-0.56,0
324,1782565791798,0.21,-0.56,-0.07
325,1782565791864,0.21,-0.56,-0.07
326,1782565791897,0.21,-0.56,-0.07
327,1782565791981,0.28,-0.56,-0.07
328,1782565792097,0.28,-0.63,-0.07
329,1782565792180,0.28,-0.56,-0.07
330,1782565792213,0.28,-0.56,0
331,1782565792280,0.21,-0.63,0
332,1782565792364,0.28,-0.63,0
333,1782565792430,0.28,-0.63,-0.07
334,1782565792481,0.28,-0.56,0
335,1782565792514,0.35,-0.56,0
336,1782565792614,0.35,-0.56,0
337,1782565792747,0.28,-0.56,0
338,1782565792780,0.35,-0.56,-0.07
339,1782565792797,0.35,-0.56,-0.07
340,1782565792813,0.35,-0.56,-0.07
341,1782565792846,0.35,-0.56,-0.07
342,1782565792930,0.35,-0.56,-0.07
343,1782565792979,0.28,-0.56,0
344,1782565793030,0.28,-0.56,0
345,1782565793064,0.21,-0.56,-0.07
346,1782565793096,0.35,-0.56,-0.07
347,1782565793146,0.35,-0.56,-0.07
348,1782565793196,0.35,-0.56,0
349,1782565793263,0.28,-0.56,0
350,1782565793329,0.21,-0.56,-0.07
351,1782565793363,0.21,-0.56,-0.07
352,1782565793396,0.21,-0.56,-0.07
353,1782565793462,0.21,-0.56,-0.07
354,1782565793513,0.21,-0.56,-0.07
355,1782565793579,0.21,-0.56,0
356,1782565793595,0.28,-0.56,-0.07
357,1782565793680,0.28,-0.63,-0.07
358,1782565793746,0.28,-0.56,0
359,1782565793779,0.28,-0.56,0
360,1782565793846,0.28,-0.56,0
361,1782565793862,0.28,-0.56,-0.07
362,1782565793879,0.35,-0.56,-0.07
363,1782565793913,0.35,-0.56,-0.07
364,1782565793962,0.35,-0.56,0
365,1782565794012,0.35,-0.56,0
366,1782565794079,0.28,-0.56,0
367,1782565794162,0.28,-0.56,0
368,1782565794212,0.28,-0.56,0
369,1782565794245,0.28,-0.56,0
370,1782565794312,0.28,-0.56,-0.07
371,1782565794362,0.28,-0.56,-0.07
372,1782565794412,0.28,-0.56,-0.07
373,1782565794462,0.28,-0.63,-0.07
374,1782565794529,0.21,-0.56,-0.07
375,1782565794595,0.21,-0.56,-0.07
376,1782565794645,0.28,-0.56,0
377,1782565794695,0.21,-0.56,0
378,1782565794761,0.35,-0.56,0
379,1782565794828,0.28,-0.56,0
380,1782565794878,0.28,-0.56,0
381,1782565794928,0.28,-0.56,0
382,1782565794978,0.28,-0.56,0
383,1782565795045,0.28,-0.56,0
384,1782565795112,0.28,-0.56,0
385,1782565795211,0.28,-0.56,0
386,1782565795278,0.28,-0.56,0
387,1782565795328,0.35,-0.56,0
388,1782565795345,0.28,-0.63,0
389,1782565795378,0.28,-0.56,0
390,1782565795445,0.28,-0.56,0
391,1782565795495,0.28,-0.56,0
392,1782565795544,0.28,-0.56,-0.07
393,1782565795595,0.28,-0.56,-0.07
394,1782565795628,0.28,-0.56,-0.07
395,1782565795677,0.35,-0.56,-0.07
396,1782565795727,0.35,-0.56,0
397,1782565795777,0.35,-0.49,0
398,1782565795828,0.35,-0.56,0
399,1782565795928,0.21,-0.56,-0.07
400,1782565795994,0.28,-0.56,-0.07
401,1782565796027,0.28,-0.56,-0.07
402,1782565796094,0.28,-0.56,-0.07
403,1782565796144,0.28,-0.56,-0.07
404,1782565796210,0.35,-0.56,-0.07
405,1782565796227,0.35,-0.56,-0.07
406,1782565796293,0.35,-0.56,-0.07
407,1782565796343,0.28,-0.56,-0.07
408,1782565796393,0.28,-0.56,-0.07
409,1782565796443,0.28,-0.56,0
410,1782565796493,0.35,-0.56,-0.07
411,1782565796577,0.35,-0.56,-0.07
412,1782565796643,0.28,-0.56,-0.07
413,1782565796677,0.28,-0.56,0
414,1782565796727,0.28,-0.56,0
415,1782565796793,0.28,-0.56,0
416,1782565796810,0.35,-0.56,-0.07
417,1782565796860,0.35,-0.56,-0.07
418,1782565796977,0.28,-0.56,-0.07
419,1782565797060,0.28,-0.56,-0.07
420,1782565797227,0.28,-0.56,-0.07
421,1782565797277,0.28,-0.56,-0.07
422,1782565797359,0.28,-0.56,-0.07
423,1782565797409,0.28,-0.56,-0.07
424,1782565797476,0.28,-0.56,-0.07
425,1782565797642,0.28,-0.56,-0.07
426,1782565797809,0.28,-0.63,-0.07
427,1782565797876,0.35,-0.63,-0.07
428,1782565797925,0.35,-0.63,-0.07
429,1782565797959,0.35,-0.63,-0.07
430,1782565798042,0.35,-0.63,0
431,1782565798093,0.35,-0.56,0
432,1782565798142,0.35,-0.56,0
433,1782565798192,0.35,-0.56,0
434,1782565798225,0.35,-0.56,0
435,1782565798292,0.35,-0.56,0
436,1782565798325,0.28,-0.56,0
437,1782565798375,0.28,-0.56,0
438,1782565798443,0.28,-0.56,0
439,1782565798508,0.28,-0.56,-0.07
440,1782565798542,0.35,-0.56,-0.07
441,1782565798659,0.35,-0.56,-0.07
442,1782565798775,0.21,-0.56,-0.07
443,1782565798841,0.21,-0.56,-0.07
444,1782565798908,0.21,-0.56,-0.07
445,1782565798942,0.21,-0.56,-0.07
446,1782565798991,0.21,-0.56,-0.07
447,1782565799059,0.21,-0.56,0
448,1782565799125,0.28,-0.56,-0.07
449,1782565799174,0.28,-0.56,-0.07
450,1782565799226,0.28,-0.56,-0.07
451,1782565799258,0.28,-0.56,-0.07
452,1782565799291,0.21,-0.56,-0.07
453,1782565799308,0.21,-0.56,0
454,1782565799324,0.21,-0.56,0
455,1782565799358,0.21,-0.56,0
456,1782565799474,0.21,-0.63,-0.07
457,1782565799524,0.21,-0.63,-0.07
458,1782565799558,0.21,-0.56,-0.07
459,1782565799574,0.28,-0.56,-0.07
460,1782565799590,0.28,-0.56,-0.07
461,1782565799624,0.28,-0.56,0
462,1782565799674,0.35,-0.49,0
463,1782565799741,0.28,-0.56,-0.07
464,1782565799808,0.28,-0.56,-0.07
465,1782565799840,0.28,-0.56,-0.07
466,1782565799857,0.28,-0.56,-0.07
467,1782565799874,0.28,-0.56,-0.07
468,1782565799907,0.28,-0.56,-0.07
469,1782565799957,0.28,-0.56,-0.07
470,1782565800007,0.28,-0.56,-0.07
471,1782565800024,0.28,-0.56,-0.07
472,1782565800040,0.28,-0.56,-0.07
473,1782565800073,0.28,-0.56,-0.07
474,1782565800107,0.28,-0.56,0
475,1782565800141,0.28,-0.56,0
476,1782565800190,0.28,-0.63,0
477,1782565800240,0.28,-0.63,0
478,1782565800274,0.28,-0.56,-0.07
479,1782565800307,0.28,-0.63,-0.07
480,1782565800357,0.28,-0.63,-0.07
481,1782565800391,0.28,-0.63,-0.07
482,1782565800407,0.28,-0.56,-0.07
483,1782565800457,0.28,-0.56,-0.07
484,1782565800506,0.28,-0.56,0
485,1782565800623,0.28,-0.56,-0.07
486,1782565800690,0.21,-0.56,-0.07
487,1782565800706,0.21,-0.56,-0.07
488,1782565800724,0.21,-0.56,-0.07
489,1782565800757,0.28,-0.56,0
490,1782565800789,0.28,-0.56,0
491,1782565800840,0.28,-0.56,-0.07
492,1782565800906,0.28,-0.56,-0.07
493,1782565800923,0.28,-0.63,-0.07
494,1782565800940,0.28,-0.56,-0.07
495,1782565800973,0.28,-0.56,-0.07
496,1782565801073,0.28,-0.56,0
497,1782565801106,0.28,-0.63,0
498,1782565801140,0.28,-0.63,0
499,1782565801206,0.28,-0.63,0
500,1782565801289,0.28,-0.56,-0.07
501,1782565801339,0.28,-0.56,-0.07
502,1782565801356,0.28,-0.56,-0.07
503,1782565801373,0.28,-0.56,-0.07
504,1782565801406,0.21,-0.63,-0.07
505,1782565801423,0.28,-0.63,-0.07
506,1782565801456,0.28,-0.63,0
507,1782565801489,0.28,-0.63,0
508,1782565801539,0.28,-0.63,0
509,1782565801606,0.28,-0.56,0
510,1782565801672,0.28,-0.56,-0.07
511,1782565801722,0.35,-0.56,-0.07
512,1782565801772,0.28,-0.56,-0.07
513,1782565801839,0.28,-0.56,-0.07
514,1782565801889,0.28,-0.56,-0.07
515,1782565801955,0.28,-0.56,-0.07
516,1782565801988,0.35,-0.56,-0.07
517,1782565802006,0.28,-0.56,-0.07
518,1782565802039,0.28,-0.56,-0.07
519,1782565802123,0.28,-0.56,-0.07
520,1782565802205,0.28,-0.49,-0.07
521,1782565802255,0.28,-0.49,-0.07
522,1782565802305,0.35,-0.56,-0.07
523,1782565802338,0.35,-0.56,-0.07
524,1782565802455,0.35,-0.56,-0.07
525,1782565802505,0.35,-0.56,0
526,1782565802571,0.42,-0.56,-0.07
527,1782565802671,0.42,-0.56,-0.14
528,1782565802705,0.42,-0.56,-0.14
529,1782565802755,0.42,-0.56,-0.07
530,1782565802805,0.35,-0.56,-0.07
531,1782565802838,0.28,-0.56,0
532,1782565802921,0.28,-0.56,0
533,1782565802955,0.28,-0.56,0
534,1782565803038,0.21,-0.56,0
535,1782565803105,0.21,-0.56,0
536,1782565803187,0.28,-0.56,0
537,1782565803204,0.28,-0.56,0
538,1782565803221,0.28,-0.56,0
539,1782565803254,0.28,-0.56,0
540,1782565803271,0.28,-0.56,-0.07
541,1782565803338,0.28,-0.56,-0.07
542,1782565803371,0.21,-0.56,-0.07
543,1782565803438,0.28,-0.56,-0.07
544,1782565803504,0.28,-0.56,-0.07
545,1782565803538,0.28,-0.56,-0.07
546,1782565803571,0.28,-0.56,-0.07
547,1782565803604,0.28,-0.56,-0.07
548,1782565803654,0.21,-0.56,-0.07
549,1782565803704,0.28,-0.56,0
550,1782565803754,0.21,-0.56,-0.07
551,1782565803770,0.21,-0.56,-0.07
552,1782565803804,0.21,-0.56,-0.07
553,1782565803854,0.28,-0.56,-0.14
554,1782565803921,0.28,-0.56,-0.14
555,1782565803987,0.28,-0.56,-0.14
556,1782565804054,0.28,-0.56,-0.07
557,1782565804086,0.28,-0.49,-0.07
558,1782565804154,0.28,-0.49,0
559,1782565804203,0.28,-0.49,0
560,1782565804287,0.28,-0.56,0
561,1782565804320,0.35,-0.56,-0.07
562,1782565804387,0.35,-0.56,-0.07
563,1782565804420,0.35,-0.56,-0.07
564,1782565804487,0.35,-0.56,0
565,1782565804536,0.35,-0.56,-0.07
566,1782565804571,0.28,-0.63,-0.07
567,1782565804620,0.28,-0.63,-0.07
568,1782565804670,0.21,-0.63,0
569,1782565804720,0.21,-0.63,0
570,1782565804786,0.21,-0.63,0
571,1782565804836,0.21,-0.63,0
572,1782565804869,0.14,-0.63,-0.07
573,1782565804937,0.14,-0.63,-0.07
574,1782565805003,0.21,-0.63,-0.07
575,1782565805053,0.21,-0.63,0
576,1782565805103,0.35,-0.56,0
577,1782565805169,0.28,-0.56,-0.07
578,1782565805219,0.28,-0.63,-0.07
579,1782565805269,0.21,-0.63,-0.07
580,1782565805420,0.28,-0.56,-0.07
581,1782565805452,0.28,-0.56,-0.07
582,1782565805503,0.35,-0.56,-0.07
583,1782565805569,0.28,-0.56,-0.07
584,1782565805652,0.28,-0.56,-0.07
585,1782565805736,0.35,-0.56,-0.07
586,1782565805770,0.35,-0.63,0
587,1782565805836,0.35,-0.63,0
588,1782565805869,0.35,-0.56,-0.07
589,1782565806003,0.28,-0.56,-0.07
590,1782565806069,0.35,-0.49,0.07
591,1782565806119,0.35,-0.56,0.07
592,1782565806169,0.42,-0.56,0.07
593,1782565806219,0.42,-0.56,0.07
594,1782565806286,0.42,-0.56,0
595,1782565806286,0.21,-0.63,-0.07
596,1782565806352,0.28,-0.63,-0.07
597,1782565806385,0.35,-0.63,-0.07
598,1782565806452,0.35,-0.7,-0.07
599,1782565806518,0.35,-0.63,-0.07
600,1782565806552,0.35,-0.63,0
601,1782565806618,0.35,-0.63,0
602,1782565806652,0.35,-0.56,0
603,1782565806751,0.35,-0.49,0
604,1782565806818,0.35,-0.49,0
605,1782565806852,0.35,-0.42,-0.07
606,1782565806885,0.35,-0.42,-0.07
607,1782565806918,0.28,-0.49,0
608,1782565807102,0.28,-0.49,0
609,1782565807118,0.28,-0.42,0
610,1782565807134,0.28,-0.42,0
611,1782565807169,0.28,-0.42,-0.07
612,1782565807185,0.28,-0.42,-0.07
613,1782565807201,0.35,-0.56,-0.07
614,1782565807268,0.35,-0.56,-0.07
615,1782565807334,0.35,-0.56,-0.07
616,1782565807417,0.28,-0.56,-0.07
617,1782565807452,0.28,-0.63,-0.07
618,1782565807519,0.35,-0.49,-0.07
619,1782565807567,0.28,-0.49,0
620,1782565807601,0.28,-0.49,0
621,1782565807651,0.28,-0.49,0
622,1782565807717,0.28,-0.49,0
623,1782565807750,0.28,-0.49,0
624,1782565807751,0.21,-0.56,-0.07
625,1782565807818,0.21,-0.56,-0.07
626,1782565807851,0.28,-0.49,0
627,1782565807900,0.28,-0.49,-0.07
628,1782565807950,0.28,-0.56,-0.07
629,1782565807984,0.28,-0.56,-0.07
630,1782565808017,0.28,-0.56,-0.07
631,1782565808050,0.28,-0.63,-0.07
632,1782565808101,0.28,-0.56,-0.07
633,1782565808134,0.28,-0.56,-0.07
634,1782565808167,0.28,-0.56,-0.07
635,1782565808184,0.28,-0.63,-0.07
636,1782565808200,0.28,-0.63,-0.07
637,1782565808233,0.28,-0.63,-0.07
638,1782565808300,0.28,-0.63,0
639,1782565808383,0.28,-0.56,-0.07
640,1782565808434,0.28,-0.56,-0.07
641,1782565808500,0.28,-0.56,-0.07
642,1782565808517,0.21,-0.63,-0.07
643,1782565808533,0.21,-0.63,-0.07
644,1782565808583,0.21,-0.56,-0.07
645,1782565808634,0.28,-0.56,-0.07
646,1782565808667,0.28,-0.56,-0.07
647,1782565808700,0.28,-0.56,-0.07
648,1782565808717,0.28,-0.56,-0.07
649,1782565808749,0.35,-0.56,-0.07
650,1782565808800,0.35,-0.49,-0.07
651,1782565808850,0.35,-0.49,0
652,1782565808900,0.35,-0.49,0
653,1782565808949,0.35,-0.56,0
654,1782565808999,0.35,-0.56,0
655,1782565809116,0.28,-0.63,0
656,1782565809216,0.28,-0.63,0
657,1782565809283,0.28,-0.63,-0.07
658,1782565809316,0.28,-0.49,-0.07
659,1782565809399,0.28,-0.49,-0.07
660,1782565809499,0.21,-0.56,-0.07
661,1782565809549,0.28,-0.63,0
662,1782565809566,0.28,-0.63,0
663,1782565809649,0.28,-0.49,-0.14
664,1782565809732,0.28,-0.49,-0.14
665,1782565809799,0.28,-0.49,-0.07
666,1782565809849,0.35,-0.49,-0.07
667,1782565809915,0.28,-0.49,-0.07
668,1782565809965,0.28,-0.49,-0.07
669,1782565810015,0.28,-0.56,-0.07
670,1782565810032,0.28,-0.49,0
671,1782565810049,0.35,-0.56,0
672,1782565810082,0.35,-0.56,-0.07
673,1782565810099,0.35,-0.56,-0.07
674,1782565810149,0.35,-0.56,-0.07
675,1782565810215,0.28,-0.56,0
676,1782565810315,0.28,-0.56,0
677,1782565810332,0.28,-0.56,0
678,1782565810348,0.28,-0.56,0
679,1782565810399,0.28,-0.56,0
680,1782565810565,0.21,-0.56,0.07
681,1782565810599,0.21,-0.56,0
682,1782565810615,0.21,-0.49,-0.07
683,1782565810632,0.35,-0.56,-0.07
684,1782565810665,0.35,-0.56,-0.07
685,1782565810715,0.35,-0.56,-0.07
686,1782565810781,0.42,-0.7,-0.07
687,1782565810798,0.42,-0.21,-0.07
688,1782565810831,0.42,-0.77,-0.07
689,1782565810931,0.21,-0.42,0
690,1782565810997,0.21,-0.63,-0.07
691,1782565811048,0.42,-0.56,-0.07
692,1782565811131,0.42,-0.56,-0.07
693,1782565811147,0.42,-0.56,-0.07
694,1782565811165,0.42,-0.56,-0.07
695,1782565811181,0.42,-0.56,-0.07
696,1782565811214,0.35,-0.56,-0.07
697,1782565811281,0.35,-0.56,-0.07
698,1782565811414,0.21,-0.56,0
699,1782565811481,0.14,-0.56,0
700,1782565811548,0.14,-0.56,0
701,1782565811614,0.21,-0.56,-0.07
702,1782565811681,0.28,-0.56,0
703,1782565811731,0.28,-0.49,-0.07
704,1782565811764,0.28,-0.49,-0.07
705,1782565811963,0.21,-0.63,-0.07
706,1782565812030,0.28,-0.56,0
707,1782565812080,0.21,-0.56,0
708,1782565812147,0.21,-0.56,0
709,1782565812197,0.21,-0.56,0
710,1782565812263,0.28,-0.56,0
711,1782565812314,0.21,-0.63,-0.07
712,1782565812347,0.21,-0.63,-0.07
713,1782565812414,0.28,-0.56,-0.07
714,1782565812446,0.35,-0.56,-0.07
715,1782565812514,0.35,-0.56,-0.07
716,1782565812563,0.28,-0.56,-0.07
717,1782565812646,0.35,-0.56,-0.07
718,1782565812730,0.35,-0.56,-0.07
719,1782565812797,0.35,-0.49,-0.07
720,1782565812930,0.28,-0.63,0
721,1782565812996,0.35,-0.63,-0.07
722,1782565813079,0.35,-0.56,-0.07
723,1782565813130,0.28,-0.56,0
724,1782565813196,0.28,-0.56,0
725,1782565813229,0.28,-0.63,0.07
726,1782565813296,0.28,-0.56,0.07
727,1782565813363,0.21,-0.56,0
728,1782565813396,0.21,-0.56,0.07
729,1782565813496,0.28,-0.56,-0.07
730,1782565813596,0.28,-0.56,-0.07
731,1782565813646,0.28,-0.56,-0.07
732,1782565813696,0.28,-0.56,-0.07
733,1782565813746,0.28,-0.63,0
734,1782565813795,0.35,-0.63,0
735,1782565813829,0.35,-0.63,0
736,1782565813846,0.35,-0.63,-0.07
737,1782565813878,0.35,-0.63,-0.07
738,1782565813912,0.35,-0.56,-0.07
739,1782565813945,0.28,-0.56,-0.07
740,1782565813979,0.28,-0.49,-0.07
741,1782565814029,0.21,-0.56,-0.21
742,1782565814079,0.21,-0.56,-0.14
743,1782565814096,0.21,-0.56,-0.14
744,1782565814162,0.28,-0.63,-0.14
745,1782565814262,0.28,-0.63,-0.07
746,1782565814296,0.28,-0.63,0
747,1782565814395,0.21,-0.56,-0.07
748,1782565814411,0.21,-0.63,0
749,1782565814428,0.35,-0.63,0.07
750,1782565814462,0.35,-0.63,0.07
751,1782565814478,0.35,-0.63,0.07
752,1782565814529,0.35,-0.63,0.07
753,1782565814561,0.35,-0.63,0.07
754,1782565814595,0.28,-0.56,0
755,1782565814628,0.28,-0.56,0
756,1782565814662,0.21,-0.56,-0.07
757,1782565814711,0.28,-0.56,-0.07
758,1782565814745,0.28,-0.56,-0.07
759,1782565814778,0.35,-0.56,-0.14
760,1782565814911,0.35,-0.56,0
761,1782565814945,0.35,-0.56,0
762,1782565815011,0.28,-0.56,-0.07
763,1782565815044,0.28,-0.56,-0.07
764,1782565815177,0.35,-0.49,-0.14
765,1782565815244,0.35,-0.42,-0.14
766,1782565815278,0.35,-0.42,-0.14
767,1782565815294,0.35,-0.42,-0.14
768,1782565815311,0.21,-0.42,-0.14
769,1782565815330,0.28,-0.42,-0.07
770,1782565815378,0.21,-0.49,0
771,1782565815477,0.28,-0.56,0
772,1782565815560,0.21,-0.56,0
773,1782565815627,0.28,-0.56,-0.07
774,1782565815661,0.28,-0.56,-0.07
775,1782565815678,0.28,-0.49,-0.07
776,1782565815711,0.28,-0.56,-0.14
777,1782565815728,0.28,-0.56,-0.07
778,1782565815794,0.28,-0.56,-0.07
779,1782565815927,0.28,-0.56,0
780,1782565815944,0.35,-0.56,0
781,1782565815961,0.35,-0.56,0
782,1782565815977,0.35,-0.56,0
783,1782565816043,0.35,-0.56,-0.07
784,1782565816127,0.28,-0.56,-0.07
785,1782565816177,0.28,-0.56,-0.07
786,1782565816194,0.28,-0.56,-0.07
787,1782565816227,0.28,-0.56,-0.07
788,1782565816243,0.28,-0.49,-0.07
789,1782565816277,0.28,-0.49,-0.07
790,1782565816343,0.28,-0.49,0
791,1782565816394,0.35,-0.56,-0.07
792,1782565816444,0.28,-0.56,-0.07
793,1782565816510,0.28,-0.63,-0.07
794,1782565816593,0.28,-0.63,-0.07
795,1782565816660,0.28,-0.56,0
796,1782565816693,0.28,-0.56,0
797,1782565816759,0.28,-0.56,0
798,1782565816826,0.28,-0.56,0
799,1782565816860,0.35,-0.49,0
800,1782565816926,0.35,-0.56,0
801,1782565816960,0.35,-0.56,0
802,1782565816993,0.35,-0.56,0
803,1782565817060,0.35,-0.56,-0.07
804,1782565817093,0.35,-0.56,-0.07
805,1782565817160,0.28,-0.49,-0.07
806,1782565817375,0.21,-0.63,0
807,1782565817426,0.21,-0.63,0
808,1782565817509,0.28,-0.56,0
809,1782565817575,0.28,-0.56,0
810,1782565817626,0.28,-0.56,0
811,1782565817676,0.28,-0.56,0
812,1782565817725,0.28,-0.56,0
813,1782565818010,0.21,-0.63,0
814,1782565818058,0.28,-0.63,0
815,1782565818159,0.28,-0.56,0
816,1782565818208,0.28,-0.56,0
817,1782565818258,0.28,-0.56,0
818,1782565818325,0.28,-0.56,-0.07
819,1782565818375,0.28,-0.56,0
820,1782565818441,0.28,-0.56,0
821,1782565818509,0.28,-0.56,0
822,1782565818558,0.28,-0.56,0
823,1782565818641,0.28,-0.63,0
824,1782565818676,0.28,-0.56,0
825,1782565818724,0.28,-0.56,0
826,1782565818775,0.28,-0.63,0
827,1782565818841,0.28,-0.63,0
828,1782565818875,0.28,-0.63,0
829,1782565818941,0.21,-0.63,0
830,1782565818957,0.28,-0.56,0
831,1782565818991,0.21,-0.49,-0.21
832,1782565819058,0.14,-0.49,-0.28
833,1782565819108,0.14,-0.49,-0.28
834,1782565819158,0.21,-0.56,-0.21
835,1782565819191,0.21,-0.56,-0.21
836,1782565819341,0.28,-0.49,0
837,1782565819391,0.21,-0.56,-0.07
838,1782565819441,0.21,-0.56,-0.07
839,1782565819491,0.28,-0.56,-0.07
840,1782565819507,0.28,-0.56,-0.14
841,1782565819524,0.28,-0.56,-0.14
842,1782565819591,0.07,-0.49,-0.07
843,1782565819640,0.07,-0.49,-0.07
844,1782565819674,0.14,-0.63,-0.14
845,1782565819707,0.35,-0.63,-0.14
846,1782565819724,0.42,-0.56,-0.14
847,1782565819758,0.42,-0.56,-0.21
848,1782565819824,0.35,-0.56,-0.21
849,1782565819857,0.14,-0.56,-0.14
850,1782565819907,0.35,-0.56,-0.14
851,1782565819941,0.35,-0.56,-0.07
852,1782565819974,0.35,-0.49,-0.07
853,1782565820007,0.35,-0.49,-0.07
854,1782565820090,0.21,-0.49,-0.07
855,1782565820106,0.14,-0.49,-0.07
856,1782565820140,0.21,-0.56,-0.14
857,1782565820191,0.21,-0.56,-0.14
858,1782565820207,0.21,-0.56,-0.14
859,1782565820224,0.21,-0.56,-0.14
860,1782565820257,0.21,-0.56,-0.14
861,1782565820290,0.21,-0.56,-0.14
862,1782565820306,0.28,-0.56,-0.14
863,1782565820390,0.28,-0.56,-0.14
864,1782565820423,0.07,-0.84,-0.14
865,1782565820456,0.14,-0.84,-0.14
866,1782565820474,0.21,-0.7,-0.14
867,1782565820490,0.21,-0.63,-0.14
868,1782565820557,0.21,-0.63,-0.14
869,1782565820674,0.21,-0.56,-0.14
870,1782565820756,0.35,-0.56,-0.07
871,1782565820890,0.35,-0.56,-0.14
872,1782565820907,0.35,-0.56,-0.07
873,1782565820940,0.21,-0.49,-0.07
874,1782565820956,0.21,-0.56,-0.07
875,1782565820989,0.42,-0.7,-0.07
876,1782565821039,0.42,-0.7,-0.07
877,1782565821089,0.42,-0.63,-0.07
878,1782565821140,0.28,-0.63,-0.14
879,1782565821173,0.14,-0.63,-0.14
880,1782565821206,0.14,-0.63,-0.14
881,1782565821223,0.14,-0.56,-0.14
882,1782565821273,0.35,-0.56,-0.14
883,1782565821323,0.49,-0.49,-0.14
884,1782565821323,0.28,-0.42,-0.07
885,1782565821439,0.28,-0.42,-0.07
886,1782565821572,0.28,-0.42,-0.07
887,1782565821655,0.35,-0.56,0
888,1782565821689,0.35,-0.56,0.07
889,1782565821755,0.28,-0.56,0
890,1782565821806,0.21,-0.56,0
891,1782565821855,0.28,-0.56,0
892,1782565821872,0.28,-0.56,0
893,1782565821889,0.28,-0.56,0
894,1782565821922,0.28,-0.56,0
895,1782565821939,0.28,-0.56,0
896,1782565822022,0.21,-0.63,-0.07
897,1782565822139,0.21,-0.49,0
898,1782565822172,0.28,-0.56,0
899,1782565822188,0.28,-0.56,0
900,1782565822338,0.28,-0.56,-0.14
901,1782565822372,0.28,-0.63,-0.14
902,1782565822455,0.35,-0.63,0.07
903,1782565822471,0.28,-0.63,0.07
904,1782565822538,0.28,-0.63,0.07
905,1782565822622,0.28,-0.63,0.07
906,1782565822655,0.42,-0.63,0.07
907,1782565822704,0.28,-0.49,-0.14
908,1782565822789,0.28,-0.56,-0.14
909,1782565822822,0.28,-0.56,-0.07
910,1782565822854,0.28,-0.56,-0.14
911,1782565822872,0.28,-0.56,-0.07
912,1782565822921,0.28,-0.56,-0.14
913,1782565822972,0.28,-0.63,-0.21
914,1782565823004,0.28,-0.63,-0.21
915,1782565823038,0.28,-0.63,-0.21
916,1782565823088,0.35,-0.63,-0.21
917,1782565823105,0.35,-0.63,-0.21
918,1782565823138,0.35,-0.63,-0.21
919,1782565823250,0.28,-0.56,-0.21
920,1782565823272,0.28,-0.49,0.14
921,1782565823321,0.21,-0.49,0.14
922,1782565823421,0.21,-0.56,0.21
923,1782565823438,0.21,-0.56,0.21
924,1782565823471,0.21,-0.63,0.21
925,1782565823521,0.21,-0.63,0.21
926,1782565823571,0.21,-0.63,0.21
927,1782565823605,0.21,-0.56,0
928,1782565823687,0.28,-0.56,0.07
929,1782565823721,0.28,-0.63,0.07
930,1782565823787,0.28,-0.63,0.07
931,1782565823838,0.28,-0.63,0.07
932,1782565823888,0.28,-0.49,0.07
933,1782565823921,-0.07,-0.56,-0.21
934,1782565823987,-0.07,-0.63,-0.21
935,1782565824054,-0.07,-0.63,-0.21
936,1782565824170,0.21,-0.56,-0.21
937,1782565824187,0.28,-0.49,-0.07
938,1782565824253,0.28,-0.63,-0.07
939,1782565824336,0.28,-0.63,-0.07
940,1782565824403,0.28,-0.63,-0.07
941,1782565824437,0.49,-0.63,0.07
942,1782565824453,0.49,-0.7,0.07
943,1782565824470,0.49,-0.7,0.07
944,1782565824520,0.42,-0.63,0
945,1782565824570,0.49,-0.63,0
946,1782565824636,0.49,-0.63,-0.07
947,1782565824686,0.49,-0.63,-0.07
948,1782565824736,0.28,-0.63,-0.28
949,1782565824769,0.28,-0.77,-0.28
950,1782565824801,0.21,-0.77,-0.28
951,1782565824837,0.28,-0.84,-0.28
952,1782565824887,0.35,-0.84,-0.28
953,1782565824937,0.28,-0.84,-0.28
954,1782565824986,0.35,-0.63,-0.35
955,1782565825052,0.35,-0.28,-0.21
956,1782565825086,0.35,-0.35,0
957,1782565825136,0.28,-0.35,0.07
958,1782565825186,0.07,-0.7,0.07
959,1782565825320,0,-0.49,0
960,1782565825352,0,-0.49,0.07
961,1782565825385,0.07,-0.49,0.07
962,1782565825419,0.07,-0.49,0.07
963,1782565825469,0,-0.42,0.21
964,1782565825519,0,-0.49,0.28
965,1782565825569,0.21,-0.63,0.21
966,1782565825585,-0.07,-0.63,0.21
967,1782565825768,-0.07,-0.63,0.14
968,1782565825835,0.07,-0.7,-0.14
969,1782565825869,0.07,-0.7,-0.14
970,1782565825885,0.77,-0.49,-0.14
971,1782565825903,0.77,-0.28,-0.21
972,1782565825969,0.77,-0.28,-0.14
973,1782565826002,0.35,-0.28,-0.14
974,1782565826068,0.14,-0.28,-0.14
975,1782565826102,0.07,-0.42,-0.07
976,1782565826168,0.07,-0.42,-0.07
977,1782565826202,0.49,-0.35,0
978,1782565826269,0.42,-0.35,-0.07
979,1782565826319,0.42,-0.56,-0.07
980,1782565826418,0.42,-0.56,-0.21
981,1782565826468,0.42,-0.56,-0.07
982,1782565826518,0.42,-0.42,-0.21
983,1782565826618,0.28,-0.42,-0.21
984,1782565826684,0.28,-0.49,-0.28
985,1782565826734,0.28,-0.42,-0.35
986,1782565826785,0.28,-0.42,-0.28
987,1782565826835,0.28,-0.42,-0.07
988,1782565826901,0.28,-0.42,0
989,1782565827001,0.21,-0.49,0.07
990,1782565827035,0.14,-0.56,0.07
991,1782565827067,0.21,-0.49,-0.07
992,1782565827151,0.21,-0.35,-0.07
993,1782565827201,0.21,-0.35,-0.07
994,1782565827251,0.28,-0.35,-0.07
995,1782565827368,0.28,-0.56,-0.07
996,1782565827418,0.28,-0.56,-0.07
997,1782565827467,0.28,-0.56,-0.07
998,1782565827517,0.28,-0.49,-0.07
999,1782565827584,0.21,-0.49,-0.14
1000,1782565827651,0.35,-0.56,0
1001,1782565827700,0.28,-0.56,0
1002,1782565827817,0.28,-0.49,0
1003,1782565827850,0.28,-0.56,0
1004,1782565827884,0.35,-0.49,-0.07
1005,1782565827951,0.35,-0.49,-0.07
1006,1782565828001,0.35,-0.49,-0.07
1007,1782565828050,0.35,-0.49,-0.07
1008,1782565828100,0.21,-0.56,0
1009,1782565828167,0.21,-0.56,0
1010,1782565828235,0.21,-0.56,0
1011,1782565828283,0.21,-0.63,0.07
1012,1782565828350,0.21,-0.63,0.07
1013,1782565828418,0.28,-0.63,0.07
1014,1782565828517,0.28,-0.56,-0.07
1015,1782565828567,0.49,-0.56,0
1016,1782565828633,0.49,-0.56,0
1017,1782565828650,0.49,-0.7,0
1018,1782565828684,0.42,-0.63,0.07
1019,1782565828700,0.42,-0.63,0.07
1020,1782565828717,0.21,-0.63,0.07
1021,1782565828750,0.21,-0.63,0
1022,1782565828799,0.28,-0.63,-0.07
1023,1782565828934,0.21,-0.63,-0.07
1024,1782565828966,0.21,-0.63,-0.07
1025,1782565828984,0.21,-0.63,-0.07
1026,1782565829016,0.21,-0.63,-0.07
1027,1782565829050,0.21,-0.63,-0.07
1028,1782565829050,0.21,-0.49,0
1029,1782565829101,0.21,-0.63,0
1030,1782565829150,0.21,-0.63,-0.14
1031,1782565829200,0.28,-0.63,-0.14
1032,1782565829216,0.28,-0.56,-0.14
1033,1782565829234,0.35,-0.56,-0.14
1034,1782565829266,0.35,-0.56,-0.14
1035,1782565829333,0.35,-0.56,-0.07
1036,1782565829367,0.28,-0.63,0.07
1037,1782565829400,0.28,-0.63,0.07
1038,1782565829450,0.28,-0.63,0.07
1039,1782565829517,0.28,-0.56,0.07
1040,1782565829650,0.21,-0.49,0
1041,1782565829700,0.21,-0.56,0
1042,1782565829749,0.21,-0.56,0
1043,1782565829783,0.21,-0.56,-0.07
1044,1782565829800,0.21,-0.56,-0.07
1045,1782565829817,0.21,-0.42,-0.07
1046,1782565829849,0.28,-0.42,-0.07
1047,1782565829882,0.28,-0.42,-0.07
1048,1782565829948,0.35,-0.49,-0.07
1049,1782565829982,0.35,-0.63,-0.07
1050,1782565830015,0.35,-0.63,-0.07
1051,1782565830082,0.35,-0.63,-0.07
1052,1782565830165,0.35,-0.63,-0.07
1053,1782565830315,0.28,-0.49,0
1054,1782565830381,0.21,-0.63,0
1055,1782565830432,0.21,-0.56,0
1056,1782565830448,0.28,-0.49,0
1057,1782565830498,0.28,-0.49,-0.07
1058,1782565830615,0.42,-0.49,-0.07
1059,1782565830681,0.42,-0.77,-0.07
1060,1782565830715,0.42,-0.35,-0.14
1061,1782565830732,0.28,-0.35,-0.14
1062,1782565830765,0.28,-0.77,-0.14
1063,1782565830798,0.28,-0.56,-0.21
1064,1782565830882,0.28,-0.56,-0.14
1065,1782565830915,0.28,-0.56,-0.07
1066,1782565830948,0.28,-0.56,-0.07
1067,1782565830964,0.28,-0.56,-0.07
1068,1782565830982,0.28,-0.56,0.07
1069,1782565831015,0.21,-0.56,0.07
1070,1782565831065,0.21,-0.56,0.07
1071,1782565831115,0.35,-0.63,-0.21
1072,1782565831198,0.35,-0.56,-0.21
1073,1782565831281,0.28,-0.56,-0.21
1074,1782565831331,0.28,-0.56,-0.21
1075,1782565831415,0.28,-0.49,-0.07
1076,1782565831447,0.28,-0.49,-0.07
1077,1782565831480,0.28,-0.49,0
1078,1782565831515,0.28,-0.49,0
1079,1782565831614,0.28,-0.49,0
1080,1782565831647,0.28,-0.56,0
1081,1782565831697,0.28,-0.56,0
1082,1782565831797,0.28,-0.56,0
1083,1782565831830,0.28,-0.56,0
1084,1782565831897,0.28,-0.56,0
1085,1782565831930,0.28,-0.56,-0.07
1086,1782565832063,0.28,-0.56,-0.07
1087,1782565832080,0.28,-0.56,-0.07
1088,1782565832114,0.28,-0.56,-0.07
1089,1782565832196,0.35,-0.56,-0.07
1090,1782565832247,0.28,-0.56,0
1091,1782565832280,0.28,-0.56,0
1092,1782565832313,0.28,-0.56,0
1093,1782565832330,0.28,-0.56,0
1094,1782565832348,0.28,-0.56,0
1095,1782565832430,0.28,-0.56,-0.07
1096,1782565832497,0.35,-0.56,-0.07
1097,1782565832530,0.21,-0.56,-0.07
1098,1782565832630,0.28,-0.56,-0.07
1099,1782565832667,0.28,-0.56,-0.07
1100,1782565832679,0.28,-0.56,-0.07
1101,1782565832712,0.35,-0.56,-0.07
1102,1782565832779,0.28,-0.56,0
1103,1782565832879,0.28,-0.56,0
1104,1782565832994,0.28,-0.49,0
1105,1782565832994,0.28,-0.49,0
1106,1782565833029,0.28,-0.49,0
1107,1782565833063,0.28,-0.56,-0.07
1108,1782565833113,0.28,-0.56,-0.07
1109,1782565833163,0.28,-0.56,0
1110,1782565833179,0.28,-0.56,-0.07
1111,1782565833196,0.28,-0.56,-0.07
1112,1782565833313,0.35,-0.56,0
1113,1782565833329,0.35,-0.63,0
1114,1782565833362,0.28,-0.56,0
1115,1782565833380,0.28,-0.56,0
1116,1782565833430,0.28,-0.56,0
1117,1782565833479,0.28,-0.56,0
1118,1782565833495,0.35,-0.63,0.07
1119,1782565833546,0.35,-0.63,0.07
1120,1782565833596,0.35,-0.63,0
1121,1782565833662,0.28,-0.56,-0.07
1122,1782565833679,0.28,-0.56,-0.07
1123,1782565833712,0.28,-0.63,-0.07
1124,1782565833746,0.28,-0.63,0
1125,1782565833812,0.21,-0.56,0
1126,1782565833845,0.28,-0.56,0
1127,1782565833929,0.28,-0.56,0.07
1128,1782565833946,0.35,-0.49,0.14
1129,1782565833979,0.42,-0.49,0.14
1130,1782565834062,0.42,-0.49,0.14
1131,1782565834128,0.42,-0.49,0.14
1132,1782565834178,0.42,-0.49,0.07
1133,1782565834228,0.35,-0.63,-0.21
1134,1782565834245,0.35,-0.56,-0.21
1135,1782565834261,0.35,-0.56,0.07
1136,1782565834329,0.28,-0.49,0.07
1137,1782565834395,0.35,-0.49,0.21
1138,1782565834428,0.28,-0.49,0.21
1139,1782565834495,0.28,-0.49,0.21
1140,1782565834561,0.21,-0.56,0
1141,1782565834645,0.21,-0.56,0
1142,1782565834711,0.21,-0.56,0
1143,1782565834811,0.28,-0.56,-0.14
1144,1782565834845,0.28,-0.56,-0.14
1145,1782565834861,0.28,-0.63,-0.07
1146,1782565834878,0.28,-0.63,-0.07
1147,1782565834928,0.28,-0.56,-0.07
1148,1782565834978,0.28,-0.56,-0.07
1149,1782565835044,0.28,-0.42,0
1150,1782565835061,0.28,-0.56,-0.07
1151,1782565835111,0.28,-0.56,-0.07
1152,1782565835144,0.28,-0.56,-0.07
1153,1782565835178,0.28,-0.63,-0.07
1154,1782565835228,0.28,-0.63,-0.07
1155,1782565835261,0.28,-0.56,-0.07
1156,1782565835328,0.28,-0.49,-0.07
1157,1782565835361,0.21,-0.63,-0.07
1158,1782565835411,0.28,-0.63,-0.07
1159,1782565835460,0.28,-0.56,-0.07
1160,1782565835477,0.28,-0.56,-0.07
1161,1782565835527,0.28,-0.56,-0.07
1162,1782565835577,0.28,-0.56,-0.07
1163,1782565835627,0.28,-0.56,-0.07
1164,1782565835677,0.28,-0.63,-0.07
1165,1782565835728,0.28,-0.56,-0.07
1166,1782565835777,0.28,-0.56,-0.07
1167,1782565835827,0.28,-0.56,-0.07
1168,1782565835877,0.28,-0.56,0
1169,1782565835944,0.28,-0.56,0
1170,1782565835978,0.28,-0.56,-0.07
1171,1782565836127,0.21,-0.49,-0.07
1172,1782565836177,0.28,-0.56,0
1173,1782565836210,0.28,-0.56,0
1174,1782565836243,0.35,-0.56,0
1175,1782565836260,0.28,-0.56,0
1176,1782565836293,0.28,-0.56,-0.07
1177,1782565836344,0.28,-0.56,-0.07
1178,1782565836394,0.28,-0.56,-0.07
1179,1782565836444,0.28,-0.56,-0.07
1180,1782565836494,0.28,-0.56,-0.07
1181,1782565836593,0.28,-0.56,-0.07
1182,1782565836643,0.28,-0.56,-0.07
1183,1782565836693,0.28,-0.56,-0.07
1184,1782565836743,0.28,-0.56,-0.07
1185,1782565836776,0.28,-0.56,-0.07
1186,1782565836793,0.28,-0.56,-0.07
1187,1782565836876,0.21,-0.56,-0.07
1188,1782565836926,0.21,-0.56,-0.07
1189,1782565836976,0.28,-0.56,-0.07
1190,1782565837026,0.28,-0.56,-0.07
1191,1782565837059,0.28,-0.56,-0.07
1192,1782565837076,0.28,-0.56,-0.07
1193,1782565837110,0.35,-0.56,-0.07
1194,1782565837226,0.28,-0.49,-0.07
1195,1782565837276,0.28,-0.49,-0.07
1196,1782565837342,0.28,-0.56,-0.07
1197,1782565837359,0.28,-0.56,-0.07
1198,1782565837376,0.28,-0.56,-0.07
1199,1782565837409,0.28,-0.56,-0.14
1200,1782565837425,0.28,-0.56,-0.07
1201,1782565837442,0.35,-0.63,-0.07
1202,1782565837509,0.28,-0.63,-0.07
1203,1782565837642,0.35,-0.56,-0.07
1204,1782565837659,0.28,-0.56,-0.07
1205,1782565837675,0.28,-0.56,-0.07
1206,1782565837709,0.35,-0.56,0
1207,1782565837725,0.28,-0.49,-0.07
1208,1782565837792,0.28,-0.56,-0.07
1209,1782565837826,0.28,-0.56,-0.07
1210,1782565837858,0.28,-0.56,-0.07
1211,1782565837925,0.28,-0.56,-0.07
1212,1782565837992,0.28,-0.56,-0.07
1213,1782565838058,0.21,-0.49,-0.07
1214,1782565838092,0.21,-0.49,0
1215,1782565838125,0.28,-0.49,0
1216,1782565838142,0.28,-0.49,-0.07
1217,1782565838158,0.35,-0.56,0
1218,1782565838176,0.35,-0.56,0
1219,1782565838242,0.35,-0.56,-0.07
1220,1782565838292,0.28,-0.56,-0.07
1221,1782565838342,0.28,-0.56,-0.07
1222,1782565838409,0.28,-0.56,-0.07
1223,1782565838458,0.28,-0.49,-0.14
1224,1782565838508,0.21,-0.49,-0.14
1225,1782565838558,0.21,-0.49,-0.07
1226,1782565838709,0.21,-0.49,-0.07
1227,1782565838808,0.21,-0.49,-0.07
1228,1782565838891,0.21,-0.56,0
1229,1782565838925,0.21,-0.56,0
1230,1782565839024,0.28,-0.56,-0.07
1231,1782565839174,0.28,-0.56,-0.07
1232,1782565839224,0.28,-0.56,-0.07
1233,1782565839290,0.28,-0.63,-0.07
1234,1782565839324,0.28,-0.63,0
1235,1782565839392,0.28,-0.56,0
1236,1782565839441,0.28,-0.63,0
1237,1782565839541,0.28,-0.56,0
1238,1782565839591,0.35,-0.56,-0.07
1239,1782565839640,0.35,-0.49,-0.07
1240,1782565839691,0.28,-0.49,-0.07
1241,1782565839741,0.28,-0.49,-0.07
1242,1782565839756,0.28,-0.49,-0.07
1243,1782565839773,0.28,-0.49,-0.07
1244,1782565839807,0.28,-0.49,-0.07
1245,1782565839840,0.28,-0.49,-0.07
1246,1782565839891,0.28,-0.56,0
1247,1782565839940,0.21,-0.56,0
1248,1782565839974,0.21,-0.56,0
1249,1782565839991,0.21,-0.56,0
1250,1782565840007,0.21,-0.56,0
1251,1782565840040,0.28,-0.56,0
1252,1782565840056,0.28,-0.56,0
1253,1782565840157,0.28,-0.49,-0.07
1254,1782565840240,0.28,-0.49,-0.07
1255,1782565840257,0.28,-0.49,-0.07
1256,1782565840290,0.28,-0.49,-0.07
1257,1782565840307,0.28,-0.56,-0.07
1258,1782565840323,0.28,-0.56,-0.07
1259,1782565840357,0.28,-0.56,-0.07
1260,1782565840407,0.28,-0.56,-0.07
1261,1782565840423,0.28,-0.56,-0.14
1262,1782565840473,0.28,-0.56,-0.07
1263,1782565840523,0.28,-0.56,-0.07
1264,1782565840540,0.28,-0.56,-0.14
1265,1782565840557,0.28,-0.56,-0.07
1266,1782565840590,0.28,-0.56,-0.07
1267,1782565840623,0.28,-0.56,0
1268,1782565840656,0.21,-0.56,0
1269,1782565840773,0.21,-0.49,0
1270,1782565840806,0.35,-0.56,0
1271,1782565840873,0.35,-0.49,0
1272,1782565840906,0.35,-0.49,0
1273,1782565840973,0.35,-0.49,0
1274,1782565841023,0.35,-0.49,-0.07
1275,1782565841073,0.35,-0.56,-0.07
1276,1782565841139,0.28,-0.56,-0.07
1277,1782565841173,0.28,-0.56,-0.07
1278,1782565841223,0.28,-0.56,-0.07
1279,1782565841273,0.28,-0.56,-0.07
1280,1782565841323,0.28,-0.56,-0.07
1281,1782565841373,0.28,-0.56,-0.07
1282,1782565841389,0.28,-0.56,0
1283,1782565841489,0.21,-0.56,-0.07
1284,1782565841589,0.21,-0.56,-0.07
1285,1782565841639,0.21,-0.56,-0.07
1286,1782565841689,0.28,-0.56,0
1287,1782565841755,0.28,-0.56,0
1288,1782565841822,0.28,-0.56,0
1289,1782565841855,0.28,-0.56,-0.07
1290,1782565841889,0.14,-0.56,0
1291,1782565841922,0.14,-0.56,0
1292,1782565842005,0.28,-0.56,0
1293,1782565842072,0.28,-0.56,0
1294,1782565842122,0.28,-0.56,0
1295,1782565842155,0.28,-0.56,0
1296,1782565842271,0.21,-0.49,0
1297,1782565842338,0.21,-0.49,0
1298,1782565842388,0.21,-0.49,0
1299,1782565842405,0.28,-0.56,0.07
1300,1782565842438,0.28,-0.56,0.07
1301,1782565842471,0.28,-0.56,0
1302,1782565842489,0.28,-0.56,-0.07
1303,1782565842555,0.28,-0.49,-0.07
1304,1782565842605,0.28,-0.56,0
1305,1782565842704,0.28,-0.56,0
1306,1782565842755,0.28,-0.56,0
1307,1782565842771,0.28,-0.56,0
1308,1782565842805,0.28,-0.56,0
1309,1782565842821,0.28,-0.56,0
1310,1782565842854,0.35,-0.56,-0.07
1311,1782565842904,0.35,-0.56,-0.07
1312,1782565842939,0.28,-0.63,-0.07
1313,1782565842954,0.35,-0.56,-0.07
1314,1782565842988,0.28,-0.56,0
1315,1782565843004,0.28,-0.63,0
1316,1782565843021,0.28,-0.63,-0.07
1317,1782565843088,0.28,-0.56,-0.07
1318,1782565843171,0.28,-0.63,0
1319,1782565843221,0.28,-0.56,-0.07
1320,1782565843271,0.21,-0.56,0
1321,1782565843337,0.21,-0.56,0
1322,1782565843404,0.35,-0.63,0
1323,1782565843438,0.35,-0.56,0
1324,1782565843521,0.28,-0.56,-0.07
1325,1782565843571,0.28,-0.56,-0.07
1326,1782565843621,0.28,-0.56,-0.07
1327,1782565843687,0.28,-0.56,-0.07
1328,1782565843820,0.28,-0.56,-0.07
1329,1782565843887,0.28,-0.56,-0.07
1330,1782565843937,0.28,-0.56,-0.07
1331,1782565843987,0.28,-0.56,0
1332,1782565844037,0.28,-0.56,0
1333,1782565844086,0.28,-0.56,0
1334,1782565844187,0.28,-0.56,-0.07
1335,1782565844236,0.28,-0.56,-0.07
1336,1782565844287,0.28,-0.56,-0.07
1337,1782565844370,0.28,-0.56,0
1338,1782565844470,0.28,-0.56,0
1339,1782565844504,0.28,-0.56,0
1340,1782565844587,0.28,-0.56,-0.07
1341,1782565844670,0.28,-0.56,-0.07
1342,1782565844770,0.28,-0.49,-0.07
1343,1782565844853,0.28,-0.49,-0.07
1344,1782565844886,0.35,-0.56,-0.07
1345,1782565844952,0.35,-0.56,-0.07
1346,1782565845003,0.28,-0.56,-0.07
1347,1782565845053,0.28,-0.49,0
1348,1782565845119,0.28,-0.49,-0.07
1349,1782565845187,0.28,-0.49,-0.07
1350,1782565845252,0.21,-0.49,-0.07
1351,1782565845303,0.28,-0.56,-0.07
1352,1782565845353,0.28,-0.56,-0.07
1353,1782565845453,0.28,-0.56,-0.07
1354,1782565845519,0.35,-0.49,-0.07
1355,1782565845569,0.35,-0.49,-0.07
1356,1782565845635,0.35,-0.56,-0.07
1357,1782565845702,0.28,-0.49,-0.07
1358,1782565845768,0.28,-0.49,-0.07
1359,1782565845802,0.21,-0.49,0
1360,1782565845869,0.21,-0.49,0
1361,1782565845918,0.21,-0.49,-0.07
1362,1782565845968,0.21,-0.56,-0.07
1363,1782565845986,0.28,-0.56,-0.07
1364,1782565846018,0.28,-0.56,-0.07
1365,1782565846118,0.21,-0.49,0
1366,1782565846202,0.28,-0.49,0
1367,1782565846301,0.28,-0.56,-0.07
1368,1782565846385,0.28,-0.56,0
1369,1782565846434,0.28,-0.63,0
1370,1782565846485,0.28,-0.56,0
1371,1782565846551,0.35,-0.56,0
1372,1782565846585,0.35,-0.56,-0.07
1373,1782565846602,0.35,-0.56,-0.07
1374,1782565846635,0.35,-0.56,-0.07
1375,1782565846651,0.35,-0.56,0
1376,1782565846684,0.21,-0.63,-0.07
1377,1782565846735,0.21,-0.63,-0.07
1378,1782565846818,0.21,-0.56,-0.07
1379,1782565846917,0.21,-0.56,-0.07
1380,1782565846968,0.35,-0.56,-0.07
1381,1782565847051,0.35,-0.56,-0.07
1382,1782565847101,0.35,-0.49,-0.07
1383,1782565847168,0.35,-0.49,-0.07
1384,1782565847184,0.35,-0.63,0
1385,1782565847201,0.28,-0.56,0
1386,1782565847251,0.21,-0.56,-0.07
1387,1782565847318,0.21,-0.56,0
1388,1782565847351,0.21,-0.56,0
1389,1782565847417,0.21,-0.56,-0.07
1390,1782565847468,0.21,-0.56,-0.07
1391,1782565847484,0.21,-0.56,0
1392,1782565847518,0.28,-0.56,-0.07
1393,1782565847584,0.28,-0.56,0
1394,1782565847700,0.28,-0.56,-0.07
1395,1782565847767,0.35,-0.56,-0.07
1396,1782565847817,0.35,-0.56,-0.07
1397,1782565847867,0.35,-0.56,0
1398,1782565847934,0.28,-0.56,0
1399,1782565847967,0.28,-0.56,0
1400,1782565848034,0.28,-0.56,0
1401,1782565848067,0.28,-0.56,0
1402,1782565848084,0.28,-0.56,0
1403,1782565848100,0.28,-0.63,0
1404,1782565848133,0.28,-0.56,-0.07
1405,1782565848183,0.28,-0.56,-0.07
1406,1782565848200,0.28,-0.56,-0.07
1407,1782565848233,0.28,-0.56,-0.07
1408,1782565848250,0.35,-0.56,-0.07
1409,1782565848333,0.28,-0.56,-0.07
1410,1782565848399,0.35,-0.56,-0.07
1411,1782565848433,0.35,-0.56,-0.07
1412,1782565848517,0.35,-0.56,-0.07
1413,1782565848550,0.28,-0.56,-0.07
1414,1782565848566,0.28,-0.56,0
1415,1782565848600,0.28,-0.49,-0.07
1416,1782565848650,0.28,-0.49,-0.07
1417,1782565848749,0.28,-0.56,-0.07
1418,1782565848800,0.28,-0.56,-0.07
1419,1782565848816,0.28,-0.56,-0.07
1420,1782565848849,0.28,-0.56,-0.07
1421,1782565848900,0.28,-0.56,-0.07
1422,1782565848949,0.28,-0.56,0
1423,1782565848983,0.28,-0.49,0
1424,1782565849033,0.28,-0.49,0
1425,1782565849049,0.21,-0.56,0.07
1426,1782565849066,0.21,-0.56,0
1427,1782565849100,0.21,-0.63,0
1428,1782565849133,0.28,-0.63,0
1429,1782565849166,0.28,-0.63,0
1430,1782565849233,0.28,-0.56,-0.07
1431,1782565849366,0.21,-0.63,0
1432,1782565849399,0.21,-0.63,0
1433,1782565849416,0.21,-0.63,0
1434,1782565849432,0.28,-0.63,-0.07
1435,1782565849466,0.28,-0.63,-0.07
1436,1782565849516,0.28,-0.56,-0.07
1437,1782565849566,0.28,-0.63,0
1438,1782565849632,0.28,-0.56,0
1439,1782565849682,0.28,-0.56,0
1440,1782565849749,0.28,-0.56,0
1441,1782565849782,0.28,-0.56,0
1442,1782565849782,0.21,-0.63,-0.07
1443,1782565849848,0.28,-0.63,0
1444,1782565849882,0.28,-0.63,0
1445,1782565849915,0.28,-0.56,0
1446,1782565849949,0.35,-0.56,0
1447,1782565849966,0.35,-0.56,0
1448,1782565849982,0.35,-0.56,-0.07
1449,1782565850065,0.35,-0.56,-0.07
1450,1782565850082,0.28,-0.56,-0.07
1451,1782565850148,0.21,-0.56,-0.07
1452,1782565850215,0.21,-0.56,-0.07
1453,1782565850281,0.21,-0.56,-0.07
1454,1782565850331,0.21,-0.56,-0.07
1455,1782565850365,0.28,-0.56,-0.07
1456,1782565850398,0.28,-0.56,-0.07
1457,1782565850432,0.28,-0.56,-0.07
1458,1782565850448,0.28,-0.56,-0.07
1459,1782565850465,0.35,-0.56,-0.07
1460,1782565850498,0.35,-0.56,-0.07
1461,1782565850548,0.35,-0.56,-0.07
1462,1782565850597,0.35,-0.63,-0.07
1463,1782565850665,0.35,-0.63,-0.07
1464,1782565850698,0.28,-0.56,-0.07
1465,1782565850815,0.28,-0.56,-0.07
1466,1782565850898,0.28,-0.56,-0.07
1467,1782565850981,0.28,-0.56,0
1468,1782565850997,0.28,-0.56,-0.07
1469,1782565851014,0.28,-0.56,-0.07
1470,1782565851114,0.28,-0.56,-0.07
1471,1782565851198,0.28,-0.56,0
1472,1782565851264,0.21,-0.49,-0.07
1473,1782565851280,0.21,-0.56,-0.07
1474,1782565851314,0.21,-0.56,0
1475,1782565851331,0.21,-0.56,0
1476,1782565851348,0.21,-0.56,-0.07
1477,1782565851415,0.28,-0.56,0
1478,1782565851481,0.28,-0.56,0
1479,1782565851531,0.35,-0.56,-0.07
1480,1782565851564,0.35,-0.49,0
1481,1782565851597,0.35,-0.49,0
1482,1782565851631,0.35,-0.49,0
1483,1782565851681,0.28,-0.49,0
1484,1782565851830,0.21,-0.63,-0.07
1485,1782565851863,0.21,-0.49,-0.07
1486,1782565851880,0.21,-0.56,-0.07
1487,1782565851914,0.28,-0.56,-0.07
1488,1782565852030,0.28,-0.56,-0.07
1489,1782565852114,0.21,-0.49,0
1490,1782565852180,0.28,-0.49,0
1491,1782565852213,0.28,-0.49,0
1492,1782565852247,0.28,-0.49,-0.07
1493,1782565852313,0.28,-0.49,-0.07
1494,1782565852347,0.28,-0.56,-0.07
1495,1782565852397,0.21,-0.56,0
1496,1782565852464,0.21,-0.56,0
1497,1782565852480,0.21,-0.56,0
1498,1782565852513,0.21,-0.56,0
1499,1782565852547,0.28,-0.56,0
1500,1782565852730,0.35,-0.56,-0.07
1501,1782565852746,0.35,-0.56,-0.07
1502,1782565852813,0.35,-0.56,-0.07
1503,1782565852880,0.35,-0.56,-0.07
1504,1782565852930,0.21,-0.56,-0.07
1505,1782565852979,0.21,-0.56,-0.07
1506,1782565853046,0.21,-0.42,0
1507,1782565853096,0.21,-0.63,0
1508,1782565853163,0.21,-0.63,0
1509,1782565853196,0.21,-0.42,0
1510,1782565853246,0.14,-0.49,0
1511,1782565853379,0.14,-0.56,-0.07
1512,1782565853462,0.14,-0.56,-0.07
1513,1782565853595,0.35,-0.56,-0.07
1514,1782565853646,0.35,-0.56,-0.07
1515,1782565853695,0.35,-0.56,-0.07
1516,1782565853745,0.28,-0.49,-0.07
1517,1782565853812,0.28,-0.49,-0.07
1518,1782565853862,0.28,-0.56,-0.07
1519,1782565853878,0.21,-0.56,-0.07
1520,1782565853995,0.28,-0.63,-0.07
1521,1782565854078,0.28,-0.63,-0.07
1522,1782565854178,0.28,-0.56,-0.07
1523,1782565854262,0.28,-0.56,-0.07
1524,1782565854328,0.28,-0.56,-0.07
1525,1782565854362,0.21,-0.56,-0.07
1526,1782565854428,0.21,-0.56,-0.07
1527,1782565854461,0.28,-0.56,0
1528,1782565854512,0.28,-0.56,0
1529,1782565854612,0.28,-0.56,0
1530,1782565854662,0.28,-0.56,-0.07
1531,1782565854728,0.28,-0.56,-0.07
1532,1782565854828,0.28,-0.63,-0.07
1533,1782565854894,0.28,-0.63,-0.07
1534,1782565854961,0.28,-0.63,0
1535,1782565855028,0.28,-0.56,0
1536,1782565855061,0.28,-0.56,0
1537,1782565855128,0.28,-0.56,0
1538,1782565855178,0.28,-0.56,0
1539,1782565855227,0.28,-0.56,0
1540,1782565855278,0.28,-0.56,0
1541,1782565855344,0.28,-0.56,-0.07
1542,1782565855394,0.28,-0.56,-0.07
1543,1782565855461,0.28,-0.56,-0.07
1544,1782565855494,0.28,-0.56,-0.07
1545,1782565855510,0.28,-0.56,-0.07
1546,1782565855544,0.28,-0.56,-0.07
1547,1782565855561,0.28,-0.49,-0.07
1548,1782565855594,0.28,-0.49,-0.07
1549,1782565855627,0.28,-0.56,-0.07
1550,1782565855711,0.28,-0.56,-0.07
1551,1782565855794,0.21,-0.63,-0.07
1552,1782565855810,0.21,-0.56,-0.07
1553,1782565855844,0.21,-0.56,-0.07
1554,1782565855861,0.21,-0.56,-0.07
1555,1782565855960,0.21,-0.56,0
1556,1782565856010,0.28,-0.56,0
1557,1782565856043,0.28,-0.49,0
1558,1782565856177,0.35,-0.49,-0.07
1559,1782565856260,0.35,-0.49,0
1560,1782565856327,0.35,-0.49,-0.07
1561,1782565856360,0.28,-0.49,0
1562,1782565856377,0.28,-0.56,-0.07
1563,1782565856394,0.28,-0.56,-0.07
1564,1782565856493,0.28,-0.56,-0.07
1565,1782565856526,0.35,-0.49,-0.07
1566,1782565856593,0.35,-0.49,-0.07
1567,1782565856659,0.28,-0.56,-0.07
1568,1782565856710,0.28,-0.56,0
1569,1782565856726,0.35,-0.56,0
1570,1782565856776,0.28,-0.49,-0.07
1571,1782565856826,0.28,-0.49,-0.07
1572,1782565856877,0.28,-0.49,-0.07
1573,1782565856910,0.28,-0.49,-0.07
1574,1782565856943,0.28,-0.49,0
1575,1782565857010,0.28,-0.49,-0.07
1576,1782565857109,0.28,-0.49,0
1577,1782565857160,0.28,-0.49,0
1578,1782565857209,0.28,-0.49,0
1579,1782565857242,0.28,-0.49,0
1580,1782565857275,0.28,-0.49,0
1581,1782565857309,0.28,-0.56,0
1582,1782565857376,0.28,-0.49,0
1583,1782565857409,0.28,-0.49,0
1584,1782565857543,0.28,-0.56,0
1585,1782565857559,0.28,-0.56,0
1586,1782565857592,0.28,-0.56,0
1587,1782565857659,0.28,-0.56,0
1588,1782565857708,0.28,-0.56,0
1589,1782565857759,0.28,-0.56,-0.07
1590,1782565857792,0.28,-0.56,-0.07
1591,1782565857826,0.28,-0.56,-0.07
1592,1782565857842,0.21,-0.56,-0.07
1593,1782565857859,0.21,-0.56,-0.07
1594,1782565857892,0.21,-0.56,-0.07
1595,1782565857958,0.28,-0.56,0
1596,1782565857992,0.21,-0.56,-0.07
1597,1782565858042,0.28,-0.56,-0.07
1598,1782565858092,0.28,-0.56,-0.07
1599,1782565858158,0.28,-0.49,-0.07
1600,1782565858208,0.28,-0.56,-0.07
1601,1782565858242,0.28,-0.56,-0.07
1602,1782565858259,0.28,-0.56,-0.07
1603,1782565858275,0.28,-0.56,-0.07
1604,1782565858325,0.28,-0.56,0
1605,1782565858391,0.28,-0.56,0
1606,1782565858442,0.28,-0.49,0
1607,1782565969031,0.14,-0.63,0.07
1608,1782565969098,0.35,-0.63,0
1609,1782565969149,0.35,-0.49,0
1610,1782565969198,0.28,-0.56,0
1611,1782565969249,0.28,-0.56,-0.07
1612,1782565969298,0.28,-0.56,-0.07
1613,1782565969348,0.28,-0.56,-0.07
1614,1782565969348,0.35,-0.56,-0.07
1615,1782565969381,0.28,-0.56,-0.14
1616,1782565969398,0.28,-0.56,-0.14
1617,1782565969415,0.28,-0.56,-0.07
1618,1782565969448,0.28,-0.56,-0.07
1619,1782565969481,0.28,-0.56,-0.07
1620,1782565969531,0.28,-0.56,-0.07
1621,1782565969581,0.35,-0.56,-0.07
1622,1782565969631,0.35,-0.56,0
1623,1782565969681,0.35,-0.56,0
1624,1782565969731,0.35,-0.63,0
1625,1782565969781,-0.21,-0.21,-0.07
1626,1782565969848,-0.28,-0.14,-0.07
1627,1782565969897,-0.28,-0.07,-0.14
1628,1782565969930,-0.28,-0.07,-0.14
1629,1782565969948,-0.07,-0.07,-0.14
1630,1782565969964,0.28,-0.14,-0.14
1631,1782565969997,0.28,-0.63,0
1632,1782565970014,0.28,-0.7,0
1633,1782565970064,0.07,-0.98,0.14
1634,1782565970097,0.07,-1.05,0.14
1635,1782565970131,0.28,-0.7,-0.21
1636,1782565970198,0.28,-0.7,-0.21
1637,1782565970231,0.35,-0.7,-0.14
1638,1782565970281,0.35,-0.7,-0.14
1639,1782565970347,0.35,-0.63,0
1640,1782565970397,0.28,-0.63,0.07
1641,1782565970447,0.28,-0.56,0.07
1642,1782565970547,0.21,-0.56,-0.07
1643,1782565970598,0.28,-0.56,0
1644,1782565970630,0.35,-0.56,0
1645,1782565970647,0.35,-0.56,0
1646,1782565970680,0.35,-0.63,0
1647,1782565970697,0.42,-0.63,0
1648,1782565970730,0.42,-0.63,-0.07
1649,1782565970780,0.35,-0.56,-0.07
1650,1782565970830,0.28,-0.56,-0.07
1651,1782565970880,0.28,-0.56,-0.07
1652,1782565970930,0.28,-0.56,-0.07
1653,1782565970997,0.28,-0.56,-0.07
1654,1782565971047,0.28,-0.49,-0.07
1655,1782565971096,0.21,-0.49,-0.07
1656,1782565971163,0.21,-0.56,-0.14
1657,1782565971246,0.28,-0.56,0
1658,1782565971279,0.28,-0.56,0
1659,1782565971296,0.28,-0.56,-0.14
1660,1782565971330,0.28,-0.56,-0.14
1661,1782565971347,0.28,-0.56,-0.14
1662,1782565971363,0.28,-0.56,-0.07
1663,1782565971430,0.28,-0.56,0
1664,1782565971480,0.28,-0.56,0
1665,1782565971563,0.28,-0.56,0
1666,1782565971629,0.28,-0.56,0
1667,1782565971680,0.28,-0.56,0
1668,1782565971713,0.28,-0.56,0
1669,1782565971779,0.28,-0.56,0
1670,1782565971846,0.28,-0.56,0
1671,1782565971879,0.28,-0.56,0
1672,1782565971946,0.21,-0.63,0
1673,1782565971979,0.35,-0.56,0
1674,1782565972029,0.35,-0.56,0
1675,1782565972046,0.35,-0.49,0
1676,1782565972079,0.28,-0.49,0
1677,1782565972096,0.28,-0.49,0
1678,1782565972113,0.28,-0.49,-0.07
1679,1782565972163,0.28,-0.49,-0.07
1680,1782565972229,0.21,-0.56,-0.07
1681,1782565972296,0.28,-0.56,0
1682,1782565972363,0.21,-0.56,0
1683,1782565972428,0.28,-0.56,-0.07
1684,1782565972495,0.28,-0.56,-0.07
1685,1782565972545,0.28,-0.56,-0.07
1686,1782565972662,0.28,-0.56,-0.07
1687,1782565972711,0.28,-0.56,-0.07
1688,1782565972762,0.21,-0.56,-0.07
1689,1782565972812,0.28,-0.56,-0.07
1690,1782565972862,0.21,-0.49,0
1691,1782565972929,0.21,-0.56,0
1692,1782565972978,0.28,-0.56,0
1693,1782565973078,0.28,-0.56,-0.07
1694,1782565973112,0.28,-0.56,-0.07
1695,1782565973162,0.28,-0.56,-0.07
1696,1782565973211,0.21,-0.56,-0.07
1697,1782565973311,0.28,-0.49,-0.07
1698,1782565973396,0.28,-0.56,0
1699,1782565973445,0.28,-0.49,-0.07
1700,1782565973478,0.28,-0.49,-0.07
1701,1782565973528,0.28,-0.49,-0.07
1702,1782565973578,0.21,-0.49,0
1703,1782565973628,0.21,-0.56,0
1704,1782565973645,0.42,-0.49,-0.07
1705,1782565973678,0.42,-0.56,-0.07
1706,1782565973744,0.42,-0.49,-0.07
1707,1782565973811,0.35,-0.49,-0.07
1708,1782565973861,0.35,-0.49,0
1709,1782565973911,0.28,-0.63,0
1710,1782565974011,0.28,-0.56,0
1711,1782565974028,0.28,-0.56,0
1712,1782565974061,0.28,-0.56,-0.07
1713,1782565974127,0.28,-0.56,-0.07
1714,1782565974194,0.28,-0.56,0
1715,1782565974388,0.28,-0.56,0
1716,1782565974388,0.28,-0.56,0
1717,1782565974388,0.28,-0.56,0
1718,1782565974388,0.28,-0.56,0
1719,1782565974388,0.28,-0.56,0
1720,1782565974393,0.28,-0.56,0
1721,1782565974445,0.28,-0.56,0
1722,1782565974460,0.28,-0.56,-0.14
1723,1782565974527,0.28,-0.63,-0.14
1724,1782565974544,0.28,-0.63,-0.14
1725,1782565974577,0.28,-0.63,-0.07
1726,1782565974593,0.28,-0.63,0.07
1727,1782565974627,0.28,-0.63,0.07
1728,1782565974660,0.28,-0.63,0.07
1729,1782565974727,0.28,-0.63,0.07
1730,1782565974777,0.28,-0.56,0.07
1731,1782565974827,0.35,-0.56,-0.07
1732,1782565974894,0.35,-0.56,-0.07
1733,1782565974993,0.35,-0.56,-0.07
1734,1782565975110,0.28,-0.56,-0.14
1735,1782565975176,0.28,-0.56,-0.14
1736,1782565975226,0.28,-0.56,-0.14
1737,1782565975276,0.28,-0.49,-0.14
1738,1782565975326,0.28,-0.49,-0.14
1739,1782565975377,0.21,-0.63,0.07
1740,1782565975427,0.28,-0.63,0
1741,1782565975477,0.28,-0.63,0
1742,1782565975526,0.28,-0.63,0
1743,1782565975610,0.14,-0.63,0
1744,1782565975643,0.14,-0.56,-0.07
1745,1782565975676,0.35,-0.49,0.07
1746,1782565975726,0.35,-0.42,0.14
1747,1782565975793,0.21,-0.49,0.07
1748,1782565975826,0.35,-0.63,0.07
1749,1782565975893,0.35,-0.63,0.07
1750,1782565975926,0.35,-0.56,0
1751,1782565976059,0.21,-0.56,-0.14
1752,1782565976126,0.21,-0.56,-0.14
1753,1782565976159,0.21,-0.56,-0.14
1754,1782565976292,0.28,-0.63,-0.07
1755,1782565976342,0.28,-0.63,-0.14
1756,1782565976409,0.28,-0.56,-0.14
1757,1782565976559,0,-0.56,-0.14
1758,1782565976609,0,-0.63,-0.14
1759,1782565976659,0.42,-0.63,-0.14
1760,1782565976742,0.42,-0.56,-0.14
1761,1782565976809,0.35,-0.35,-0.21
1762,1782565976858,0.35,-0.35,-0.21
1763,1782565976892,0.35,-0.35,-0.14
1764,1782565976959,0.28,-0.42,-0.07
1765,1782565977008,0.21,-0.42,0
1766,1782565977075,0.21,-0.56,0.07
1767,1782565977125,0.28,-0.56,-0.21
1768,1782565977175,0.28,-0.56,-0.21
1769,1782565977242,0.28,-0.63,-0.21
1770,1782565977291,0.28,-0.63,-0.28
1771,1782565977341,0.42,-0.63,-0.35
1772,1782565977391,0.42,-0.63,-0.35
1773,1782565977408,0.28,-0.56,-0.07
1774,1782565977458,0.14,-0.56,-0.07
1775,1782565977508,0.14,-0.56,-0.07
1776,1782565977575,0.14,-0.56,-0.07
1777,1782565977658,0.14,-0.56,-0.07
1778,1782565977691,0.28,-0.63,-0.07
1779,1782565977774,0.07,-0.77,-0.07
1780,1782565977841,0.07,-0.77,-0.07
1781,1782565977874,0.07,-0.77,-0.07
1782,1782565977941,0.49,-0.56,-0.14
1783,1782565978090,0.14,-0.56,0
1784,1782565978124,0.14,-0.56,0
1785,1782565978240,0.28,-0.56,-0.35
1786,1782565978324,0.42,-0.56,-0.14
1787,1782565978390,0.42,-0.49,-0.07
1788,1782565978457,0.28,-0.49,-0.07
1789,1782565978490,0.21,-0.49,0
1790,1782565978524,0.28,-0.56,0.07
1791,1782565978590,0.35,-0.56,0.07
1792,1782565978640,0.35,-0.56,0
1793,1782565978690,0.21,-0.56,0
1794,1782565978773,0.21,-0.7,-0.07
1795,1782565978840,0.28,-0.56,-0.07
1796,1782565978907,0.28,-0.63,0
1797,1782565978956,0.28,-0.63,0
1798,1782565979040,0.28,-0.63,0
1799,1782565979090,0.28,-0.63,0
1800,1782565979106,0.35,-0.42,0
1801,1782565979173,0.35,-0.42,0
1802,1782565979307,0.35,-0.42,0
1803,1782565979356,0.35,-0.42,0
1804,1782565979422,0.35,-0.49,0
1805,1782565979473,0.35,-0.49,0
1806,1782565979523,0.35,-0.49,0
1807,1782565979589,0.28,-0.49,0
1808,1782565979639,0.28,-0.49,0.07
1809,1782565979689,0.28,-0.49,0.14
1810,1782565979740,0.35,-0.56,0.07
1811,1782565979773,0.35,-0.56,0
1812,1782565979839,0.35,-0.56,0.14
1813,1782565979923,0.35,-0.56,0
1814,1782565979940,0.35,-0.56,0
1815,1782565979990,0.35,-0.56,0
1816,1782565980039,0.28,-0.63,0.14
1817,1782565980123,0.28,-0.42,0.14
1818,1782565980155,0.21,-0.63,0.14
1819,1782565980206,0.21,-0.42,0.14
1820,1782565980272,0.21,-0.42,0.14
1821,1782565980306,0.14,-0.7,-0.21
1822,1782565980339,0.14,-0.63,-0.21
1823,1782565980355,0.28,-0.63,-0.21
1824,1782565980405,0.28,-0.56,-0.14
1825,1782565980522,0.28,-0.35,0.07
1826,1782565980589,0.28,-0.7,-0.14
1827,1782565980622,0.28,-0.7,-0.07
1828,1782565980639,0.28,-0.7,-0.07
1829,1782565980656,0.28,-0.63,-0.07
1830,1782565980688,0.28,-0.63,-0.07
1831,1782565980705,0.28,-0.56,-0.07
1832,1782565980772,0.28,-0.56,-0.07
1833,1782565980822,0.28,-0.56,-0.07
1834,1782565980955,0.28,-0.49,-0.07
1835,1782565981055,0.28,-0.49,-0.07
1836,1782565981105,0.28,-0.49,-0.07
1837,1782565981205,0.28,-0.56,0
1838,1782565981239,0.28,-0.56,-0.07
1839,1782565981271,0.28,-0.56,-0.07
1840,1782565981305,0.28,-0.56,-0.07
1841,1782565981372,0.28,-0.56,-0.07
1842,1782565981405,0.28,-0.56,-0.07
1843,1782565981438,0.28,-0.56,-0.07
1844,1782565981471,0.28,-0.56,-0.07
1845,1782565981505,0.28,-0.63,-0.07
1846,1782565981538,0.28,-0.63,-0.07
1847,1782565981571,0.35,-0.56,-0.07
1848,1782565981638,0.35,-0.56,-0.07
1849,1782565981721,0.28,-0.56,-0.07
1850,1782565981738,0.28,-0.56,-0.07
1851,1782565981755,0.28,-0.56,0
1852,1782565981788,0.28,-0.49,0
1853,1782565981804,0.28,-0.49,0
1854,1782565981837,0.28,-0.63,0
1855,1782565981905,0.28,-0.49,0
1856,1782565982021,0.28,-0.49,0
1857,1782565982071,0.28,-0.56,0
1858,1782565982121,0.28,-0.56,-0.07
1859,1782565982187,0.28,-0.56,-0.07
1860,1782565982237,0.28,-0.56,-0.07
1861,1782565982287,0.28,-0.56,-0.07
1862,1782565982338,0.28,-0.56,-0.07
1863,1782565982404,0.28,-0.56,0
1864,1782565982437,0.28,-0.56,0
1865,1782565982504,0.28,-0.56,0
1866,1782565982620,0.35,-0.56,0
1867,1782565982720,0.28,-0.56,0
1868,1782565990913,0.07,-0.56,-0.07
1869,1782565990963,0.07,-0.56,-0.07
1870,1782565991030,0.07,-0.56,-0.07
1871,1782565991080,0.28,-0.56,-0.07
1872,1782565991130,0.35,-0.56,-0.07
1873,1782565991180,0.35,-0.56,-0.07
1874,1782565991247,0.21,-0.56,-0.07
1875,1782565991263,0.21,-0.49,-0.07
1876,1782565991280,0.21,-0.49,-0.07
1877,1782565991314,0.28,-0.49,-0.07
1878,1782565991330,0.28,-0.49,0
1879,1782565991363,0.28,-0.49,-0.07
1880,1782565991412,0.28,-0.56,-0.07
1881,1782565991463,0.28,-0.56,0
1882,1782565991513,0.28,-0.56,-0.07
1883,1782565991563,0.28,-0.56,-0.07
1884,1782565991616,0.14,-0.63,0
1885,1782565991679,0.28,-0.63,0
1886,1782565991729,0.35,-0.56,0
1887,1782565991796,0.35,-0.49,0
1888,1782565991829,0.35,-0.49,0
1889,1782565991846,0.28,-0.49,0
1890,1782565991862,0.21,-0.49,0
1891,1782565991896,0.21,-0.49,-0.07
1892,1782565991913,0.21,-0.49,-0.07
1893,1782565991963,0.21,-0.49,-0.07
1894,1782565992013,0.28,-0.56,-0.07
1895,1782565992079,0.21,-0.56,0
1896,1782565992112,0.21,-0.63,0
1897,1782565992162,0.21,-0.63,0
1898,1782565992229,0.21,-0.56,0
1899,1782565992279,0.28,-0.56,0
1900,1782565992329,0.28,-0.56,0
1901,1782565992379,0.28,-0.56,0
1902,1782565992429,0.28,-0.56,0
1903,1782565992462,0.28,-0.49,-0.07
1904,1782565992479,0.28,-0.56,-0.07
1905,1782565992512,0.28,-0.56,-0.07
1906,1782565992529,0.28,-0.56,-0.07
1907,1782565992562,0.28,-0.56,-0.07
1908,1782565992612,0.28,-0.63,0
1909,1782565992662,0.28,-0.63,0
1910,1782565992695,0.28,-0.63,0
1911,1782565992779,0.21,-0.56,0
1912,1782565992845,0.21,-0.56,0
1913,1782565992895,0.28,-0.56,0
1914,1782565992945,0.28,-0.56,0
1915,1782565992995,0.28,-0.56,-0.07
1916,1782565993113,0.28,-0.56,-0.07
1917,1782565993129,0.28,-0.56,-0.07
1918,1782565993179,0.28,-0.56,-0.07
1919,1782565993261,0.28,-0.56,-0.07
1920,1782565993512,0.35,-0.56,-0.07
1921,1782565993515,0.28,-0.56,-0.07
1922,1782565993528,0.28,-0.56,-0.07
1923,1782565993528,0.28,-0.56,-0.07
1924,1782565993544,0.28,-0.56,-0.07
1925,1782565993594,0.28,-0.56,-0.07
1926,1782565993628,0.28,-0.56,-0.07
1927,1782565993644,0.28,-0.56,-0.07
1928,1782565993678,0.28,-0.56,-0.07
1929,1782565993711,0.28,-0.56,0
1930,1782565993778,0.28,-0.56,-0.07
1931,1782565993811,0.28,-0.56,-0.07
1932,1782565993878,0.28,-0.56,-0.07
1933,1782565993927,0.28,-0.56,0
1934,1782565993994,0.28,-0.56,0
1935,1782565994094,0.28,-0.56,0
1936,1782565994161,0.28,-0.56,0
1937,1782565994211,0.28,-0.56,0
1938,1782565994261,0.28,-0.56,0
1939,1782565994311,0.28,-0.56,0
1940,1782565994328,0.28,-0.49,0
1941,1782565994360,0.28,-0.49,0
1942,1782565994377,0.28,-0.49,0
1943,1782565994394,0.28,-0.49,0
1944,1782565994427,0.28,-0.56,0
1945,1782565994494,0.35,-0.56,-0.07
1946,1782565994543,0.28,-0.56,-0.07
1947,1782565994577,0.28,-0.56,-0.07
1948,1782565994611,0.28,-0.56,-0.07
1949,1782565994644,0.28,-0.56,-0.07
1950,1782565994660,0.28,-0.56,-0.07
1951,1782565994743,0.28,-0.56,-0.07
1952,1782565994776,0.28,-0.56,0
1953,1782565994843,0.28,-0.56,0
1954,1782565994876,0.28,-0.56,0
1955,1782565994910,0.28,-0.56,0
1956,1782565994943,0.28,-0.49,0
1957,1782565994961,0.28,-0.49,-0.07
1958,1782565994977,0.28,-0.49,-0.07
1959,1782565995010,0.28,-0.56,-0.07
1960,1782565995027,0.28,-0.49,-0.07
1961,1782565995160,0.28,-0.56,-0.07
1962,1782565995193,0.28,-0.56,-0.07
1963,1782565995227,0.28,-0.56,-0.07
1964,1782565995243,0.28,-0.56,-0.07
1965,1782565995259,0.28,-0.56,-0.07
1966,1782565995293,0.28,-0.56,-0.07
1967,1782565995360,0.28,-0.56,0
1968,1782565995410,0.28,-0.49,-0.07
1969,1782565995459,0.28,-0.49,0
1970,1782565995493,0.28,-0.49,0
1971,1782565995560,0.28,-0.49,0
1972,1782565995593,0,-0.63,-0.14
1973,1782565995643,0.07,-0.63,-0.14
1974,1782565995710,0.21,-0.63,-0.07
1975,1782565995743,0.42,-0.63,-0.07
1976,1782565995776,0.42,-0.56,-0.07
1977,1782565995809,0.42,-0.49,-0.07
1978,1782565995942,0.28,-0.49,0
1979,1782565996042,0.28,-0.49,-0.07
1980,1782565996076,0.28,-0.49,-0.07
1981,1782565996109,0.28,-0.49,-0.07
1982,1782565996208,0.28,-0.56,-0.07
1983,1782565996292,0.28,-0.56,-0.07
1984,1782565996343,0.28,-0.56,-0.07
1985,1782565996409,0.28,-0.56,0
1986,1782565996442,0.28,-0.56,0
1987,1782565996509,0.28,-0.56,0
1988,1782565996558,0.28,-0.56,-0.07
1989,1782565996625,0.28,-0.56,-0.07
1990,1782565996659,0.28,-0.56,-0.07
1991,1782565996675,0.28,-0.56,-0.07
1992,1782565996692,0.21,-0.56,-0.07
1993,1782565996725,0.21,-0.56,-0.07
1994,1782565996758,0.21,-0.56,0
1995,1782565996875,0.28,-0.56,0
1996,1782565996908,0.28,-0.56,0
1997,1782565997008,0.28,-0.56,0
1998,1782565997042,0.28,-0.56,0
1999,1782565997108,0.28,-0.56,0
2000,1782565997125,0.28,-0.56,0
2001,1782565997142,0.35,-0.56,0
2002,1782565997175,0.35,-0.63,0
2003,1782565997241,0.35,-0.63,-0.07
2004,1782565997308,0.35,-0.63,-0.07
2005,1782565997308,0.14,-0.63,0
2006,1782565997375,0.21,-0.56,0
2007,1782565997441,0.21,-0.56,0
2008,1782565997475,0.28,-0.56,0
2009,1782565997508,0.28,-0.56,0
2010,1782565997558,0.28,-0.56,0
2011,1782565997624,0.35,-0.56,-0.07
2012,1782565997707,0.35,-0.56,-0.07
2013,1782565997757,0.35,-0.56,-0.07
2014,1782565997775,0.35,-0.49,0
2015,1782565997791,0.35,-0.49,0
2016,1782565997824,0.35,-0.49,0
2017,1782565997841,0.35,-0.56,0
2018,1782565997891,0.35,-0.56,0
2019,1782565997891,0.28,-0.56,-0.07
2020,1782565997957,0.28,-0.56,-0.07
2021,1782565997974,0.28,-0.56,-0.07
2022,1782565998024,0.28,-0.56,-0.07
2023,1782565998057,0.28,-0.56,-0.07
2024,1782565998090,0.28,-0.56,-0.07
2025,1782565998274,0.21,-0.56,-0.07
2026,1782565998290,0.21,-0.63,-0.07
2027,1782565998307,0.21,-0.63,-0.07
2028,1782565998340,0.21,-0.63,-0.07
2029,1782565998358,0.21,-0.56,-0.07
2030,1782565998390,0.28,-0.56,-0.07
2031,1782565998491,0.35,-0.56,0
2032,1782565998523,0.28,-0.56,0
2033,1782565998540,0.28,-0.56,0
2034,1782565998573,0.28,-0.56,0
2035,1782565998590,0.28,-0.56,0
2036,1782565998757,0.35,-0.56,0
2037,1782565998806,0.35,-0.56,0
2038,1782565998824,0.35,-0.56,0
2039,1782565998857,0.28,-0.56,0
2040,1782565998873,0.28,-0.56,0
2041,1782565998891,0.28,-0.49,0
2042,1782565998990,0.28,-0.56,-0.07
2043,1782565999040,0.28,-0.56,-0.07
2044,1782565999107,0.35,-0.56,-0.07
2045,1782565999156,0.35,-0.56,-0.07
2046,1782565999256,0.28,-0.49,-0.07
2047,1782565999307,0.28,-0.49,-0.07
2048,1782565999373,0.28,-0.56,0
2049,1782565999423,0.21,-0.56,0
2050,1782565999472,0.21,-0.56,0
2051,1782565999522,0.21,-0.56,0
2052,1782565999590,0.21,-0.63,0
2053,1782565999706,0.28,-0.56,-0.07
2054,1782565999739,0.28,-0.56,-0.07
2055,1782565999806,0.35,-0.56,-0.07
2056,1782565999856,0.35,-0.49,-0.07
2057,1782565999955,0.28,-0.56,0
2058,1782565999973,0.35,-0.56,0
2059,1782566000039,0.28,-0.56,0
2060,1782566000106,0.28,-0.56,0
2061,1782566000155,0.35,-0.56,0
2062,1782566000189,0.35,-0.56,0
2063,1782566000239,0.28,-0.63,0
2064,1782566000289,0.28,-0.56,0
2065,1782566000338,0.28,-0.56,0
2066,1782566000406,0.28,-0.56,0
2067,1782566000440,0.28,-0.56,0
2068,1782566000488,0.35,-0.56,0
2069,1782566000522,0.35,-0.56,0
2070,1782566000555,0.35,-0.56,0
2071,1782566000756,0.35,-0.56,-0.07
2072,1782566000822,0.35,-0.56,-0.07
2073,1782566000938,0.35,-0.63,-0.07
2074,1782566001005,0.35,-0.63,-0.07
2075,1782566001039,0.35,-0.56,-0.07
2076,1782566001055,0.21,-0.56,-0.07
2077,1782566001072,0.21,-0.56,-0.07
2078,1782566001105,0.21,-0.56,-0.07
2079,1782566001138,0.28,-0.56,-0.07
2080,1782566001205,0.28,-0.63,-0.07
2081,1782566001254,0.28,-0.63,-0.07
2082,1782566001321,0.28,-0.56,-0.07
2083,1782566001388,0.28,-0.56,-0.07
2084,1782566001438,0.28,-0.49,-0.07
2085,1782566001488,0.28,-0.49,-0.07
2086,1782566001554,0.28,-0.49,-0.07
2087,1782566001604,0.28,-0.49,0
2088,1782566001655,0.28,-0.49,0
2089,1782566001871,0.28,-0.56,0
2090,1782566001938,0.28,-0.56,0
2091,1782566002054,0.28,-0.56,-0.07
2092,1782566002104,0.28,-0.56,-0.07
2093,1782566002154,0.28,-0.56,-0.07
2094,1782566002205,0.28,-0.56,-0.07
2095,1782566002254,0.28,-0.49,-0.07
2096,1782566002270,0.28,-0.56,0
2097,1782566002321,0.28,-0.56,0
2098,1782566002388,0.28,-0.56,0
2099,1782566002421,0.28,-0.56,-0.07
2100,1782566002520,0.28,-0.56,-0.07
2101,1782566002620,0.28,-0.56,-0.07
2102,1782566002670,0.21,-0.56,-0.07
2103,1782566002721,0.21,-0.56,-0.07
2104,1782566002770,0.21,-0.56,-0.07
2105,1782566002820,0.21,-0.56,0
2106,1782566002854,0.28,-0.56,-0.07
2107,1782566002904,0.28,-0.56,-0.07
2108,1782566002971,0.28,-0.56,-0.07
2109,1782566003020,0.21,-0.49,-0.07
2110,1782566003086,0.21,-0.49,-0.07
2111,1782566003337,0.28,-0.56,-0.07
2112,1782566003437,0.35,-0.56,-0.07
2113,1782566003470,0.35,-0.56,-0.07
2114,1782566003587,0.28,-0.49,-0.07
2115,1782566003636,0.28,-0.49,-0.07
2116,1782566003653,0.21,-0.49,-0.07
2117,1782566003720,0.21,-0.56,-0.07
2118,1782566003770,0.14,-0.56,-0.07
2119,1782566003837,0.21,-0.56,-0.07
2120,1782566003886,0.21,-0.56,-0.07
2121,1782566003952,0.21,-0.56,-0.07
2122,1782566004003,0.42,-0.56,-0.07
2123,1782566004053,0.42,-0.56,-0.07
2124,1782566004119,0.42,-0.56,-0.07
2125,1782566004136,0.42,-0.56,-0.07
2126,1782566004169,0.35,-0.56,-0.07
2127,1782566004186,0.35,-0.63,-0.07
2128,1782566004202,0.28,-0.63,0
2129,1782566004236,0.35,-0.63,0
2130,1782566004526,0.21,-0.49,0
2131,1782566004529,0.21,-0.49,0
2132,1782566004535,0.21,-0.49,0
2133,1782566004535,0.21,-0.56,-0.07
2134,1782566004536,0.28,-0.56,-0.07
2135,1782566004536,0.28,-0.56,-0.14
2136,1782566004568,0.35,-0.56,-0.07
2137,1782566004602,0.42,-0.56,0
2138,1782566004668,0.42,-0.56,0
2139,1782566004702,0.42,-0.56,0
2140,1782566004718,0.28,-0.56,0
2141,1782566004752,0.28,-0.56,0
2142,1782566004769,0.28,-0.56,-0.07
2143,1782566004785,0.28,-0.56,0
2144,1782566004868,0.28,-0.63,-0.07
2145,1782566004885,0.28,-0.63,-0.07
2146,1782566004918,0.28,-0.63,-0.07
2147,1782566005035,0.28,-0.56,-0.07
2148,1782566005102,0.28,-0.49,0
2149,1782566005152,0.21,-0.63,-0.07
2150,1782566005185,0.21,-0.63,-0.07
2151,1782566005219,0.28,-0.63,-0.07
2152,1782566005234,0.28,-0.56,-0.07
2153,1782566005252,0.28,-0.49,-0.07
2154,1782566005284,0.35,-0.49,0
2155,1782566005318,0.28,-0.49,0
2156,1782566005369,0.28,-0.49,0
2157,1782566005435,0.28,-0.56,0
2158,1782566005518,0.21,-0.56,-0.07
2159,1782566005601,0.21,-0.56,-0.07
2160,1782566005667,0.21,-0.56,-0.07
2161,1782566005734,0.28,-0.56,-0.07
2162,1782566005817,0.28,-0.56,-0.07
2163,1782566005852,0.28,-0.56,-0.07
2164,1782566005868,0.21,-0.56,-0.07
2165,1782566005902,0.28,-0.56,-0.07
2166,1782566005917,0.28,-0.56,-0.07
2167,1782566005968,0.28,-0.56,-0.07
2168,1782566006052,0.21,-0.63,-0.07
2169,1782566006118,0.28,-0.56,0
2170,1782566006134,0.28,-0.56,0
2171,1782566006151,0.28,-0.56,0
2172,1782566006184,0.28,-0.56,0
2173,1782566006219,0.28,-0.56,0
2174,1782566006283,0.28,-0.56,0
2175,1782566006301,0.21,-0.56,0
2176,1782566006318,0.35,-0.56,0
2177,1782566006351,0.35,-0.56,0
2178,1782566006383,0.28,-0.56,0
2179,1782566006433,0.28,-0.56,0
2180,1782566006501,0.35,-0.56,0
2181,1782566006551,0.35,-0.56,0
2182,1782566006600,0.35,-0.56,0
2183,1782566006700,0.35,-0.56,0
2184,1782566006734,0.35,-0.56,0
2185,1782566006800,0.35,-0.56,0
2186,1782566006867,0.35,-0.56,0
2187,1782566006900,0.28,-0.63,0
2188,1782566006934,0.28,-0.49,-0.07
2189,1782566006984,0.28,-0.49,-0.07
2190,1782566007133,0.28,-0.49,-0.07
2191,1782566007167,0.28,-0.49,-0.07
2192,1782566007250,0.28,-0.56,-0.07
2193,1782566007300,0.28,-0.56,-0.07
2194,1782566007350,0.28,-0.56,-0.07
2195,1782566007416,0.28,-0.56,-0.07
2196,1782566007466,0.35,-0.56,-0.07
2197,1782566007517,0.28,-0.56,-0.07
2198,1782566007566,0.28,-0.49,-0.07
2199,1782566007649,0.28,-0.56,-0.07
2200,1782566007700,0.28,-0.56,0
2201,1782566007749,0.21,-0.56,-0.07
2202,1782566007766,0.28,-0.56,0
2203,1782566007916,0.28,-0.56,0
2204,1782566007950,0.28,-0.56,-0.07
2205,1782566008016,0.35,-0.56,-0.07
2206,1782566008066,0.28,-0.56,-0.07
2207,1782566008166,0.28,-0.56,-0.14
2208,1782566008232,0.28,-0.63,-0.14
2209,1782566008283,0.28,-0.63,-0.14
2210,1782566008299,0.28,-0.56,-0.07
2211,1782566008332,0.28,-0.56,-0.07
2212,1782566008382,0.28,-0.56,-0.07
2213,1782566008432,0.28,-0.56,-0.07
2214,1782566008482,0.28,-0.56,-0.07
2215,1782566008599,0.21,-0.56,-0.07
2216,1782566008665,0.21,-0.56,-0.07
2217,1782566008720,0.21,-0.56,0
2218,1782566008765,0.21,-0.56,0
2219,1782566008815,0.21,-0.56,0
2220,1782566008899,0.35,-0.56,0
2221,1782566008949,0.28,-0.56,-0.07
2222,1782566008982,0.28,-0.56,0
2223,1782566009032,0.28,-0.49,0
2224,1782566009098,0.21,-0.56,0
2225,1782566009149,0.28,-0.56,-0.07
2226,1782566009186,0.28,-0.56,0
2227,1782566009248,0.35,-0.56,-0.07
2228,1782566009315,0.35,-0.56,-0.07
2229,1782566009365,0.35,-0.56,-0.07
2230,1782566009398,0.28,-0.56,0
2231,1782566009465,0.28,-0.56,0
2232,1782566009498,0.28,-0.56,0
2233,1782566009531,0.28,-0.56,-0.07
2234,1782566009581,0.28,-0.56,-0.07
2235,1782566009647,0.21,-0.56,-0.07
2236,1782566009697,0.21,-0.49,0
2237,1782566009748,0.21,-0.49,0
2238,1782566009848,0.42,-0.49,-0.07
2239,1782566009914,0.42,-0.56,0
2240,1782566009997,0.42,-0.56,0
2241,1782566010047,0.35,-0.56,0
2242,1782566010080,0.28,-0.56,-0.14
2243,1782566010197,0.28,-0.56,-0.14
2244,1782566010247,0.28,-0.56,-0.14
2245,1782566010397,0.42,-0.49,0.07
2246,1782566010480,0.28,-0.56,0.07
2247,1782566010564,0.21,-0.56,-0.07
2248,1782566010630,0.14,-0.63,0
2249,1782566010697,0.14,-0.63,0
2250,1782566010747,0.14,-0.63,-0.07
2251,1782566010781,0.28,-0.56,-0.07
2252,1782566010830,0.28,-0.56,-0.07
2253,1782566010913,0.21,-0.49,0.07
2254,1782566010963,0.21,-0.49,-0.14
2255,1782566011013,0.21,-0.49,-0.21
2256,1782566011079,0.21,-0.56,-0.21
2257,1782566011130,0.21,-0.56,-0.21
2258,1782566011196,0.42,-0.56,-0.21
2259,1782566011246,0.98,0,0.14
2260,1782566011296,0.91,0.21,0.14
2261,1782566011363,0.49,0.21,0.14
2262,1782566011413,0.49,0.21,0.07
2263,1782566011430,0.49,0.21,0
2264,1782566011446,0.49,-0.14,-0.14
2265,1782566011479,0.42,-0.84,-0.21
2266,1782566011563,0.56,-0.21,0.21
2267,1782566011580,0.56,-0.21,0.21
2268,1782566011596,0.42,-0.28,0.21
2269,1782566011629,0.14,-0.35,0.07
2270,1782566011662,0.14,-0.49,0
2271,1782566011745,0.14,-0.77,-0.07
2272,1782566011829,0.14,-0.77,-0.14
2273,1782566011879,0.21,-0.49,-0.07
2274,1782566011946,0.21,-0.56,-0.07
2275,1782566011962,0.21,-0.63,-0.07
2276,1782566012012,0.21,-0.63,-0.14
2277,1782566012079,0.21,-0.63,-0.14
2278,1782566012096,0.28,-0.56,0.07
2279,1782566012129,0.21,-0.42,0.07
2280,1782566012212,0.14,-0.42,0.07
2281,1782566012246,0.21,-0.56,0.07
2282,1782566012279,0.21,-0.56,0.07
2283,1782566012295,0.21,-0.63,0
2284,1782566012345,0.42,-0.63,0
2285,1782566012445,0.28,-0.56,-0.07
2286,1782566012479,0.28,-0.56,-0.07
2287,1782566012512,0.28,-0.49,-0.07
2288,1782566012529,0.28,-0.49,-0.07
2289,1782566012562,0.28,-0.56,-0.07
2290,1782566012579,0.35,-0.56,-0.07
2291,1782566012629,0.35,-0.56,-0.07
2292,1782566012678,0.28,-0.49,-0.14
2293,1782566012728,0.28,-0.56,-0.14
2294,1782566012761,0.28,-0.56,-0.07
2295,1782566012795,0.28,-0.56,-0.07
2296,1782566012812,0.28,-0.56,-0.07
2297,1782566012845,0.28,-0.56,0
2298,1782566012911,0.28,-0.63,0
2299,1782566012962,0.28,-0.49,-0.07
2300,1782566012979,0.28,-0.56,-0.07
2301,1782566012995,0.28,-0.63,-0.07
2302,1782566013028,0.21,-0.63,-0.07
2303,1782566013095,0.21,-0.63,-0.07
2304,1782566013178,0.28,-0.63,-0.07
2305,1782566013245,0.28,-0.56,0
2306,1782566013294,0.28,-0.56,0
2307,1782566013328,0.28,-0.56,0
2308,1782566013344,0.28,-0.56,-0.07
2309,1782566013395,0.28,-0.56,-0.07
2310,1782566013494,0.28,-0.56,0
2311,1782566013544,0.28,-0.49,0
2312,1782566013594,0.21,-0.49,-0.07
2313,1782566013644,0.21,-0.49,-0.07
2314,1782566013661,0.21,-0.49,-0.07
2315,1782566013678,0.21,-0.49,-0.07
2316,1782566013712,0.21,-0.56,-0.07
2317,1782566013794,0.21,-0.63,-0.07
2318,1782566013844,0.21,-0.56,-0.07
2319,1782566013911,0.35,-0.63,0
2320,1782566013994,0.35,-0.63,-0.07
2321,1782566014061,0.28,-0.63,-0.07
2322,1782566014111,0.28,-0.56,-0.07
2323,1782566014261,0.28,-0.49,0
2324,1782566014294,0.21,-0.14,0
2325,1782566014360,0.28,0.91,0.07
2326,1782566014411,1.26,2.17,0.07
2327,1782566014444,0.21,-0.84,-0.98
2328,1782566014543,0.21,-1.05,-0.91
2329,1782566014626,0.28,-1.05,-0.84
2330,1782566014677,0.35,-0.98,-0.77
2331,1782566014710,0.63,0.14,-1.54
2332,1782566014727,0.49,-0.07,-1.47
2333,1782566014776,0.35,-0.14,-1.26
2334,1782566014876,0.14,-0.56,-1.19
2335,1782566014927,0.14,-0.91,-1.19
2336,1782566014943,0.42,-1.26,-4.13
2337,1782566014976,0.42,-1.12,-4.48
2338,1782566014994,0.42,-1.05,-4.62
2339,1782566015060,-0.14,-1.05,-4.9
2340,1782566015143,-0.14,-1.05,-5.39
2341,1782566015226,0.63,-1.12,-6.86
2342,1782566015276,-0.07,-0.7,-6.86
2343,1782566015309,-0.28,-0.77,-6.86
2344,1782566015326,-0.28,-0.77,-6.93
2345,1782566015524,-0.28,-0.7,-6.93
2346,1782566015524,0.07,-0.7,-7.07
2347,1782566015542,0.49,-0.49,-7.63
2348,1782566015575,0.49,-0.49,-7.42
2349,1782566015642,0.49,-0.63,-7.35
2350,1782566015709,0.49,-0.84,-7.35
2351,1782566015743,-0.7,-0.91,-8.05
2352,1782566015792,-0.7,-0.77,-8.05
2353,1782566015842,-0.7,-0.77,-8.05
2354,1782566015892,-0.56,-0.7,-8.05
2355,1782566015959,-0.56,-0.56,-8.19
2356,1782566016059,-0.7,-1.12,-9.1
2357,1782566016109,-0.42,-2.31,-9.1
2358,1782566016159,-0.7,-2.31,-8.61
2359,1782566016208,-0.7,-2.31,-8.05
2360,1782566016260,-0.84,-2.31,-7
2361,1782566016325,-0.42,-2.17,-6.16
2362,1782566016375,1.47,-0.14,-6.93
2363,1782566016425,0.49,-0.21,-5.32
2364,1782566016458,0.35,-0.91,-3.57
2365,1782566016491,0.14,-0.84,-1.82
2366,1782566016508,0.14,-0.84,-1.19
2367,1782566016525,0.14,-0.91,-0.63
2368,1782566016691,0.7,-0.21,-1.61
2369,1782566016725,0.7,0.07,-1.19
2370,1782566016842,0.7,0.07,-0.56
2371,1782566016925,-0.14,0.49,3.29
2372,1782566016991,-0.14,0.21,3.29
2373,1782566017041,-0.28,-0.07,3.29
2374,1782566017091,-0.35,-0.07,3.22
2375,1782566017174,-0.63,-2.03,3.01
2376,1782566017224,-0.63,-2.03,2.17
2377,1782566017275,-0.42,-2.03,1.4
2378,1782566017325,0.35,-1.33,1.12
2379,1782566017375,0.84,-1.26,1.12
2380,1782566017458,1.12,0,5.6
2381,1782566017525,1.19,-0.07,6.3
2382,1782566017574,1.12,0,6.93
2383,1782566017658,0.42,-0.07,8.54
2384,1782566017724,0.42,0,8.54
2385,1782566017824,0.35,0,7.98
2386,1782566017858,0.35,-0.77,7.14
2387,1782566017891,0.35,-0.77,6.09
2388,1782566017924,0.35,-1.05,6.79
2389,1782566017974,-0.77,-1.54,5.81
2390,1782566018008,-0.77,-1.96,4.83
2391,1782566018107,-0.77,-1.96,4.48
2392,1782566018141,0.07,-1.96,4.27
2393,1782566018174,0.14,-1.47,4.83
2394,1782566018241,0.56,-1.47,4.34
2395,1782566018290,0.56,-1.4,4.34
2396,1782566018340,0.56,-1.26,4.34
2397,1782566018423,0.63,-1.26,4.34
2398,1782566018440,0.42,0.07,3.92
2399,1782566018490,0.28,-0.14,3.71
2400,1782566018540,0.42,0,3.64
2401,1782566018607,0.42,0,3.57
2402,1782566018673,0.42,-0.07,3.57
2403,1782566018723,0.63,-0.07,3.57
2404,1782566018757,0.63,-0.07,3.43
2405,1782566018790,0.63,-0.07,3.36
2406,1782566018823,-5.18,-3.29,7.21
2407,1782566018840,-5.18,-2.52,4.83
2408,1782566018873,0.21,-2.52,3.36
2409,1782566018956,0.21,-2.52,1.68
2410,1782566019057,0.07,-0.77,6.02
2411,1782566019123,0.07,-1.82,5.46
2412,1782566019206,0.07,-2.1,4.34
2413,1782566019239,0.07,-2.17,3.78
2414,1782566019272,0.14,-2.17,3.78
2415,1782566019289,1.19,-1.82,3.78
2416,1782566019372,0.7,-2.31,7.98
2417,1782566019472,0.7,-1.12,7.98
2418,1782566019523,1.47,0.21,7.98
2419,1782566019589,1.82,-0.28,10.99
2420,1782566019639,1.82,-0.28,10.99
2421,1782566019722,1.61,-0.28,10.92
2422,1782566019806,1.33,-1.05,10.92
2423,1782566019890,2.73,0.35,5.6
2424,1782566019988,2.73,1.12,4.06
2425,1782566020089,0.7,2.1,4.55
2426,1782566020122,0.7,1.47,5.39
2427,1782566020155,0.7,0.98,5.46
2428,1782566020205,1.61,0.56,6.23
2429,1782566020256,3.22,0.56,6.79
2430,1782566020305,3.22,-0.42,6.79
2431,1782566020405,-0.21,-0.91,5.67
2432,1782566020438,-0.28,-0.35,5.11
2433,1782566020505,-0.28,-1.12,4.13
2434,1782566020539,-0.28,-1.12,3.43
2435,1782566020589,-0.21,-0.98,3.01
2436,1782566020605,0.28,-0.49,3.29
2437,1782566020656,0.28,-0.84,3.29
2438,1782566020705,0.28,-0.84,3.29
2439,1782566020738,0.28,-0.84,3.29
2440,1782566020805,0.21,-0.98,3.29
2441,1782566020904,-0.07,-0.84,1.89
2442,1782566020938,0,-0.84,1.4
2443,1782566020988,0.42,-0.84,1.33
2444,1782566021038,0.84,-0.56,1.12
2445,1782566021088,0.84,-0.35,1.12
2446,1782566021105,0.49,-0.35,1.12
2447,1782566021122,0.49,-0.42,1.4
2448,1782566021155,0.35,-0.35,1.54
2449,1782566021171,0.35,-0.42,1.89
2450,1782566021221,0.49,-0.42,2.1
2451,1782566021372,0.28,-0.56,0.07
2452,1782566021454,0.28,-0.56,0.14
2453,1782566021504,0.35,-0.49,-0.42
2454,1782566021538,0.35,-0.49,-0.49
2455,1782566021621,0.28,-0.56,-0.49
2456,1782566021638,0.21,-0.42,-0.49
2457,1782566021670,0.28,-0.49,-0.49
2458,1782566021705,0.21,-0.49,-0.49
2459,1782566021770,0.21,-0.56,-0.7
2460,1782566021954,0.21,-0.56,-0.63
2461,1782566021987,0.21,-0.42,-0.63
2462,1782566022037,0.35,-0.56,-0.28
2463,1782566022088,0.28,-0.56,-0.35
2464,1782566022170,0.28,-0.56,-0.49
2465,1782566022270,0.35,-0.21,-0.07
2466,1782566022370,0.35,-0.56,-0.07
2467,1782566022404,0.35,-0.21,-0.07
2468,1782566022553,0.28,-0.49,-0.07
2469,1782566022604,0.28,-0.56,-0.07
2470,1782566022653,0.28,-0.63,-0.07
2471,1782566022703,0.28,-0.56,-0.07
2472,1782566022770,0.49,-0.91,0.28
2473,1782566022820,0.49,-0.77,0.42
2474,1782566022903,0.07,-0.63,0.42
2475,1782566022936,0.21,-0.63,0.42
2476,1782566023003,0.21,-0.14,0.42
2477,1782566023069,0.49,-0.14,2.38
2478,1782566023120,0.07,0.35,2.1
2479,1782566023169,-0.35,0.35,1.82
2480,1782566023269,0.63,-1.05,0.84
2481,1782566023319,0.49,-1.26,0.49
2482,1782566023386,0.42,-1.26,0.21
2483,1782566023436,0.28,-1.26,0
2484,1782566023486,0.21,-1.05,-0.07
2485,1782566023519,0.07,-0.63,-0.07
2486,1782566023569,0.07,-0.49,-0.07
2487,1782566023586,0.07,-0.42,0.07
2488,1782566023620,0.14,-0.49,-0.42
2489,1782566023635,0.14,-0.49,-0.42
2490,1782566023669,0.14,-0.49,-0.63
2491,1782566023702,0.14,-0.49,-0.63
2492,1782566023769,0.14,-0.56,-0.63
2493,1782566023903,0.28,-0.56,-0.56
2494,1782566023952,0.28,-0.56,-0.56
2495,1782566024035,0.28,-0.56,-0.49
2496,1782566024135,0.35,-0.42,-0.56
2497,1782566024169,0.35,-0.42,-0.42
2498,1782566024235,0.28,-0.42,-0.42
2499,1782566024286,0.28,-0.42,-0.42
2500,1782566024352,0.21,-0.42,-0.35
2501,1782566024402,0.28,-0.49,-0.21
2502,1782566024535,0.28,-0.49,-0.21
2503,1782566024568,0.21,-0.49,-0.21
2504,1782566024635,0.21,-0.49,-0.14
2505,1782566024668,0.28,-0.63,0
2506,1782566024801,0.21,-0.56,0
2507,1782566024851,0.21,-0.42,0
2508,1782566024885,0.28,-0.49,-0.07
2509,1782566024918,0.28,-0.56,-0.07
2510,1782566025001,0.28,-0.63,0.07
2511,1782566025085,0.28,-0.63,0.07
2512,1782566025118,0.35,-0.63,0.07
2513,1782566025168,0.21,-0.63,-0.14
2514,1782566025235,0.21,-0.63,-0.14
2515,1782566025268,0.21,-0.63,-0.14
2516,1782566025301,0.21,-0.63,-0.21
2517,1782566025334,0.21,-0.56,-0.21
2518,1782566025418,-0.56,1.47,-0.56
2519,1782566025501,-1.89,1.47,-0.7
2520,1782566025601,-1.75,0.28,-1.47
2521,1782566025634,0.21,-1.68,3.08
2522,1782566025667,0.21,-1.68,2.94
2523,1782566025734,0.21,-1.68,2.66
2524,1782566025801,0.42,-0.84,2.24
2525,1782566025884,0.42,-0.84,2.17
2526,1782566025950,0.42,-0.63,2.17
2527,1782566026000,0.49,-1.61,6.23
2528,1782566026051,0.42,-1.61,6.44
2529,1782566026117,0.42,-0.56,6.44
2530,1782566026150,0.98,-0.21,6.44
2531,1782566026217,0.98,-0.21,6.23
2532,1782566026284,-1.33,-0.21,5.81
2533,1782566026594,-1.26,-0.21,5.81
2534,1782566026594,-1.26,-0.14,5.25
2535,1782566026600,-0.7,-0.21,2.87
2536,1782566026600,-0.7,0.21,2.87
2537,1782566026734,0.56,-1.54,2.52
2538,1782566026767,0.42,-1.89,3.08
2539,1782566026800,0.42,-0.7,3.08
2540,1782566026816,-0.28,-1.75,3.36
2541,1782566026833,-0.49,-1.75,3.36
2542,1782566026883,-1.26,-1.75,3.78
2543,1782566026933,-1.26,-1.26,3.78
2544,1782566027016,1.12,-0.77,3.22
2545,1782566027166,4.41,-0.63,2.87
2546,1782566027216,4.62,-0.35,2.87
2547,1782566027283,2.03,-2.87,-0.91
2548,1782566027349,0.63,1.54,-1.19
2549,1782566027382,0.63,0.77,-1.4
2550,1782566027499,0.63,-1.05,-2.1
2551,1782566027599,1.19,-0.28,-0.56
2552,1782566027682,1.19,-0.28,-0.56
2553,1782566027783,1.12,-1.12,-0.56
2554,1782566027833,-0.84,3.29,-1.4
2555,1782566027882,-0.84,3.29,-1.12
2556,1782566027932,2.8,3.29,-1.12
2557,1782566027999,3.36,4.62,-1.12
2558,1782566028082,6.93,0.98,-0.7
2559,1782566028150,3.08,0.98,-0.63
2560,1782566028216,-0.84,0.98,-0.63
2561,1782566028282,-3.08,0.98,0.84
2562,1782566028332,-3.08,0.98,1.26
2563,1782566028394,-3.08,1.12,1.26
2564,1782566028415,1.4,-2.17,0.49
2565,1782566028449,1.12,0.91,0.49
2566,1782566028516,0.98,-2.17,0.7
2567,1782566028549,-1.26,-0.63,0.98
2568,1782566028616,-0.7,-0.63,1.26
2569,1782566028748,3.92,-0.77,0.7
2570,1782566028799,3.92,3.92,0.7
2571,1782566028865,3.92,3.92,0.77
2572,1782566028931,-0.21,5.6,1.19
2573,1782566029048,-2.03,7,1.05
2574,1782566029098,-2.03,5.6,0.84
2575,1782566029148,-1.61,2.8,1.82
2576,1782566029164,3.08,6.16,2.94
2577,1782566029198,3.08,-3.57,3.36
2578,1782566029215,-1.61,0.49,2.94
2579,1782566029231,-1.82,-3.5,2.94
2580,1782566029331,-1.82,-3.5,2.94
2581,1782566029497,-6.44,-7.14,4.55
2582,1782566029547,-0.42,-6.51,4.2
2583,1782566029580,8.26,-2.8,3.99
2584,1782566029597,8.26,0.7,3.71
2585,1782566029614,8.26,1.75,3.57
2586,1782566029681,1.33,1.54,6.37
2587,1782566029781,-0.07,1.54,6.86
2588,1782566029847,-0.28,1.54,6.86
2589,1782566029897,-1.19,-0.91,6.86
2590,1782566029914,-1.19,-2.17,6.37
2591,1782566029964,0.07,1.61,6.02
2592,1782566030014,0.07,1.47,5.95
2593,1782566030131,-1.47,1.05,4.41
2594,1782566030181,-2.1,-2.38,3.92
2595,1782566030231,0,0.49,0.7
2596,1782566030297,-1.54,0.49,0.7
2597,1782566030547,3.99,-8.26,-9.73
2598,1782566030563,3.99,-8.26,-12.32
2599,1782566030597,3.99,-7.63,-12.53
2600,1782566030647,5.95,-1.47,-13.3
2601,1782566030696,5.95,2.1,-13.65
2602,1782566030813,5.67,7.14,-19.74
2603,1782566030863,5.67,7.14,-20.3
2604,1782566030914,5.67,1.96,-21.91
2605,1782566030963,2.45,1.96,-21.91
2606,1782566031046,0.14,-9.38,-39.55
2607,1782566031113,-0.21,-0.7,-41.51
2608,1782566031179,-0.21,-2.24,-42.42
2609,1782566031212,-5.95,-0.7,-42.56
2610,1782566031330,-5.46,0.07,-23.24
2611,1782566031346,0.14,1.12,-24.29
2612,1782566031396,2.1,2.87,-26.95
2613,1782566031479,3.5,3.08,-28.91
2614,1782566031529,3.5,2.87,-29.82
2615,1782566031563,-5.88,-2.73,-28.56
2616,1782566031629,-5.88,-2.73,-25.34
2617,1782566031695,-8.19,-2.73,-22.75
2618,1782566031712,-8.19,-3.71,-22.75
2619,1782566031729,-3.57,-3.71,-21.84
2620,1782566031762,2.59,-3.71,-21.84
2621,1782566031862,9.52,4.55,-51.45
2622,1782566031946,11.27,4.55,-51.87
2623,1782566032012,11.27,4.55,-53.69
2624,1782566032079,8.05,0.28,-68.32
2625,1782566032162,8.05,-6.86,-67.69
2626,1782566032212,4.41,-8.68,-61.81
2627,1782566032262,-2.87,-13.86,-53.55
2628,1782566032345,4.48,7.21,-33.74
2629,1782566032412,-5.25,0.56,-27.86
2630,1782566032528,4.48,-0.28,-27.86
2631,1782566032629,-5.53,-10.85,-52.36
2632,1782566032661,-5.53,-10.85,-53.9
2633,1782566032744,2.87,-10.85,-54.95
2634,1782566032811,6.16,-10.64,-56.21
2635,1782566032860,-7.07,-2.24,-48.65
2636,1782566032877,-7.07,-5.53,-48.65
2637,1782566032910,-4.9,-5.74,-48.86
2638,1782566032994,-4.9,-5.74,-49.35
2639,1782566033060,-2.38,-5.74,-51.24
2640,1782566033094,4.69,-1.47,-51.66
2641,1782566033160,-5.46,-1.33,-45.08
2642,1782566033177,-11.41,-6.02,-43.33
2643,1782566033210,-11.41,-6.02,-42.56
2644,1782566033277,-11.41,-8.19,-42.49
2645,1782566033327,-7.14,-6.02,-42.49
2646,1782566033410,1.47,-6.02,-42.49
2647,1782566033511,-3.85,-0.63,-50.89
2648,1782566033543,-3.85,-1.19,-49.63
2649,1782566033593,-3.85,-0.63,-49.63
2650,1782566033643,-2.38,2.31,-50.54
2651,1782566033709,-1.61,-3.92,-50.68
2652,1782566033726,0.28,-3.92,-53.55
2653,1782566033759,13.79,2.87,-55.23
2654,1782566033827,13.79,0.84,-55.86
2655,1782566033860,13.79,0.84,-56.63
2656,1782566033910,11.76,-2.1,-57.89
2657,1782566033943,21.14,-1.89,-59.29
2658,1782566034009,21.14,-6.79,-53.55
2659,1782566034093,3.64,-1.89,-56
2660,1782566034143,-5.11,-6.79,-54.25
2661,1782566034193,-31.36,-1.89,-53.41
2662,1782566034243,-1.96,-1.96,-56.49
2663,1782566034310,-3.29,-1.96,-57.61
2664,1782566034377,-9.94,-1.4,-59.22
2665,1782566034442,-11.27,5.25,-60.69
2666,1782566034527,-11.9,-7.91,-56.7
2667,1782566034593,-12.81,-7.91,-56.7
2668,1782566034660,-12.81,5.95,-56.84
2669,1782566034693,1.96,0.77,-59.15
2670,1782566034709,-9.38,0.77,-59.15
2671,1782566034742,-13.37,3.01,-59.15
2672,1782566034759,-13.37,3.01,-59.15
2673,1782566034775,-9.38,0.77,-58.87
2674,1782566034860,0.98,0.77,-58.66
2675,1782566034926,0.98,-2.59,-58.66
2676,1782566034992,-11.06,3.22,-60.55
2677,1782566035043,-11.06,3.22,-60.55
2678,1782566035059,-10.57,5.46,-60.55
2679,1782566035125,-2.87,5.46,-58.24
2680,1782566035208,-2.1,-2.59,-1.82
2681,1782566035325,2.24,-2.38,-2.31
2682,1782566035392,15.19,-0.14,-2.31
2683,1782566035442,15.19,5.11,-4.13
2684,1782566035476,15.19,5.32,-15.19
2685,1782566035508,-0.84,1.05,-52.01
2686,1782566035542,-1.05,-4.27,-50.54
2687,1782566035609,-10.92,-1.89,-49.77
2688,1782566035658,-10.92,-4.27,-49.14
2689,1782566035692,-10.92,-3.99,-49.14
2690,1782566035708,10.92,-3.99,-49.14
2691,1782566035742,15.68,-3.08,-53.41
2692,1782566035758,15.68,-3.99,-53.41
2693,1782566035791,10.92,-3.99,-53.41
2694,1782566035825,28.35,-5.18,-62.65
2695,1782566035908,25.06,-7.07,-62.23
2696,1782566035942,20.72,-9.59,-62.23
2697,1782566035975,-3.99,-14,-58.87
2698,1782566035991,-8.75,-14,-58.87
2699,1782566036008,-8.75,-17.01,-55.16
2700,1782566036058,-22.75,-17.01,-58.87
2701,1782566036074,18.76,-30.94,-56.77
2702,1782566036158,7.35,-30.94,-56.77
2703,1782566036257,-37.03,-13.3,-64.33
2704,1782566036324,-37.17,-3.78,-64.33
2705,1782566036358,-8.4,-12.74,-58.31
2706,1782566036425,-20.23,-7.21,-58.31
2707,1782566036524,-20.44,-6.93,-60.76
2708,1782566036574,-22.61,-3.92,-60.76
2709,1782566036674,4.62,-7.7,-3.57
2710,1782566036740,4.62,-0.56,-8.47
2711,1782566036841,3.36,5.53,-56.35
2712,1782566036907,-3.01,5.32,-52.43
2713,1782566036924,-8.68,-7.21,-49.21
2714,1782566036941,-8.68,-7.21,-49.21
2715,1782566036975,-8.68,-7.21,-49.21
2716,1782566037007,3.36,-3.57,-52.01
2717,1782566037091,10.78,-16.94,-55.3
2718,1782566037174,17.99,-7.49,-55.72
2719,1782566037240,20.93,-12.95,-63.7
2720,1782566037258,17.99,-7.49,-63.7
2721,1782566037307,17.99,-8.33,-60.34
2722,1782566037323,11.83,-5.53,-60.34
2723,1782566037544,-4.27,-2.66,-62.3
2724,1782566037557,-4.27,-2.66,-61.04
2725,1782566037557,-17.22,-0.42,-58.52
2726,1782566037590,-23.38,-3.08,-57.89
2727,1782566037623,-14.98,5.6,-31.5
2728,1782566037690,-14.98,2.66,-28.42
2729,1782566037756,-9.8,2.66,-25.76
2730,1782566037873,-2.87,2.66,-25.27
2731,1782566037939,6.86,-6.23,-47.6
2732,1782566037973,9.17,-5.95,-47.74
2733,1782566038039,9.17,-5.95,-48.58
2734,1782566038090,9.17,-5.95,-48.58
2735,1782566038139,6.09,-5.95,-49
2736,1782566038206,1.61,-10.57,-49.56
2737,1782566038373,14.21,-6.86,-59.92
2738,1782566038406,26.81,-11.27,-61.11
2739,1782566038439,26.81,-6.86,-52.43
2740,1782566038473,14.21,-11.27,-52.43
2741,1782566038520,21.35,3.22,-55.93
2742,1782566038607,11.55,3.22,-53.06
2743,1782566038690,-7.63,2.87,-52.01
2744,1782566038756,-5.53,-9.59,-45.78
2745,1782566038823,-11.41,-9.59,-46.48
2746,1782566038907,-21.07,-9.59,-47.95
2747,1782566039006,1.89,5.88,-55.09
2748,1782566039073,-2.38,-3.43,-55.09
2749,1782566039173,-8.33,-0.63,-55.09
2750,1782566039239,8.75,-0.42,-59.29
2751,1782566039256,7.98,-0.56,-58.73
2752,1782566039306,4.55,-2.38,-58.73
2753,1782566039373,-1.89,-0.56,-58.73
2754,1782566039390,-2.1,-10.71,-57.05
2755,1782566039439,-12.74,-0.56,-55.93
2756,1782566039506,-20.16,2.03,-61.25
2757,1782566039555,-19.74,1.75,-62.93
2758,1782566039606,-10.71,1.75,-62.93
2759,1782566039722,-9.17,1.75,-62.93
2760,1782566039739,4.06,-1.68,-65.38
2761,1782566039789,-0.7,-0.42,-52.5
2762,1782566039839,-12.95,-0.42,-51.87
2763,1782566039889,-12.95,-0.42,-51.17
2764,1782566040089,1.75,0.56,-35.21
2765,1782566040139,1.75,-2.52,-36.68
2766,1782566040189,1.75,-2.52,-37.94
2767,1782566040272,2.03,2.24,-40.46
2768,1782566040355,-8.12,-1.89,-48.86
2769,1782566040405,-8.12,-19.95,-48.09
2770,1782566040455,-15.54,-1.89,-48.86
2771,1782566040504,-8.12,-22.12,-48.09
2772,1782566040572,0.7,-3.5,-50.75
2773,1782566040588,10.5,-13.86,-52.5
2774,1782566040605,7.07,-3.5,-54.67
2775,1782566040755,-8.4,-4.97,-54.18
2776,1782566040804,-9.24,-4.97,-53.9
2777,1782566040838,-9.24,-6.58,-53.34
2778,1782566040855,-9.24,-4.97,-51.24
2779,1782566040872,-2.45,-9.31,-51.24
2780,1782566040921,-1.68,-3.29,-55.3
2781,1782566040971,-14.28,-3.64,-55.3
2782,1782566041055,-14.28,-3.29,-55.23
2783,1782566041171,-37.94,9.17,-47.53
2784,1782566041221,-34.16,-0.49,-48.93
2785,1782566041271,-30.03,11.13,-48.93
2786,1782566041387,23.31,11.13,-48.93
2787,1782566041421,-5.04,2.59,-54.88
2788,1782566041487,-1.33,5.46,-54.32
2789,1782566041538,7.42,2.59,-52.99
2790,1782566041704,7.63,7.56,-53.69
2791,1782566041737,9.8,-3.78,-53.69
2792,1782566041770,-0.14,6.65,-53.48
2793,1782566041854,-0.14,-12.95,-51.59
2794,1782566041921,5.25,-4.76,-53.06
2795,1782566041970,7.42,-8.54,-47.95
2796,1782566042021,7.49,-4.76,-46.76
2797,1782566042071,7.42,-10.01,-45.99
2798,1782566042087,4.2,-10.01,-45.92
2799,1782566042120,4.2,-10.15,-44.45
2800,1782566042170,-1.54,-5.88,-50.61
2801,1782566042221,-0.7,-5.11,-50.61
2802,1782566042287,0.77,-3.99,-50.4
2803,1782566042353,4.48,-3.99,-50.33
2804,1782566042436,5.04,-0.84,-51.87
2805,1782566042486,15.61,-10.85,-51.87
2806,1782566042554,5.04,2.66,-51.87
2807,1782566042604,2.73,-15.05,-49.77
2808,1782566042687,-13.93,-3.85,-49.77
2809,1782566042737,-34.16,0.77,-61.74
2810,1782566042787,-31.01,0.77,-62.51
2811,1782566042836,-31.01,6.58,-65.03
2812,1782566042903,11.48,8.96,-77.07
2813,1782566042936,13.23,8.96,-79.03
2814,1782566043003,13.23,8.96,-82.04
2815,1782566043036,7.28,1.96,-42.42
2816,1782566043169,7.49,9.8,-41.72
2817,1782566043203,7.49,1.96,-37.31
2818,1782566043253,7.49,1.96,-37.31
2819,1782566043336,13.44,7.84,-23.52
2820,1782566043403,13.44,11.27,-29.75
2821,1782566043535,-17.15,2.31,-37.66
2822,1782566043553,-17.15,2.31,-37.52
2823,1782566043585,3.57,-6.93,-37.38
2824,1782566043620,3.57,-12.95,-37.38
2825,1782566043852,-3.01,-2.59,-43.4
2826,1782566043885,-2.03,-0.56,-42.98
2827,1782566043903,-2.03,-0.56,-42.91
2828,1782566043952,-2.03,-0.56,-41.44
2829,1782566043985,-8.61,-6.16,-39.83
2830,1782566044085,-0.14,-0.63,-21.14
2831,1782566044201,-0.14,-0.07,-21.14
2832,1782566044236,1.47,-0.07,-21.14
2833,1782566044268,1.47,-0.07,-22.89
2834,1782566044302,1.47,-1.4,-22.89
2835,1782566044319,-0.7,-1.4,-25.48
2836,1782566044385,2.03,-2.87,-43.33
2837,1782566044468,2.03,-5.04,-43.33
2838,1782566044568,-9.8,-5.39,-42.49
2839,1782566044618,3.71,4.62,-31.64
2840,1782566044685,-0.77,1.96,-32.13
2841,1782566044735,-0.77,0.84,-32.13
2842,1782566044801,4.34,-2.1,-32.69
2843,1782566044851,0.21,-2.24,-45.01
2844,1782566044918,2.94,0.21,-46.34
2845,1782566044968,3.29,0.49,-48.16
2846,1782566045051,3.29,4.9,-48.3
2847,1782566045085,-1.4,2.03,-45.15
2848,1782566045101,0.7,1.26,-45.5
2849,1782566045117,0.91,1.75,-45.5
2850,1782566045135,0.98,1.75,-45.5
2851,1782566045168,0.98,0.84,-45.15
2852,1782566045201,0.98,-1.82,-44.66
2853,1782566045267,-3.5,-2.24,-44.45
2854,1782566045334,-4.13,-2.73,-44.45
2855,1782566045368,-5.25,-4.97,-44.24
2856,1782566045484,0.7,3.78,-22.96
2857,1782566045567,0,3.78,-21.49
2858,1782566045650,-2.59,1.75,-20.09
2859,1782566045667,-1.89,-0.07,-18.13
2860,1782566045734,-1.89,0.07,-17.5
2861,1782566045751,-1.61,3.22,-16.03
2862,1782566045800,-1.61,3.36,-15.68
2863,1782566045851,-0.14,4.13,-15.61
2864,1782566045917,0,4.13,-15.4
2865,1782566045950,2.52,-1.47,-8.12
2866,1782566046000,2.03,-1.47,-8.12
2867,1782566046084,0.77,-1.47,-8.12
2868,1782566046117,0.7,-3.15,-8.12
2869,1782566046217,-0.28,-1.54,-2.31
2870,1782566046267,-0.28,-2.03,-1.61
2871,1782566046317,-2.31,-2.03,-1.61
2872,1782566046367,-0.28,-2.03,-1.54
2873,1782566046383,0.98,-2.03,-1.12
2874,1782566046434,1.33,-0.42,1.33
2875,1782566046500,0.07,-1.54,1.4
2876,1782566046550,0.07,-2.45,1.47
2877,1782566046617,0.07,-2.45,1.61
2878,1782566046683,1.61,-1.54,2.31
2879,1782566046783,7,-0.28,27.02
2880,1782566046850,7,-1.96,27.02
2881,1782566046900,4.48,-2.17,25.41
2882,1782566046933,0.49,-4.48,22.68
2883,1782566046949,0.14,-3.5,22.19
2884,1782566046966,0.14,-1.75,21.91
2885,1782566046983,-1.05,0.7,21.84
2886,1782566047067,-1.05,0.7,21.77
2887,1782566047183,-2.31,0.42,20.86
2888,1782566047266,-2.31,0.42,20.86
2889,1782566047333,-2.31,0.42,21
2890,1782566047383,-0.28,0.42,21.21
2891,1782566047399,3.36,0.91,21.21
2892,1782566047416,4.34,3.85,21.49
2893,1782566047499,1.96,1.61,21.49
2894,1782566047566,1.33,0.49,21.84
2895,1782566047600,1.12,1.61,21.98
2896,1782566047666,0.56,1.96,22.05
2897,1782566047716,0.49,1.61,22.19
2898,1782566047732,0.49,1.4,22.47
2899,1782566047766,-2.03,1.4,22.54
2900,1782566047782,7.21,-3.01,18.62
2901,1782566047832,7.21,-3.57,18.55
2902,1782566047849,7.49,-3.78,18.55
2903,1782566047865,6.65,-3.78,18.41
2904,1782566047899,6.44,-3.78,18.13
2905,1782566047949,5.67,-3.78,18.13
2906,1782566047999,5.67,-5.25,18.34
2907,1782566048049,4.41,-3.92,19.6
2908,1782566048098,2.52,-3.92,19.53
2909,1782566048148,1.47,-2.87,19.53
2910,1782566048215,1.47,-1.12,18.13
2911,1782566048232,1.19,0.21,17.92
2912,1782566048298,-6.58,-1.96,20.37
2913,1782566048560,-6.58,-4.2,20.37
2914,1782566048560,-6.58,-4.2,21.07
2915,1782566048560,-6.02,-1.96,21.56
2916,1782566048566,-0.84,1.19,24.57
2917,1782566048567,3.85,1.54,24.71
2918,1782566048682,-4.69,-4.9,27.44
2919,1782566048748,-4.69,-4.69,27.44
2920,1782566048798,-4.69,-4.69,27.72
2921,1782566048831,5.04,-6.3,25.83
2922,1782566048964,5.04,-4.2,25.83
2923,1782566048998,5.04,-4.2,25.27
2924,1782566049081,0.21,-0.98,24.29
2925,1782566049181,2.1,0.63,23.8
2926,1782566049247,2.45,1.96,23.66
2927,1782566049314,4.97,2.66,23.66
2928,1782566049348,1.96,1.82,22.54
2929,1782566049381,1.96,0.56,22.26
2930,1782566049415,1.96,0.56,21.77
2931,1782566049448,1.96,-1.05,21.63
2932,1782566049514,2.38,-1.26,21.63
2933,1782566049647,2.94,-1.89,18.83
2934,1782566049681,2.94,-1.82,18.13
2935,1782566049747,2.45,-1.89,17.99
2936,1782566049781,2.45,-1.89,17.5
2937,1782566049814,2.45,-1.61,16.8
2938,1782566049914,1.75,1.89,14.98
2939,1782566049964,2.31,0.63,15.05
2940,1782566050014,2.52,-0.49,15.05
2941,1782566050064,2.52,-0.49,15.05
2942,1782566050131,2.52,-0.84,15.12
2943,1782566050164,1.54,-1.19,15.12
2944,1782566050197,0.49,1.19,14.35
2945,1782566050230,0,1.47,14.35
2946,1782566050247,0.49,1.47,14.35
2947,1782566050264,0,1.61,14.35
2948,1782566050297,0,1.47,14.07
2949,1782566050313,-0.49,1.26,14.07
2950,1782566050364,-1.47,-1.82,14.07
2951,1782566050413,-1.61,-2.24,14
2952,1782566050463,-1.61,0.35,12.6
2953,1782566050514,-2.03,-2.94,12.39
2954,1782566050580,-2.03,-3.64,12.39
2955,1782566050647,-0.84,-3.78,12.39
2956,1782566050696,-0.84,-3.64,12.39
2957,1782566050746,2.03,-2.45,10.08
2958,1782566050796,1.82,-2.03,10.29
2959,1782566050846,1.82,-1.47,10.36
2960,1782566050913,-0.56,-1.68,10.36
2961,1782566050963,-1.26,-1.68,10.5
2962,1782566051029,1.54,-4.27,9.1
2963,1782566051080,3.22,1.75,9.38
2964,1782566051113,3.22,1.75,9.8
2965,1782566051179,3.22,1.75,10.29
2966,1782566051280,0.07,-2.17,9.8
2967,1782566051329,0.07,-1.33,9.59
2968,1782566051379,0,-1.96,9.59
2969,1782566051429,-0.49,-1.61,9.45
2970,1782566051562,-0.42,0.28,9.17
2971,1782566051629,-0.42,0.98,8.96
2972,1782566051696,0.63,-1.61,8.96
2973,1782566051745,0.63,0.21,8.96
2974,1782566051779,-1.12,1.05,8.12
2975,1782566051812,0.07,1.05,7.91
2976,1782566051846,0.63,1.82,7.91
2977,1782566051896,0.91,-0.63,7.84
2978,1782566051978,0.98,-0.49,7.77
2979,1782566052029,1.4,1.54,6.51
2980,1782566052078,0.21,0.84,6.51
2981,1782566052129,-1.75,0.35,6.51
2982,1782566052145,-1.75,-0.56,6.58
2983,1782566052179,-1.75,-0.56,6.79
2984,1782566052278,1.47,-0.56,6.93
2985,1782566052312,0.77,0.21,5.95
2986,1782566052361,-0.07,0.21,5.95
2987,1782566052395,-0.14,0.21,5.95
2988,1782566052462,-0.21,0,6.02
2989,1782566052478,-0.14,-0.07,6.02
2990,1782566052495,-0.07,0,6.09
2991,1782566052528,0.49,0.14,6.02
2992,1782566052595,0.84,0,6.23
2993,1782566052628,0.84,-0.28,6.23
2994,1782566052711,0.7,0.14,5.46
2995,1782566052762,0.91,0.28,5.32
2996,1782566052844,0.91,0.28,5.11
2997,1782566052911,0.49,0,4.55
2998,1782566052945,0.49,0,4.41
2999,1782566053011,0.49,-0.77,4.41
3000,1782566053045,0.49,-0.42,4.41
3001,1782566053094,0.49,-0.77,4.2
3002,1782566053177,0.42,-0.77,3.36
3003,1782566053211,1.19,-0.63,3.36
3004,1782566053244,1.19,-0.63,3.36
3005,1782566053311,1.19,-0.42,3.43
3006,1782566053394,0.42,-0.42,3.64
3007,1782566053411,-0.28,-0.42,3.64
3008,1782566053444,0,-0.42,2.8
3009,1782566053494,0.14,-1.26,2.45
3010,1782566053544,0.14,-0.63,2.45
3011,1782566053561,0.14,-1.26,2.45
3012,1782566053627,0,-1.26,2.45
3013,1782566053677,0,-0.98,2.52
3014,1782566053727,0.28,-0.56,2.73
3015,1782566053777,0.28,-0.49,2.52
3016,1782566053860,0.35,-0.49,2.38
3017,1782566053910,0.7,-0.49,2.38
3018,1782566054027,0.42,-0.77,1.82
3019,1782566054077,0.28,-0.84,1.75
3020,1782566054127,0.28,-0.84,1.54
3021,1782566054176,0.28,-0.84,1.47
3022,1782566054277,0.21,-0.49,0.77
3023,1782566054360,0.35,-0.49,0.77
3024,1782566054410,0.35,-0.49,0.84
3025,1782566054476,0.49,-0.49,0.84
3026,1782566054593,0.28,-0.49,0.14
3027,1782566054626,0.21,-0.49,0.14
3028,1782566054676,0.28,-0.56,0.14
3029,1782566054743,0.28,-0.49,0.07
3030,1782566054793,0.35,-0.49,-0.35
3031,1782566054809,0.28,-0.49,-0.35
3032,1782566054826,0.21,-0.56,-0.35
3033,1782566054876,0.21,-0.63,-0.35
3034,1782566054927,0.21,-0.63,-0.35
3035,1782566054993,0.21,-0.63,-0.28
3036,1782566055026,0.28,-0.63,-0.35
3037,1782566055093,0.28,-0.56,-0.28
3038,1782566055126,0.14,-0.56,-0.98
3039,1782566055226,0.14,-0.56,-0.98
3040,1782566055393,0.28,-0.49,-0.35
3041,1782566055443,0.28,-0.42,-0.35
3042,1782566055476,0.21,-0.49,-0.42
3043,1782566055526,0.21,-0.56,-0.42
3044,1782566055576,0.21,-0.56,-0.49
3045,1782566055675,0.21,-0.49,-0.56
3046,1782566055725,0.21,-0.49,-0.56
3047,1782566055776,0.21,-0.49,-0.56
3048,1782566055843,0.21,-0.49,-0.56
3049,1782566055958,0.35,-0.56,-0.42
3050,1782566055975,0.35,-0.56,-0.42
3051,1782566055993,0.21,-0.56,-0.42
3052,1782566056026,0.21,-0.49,-0.42
3053,1782566056092,0.21,-0.49,-0.49
3054,1782566056159,0.21,-0.63,-0.42
3055,1782566056225,0.28,-0.63,-0.35
3056,1782566056291,0.35,-0.63,-0.35
3057,1782566056359,0.35,-0.63,-0.28
3058,1782566056392,0.35,-0.7,-0.28
3059,1782566056425,0.07,-0.7,-0.28
3060,1782566056459,0.07,-0.7,-0.28
3061,1782566056525,0.21,-0.63,-0.28
3062,1782566056575,0.28,-0.49,-0.28
3063,1782566056691,0.14,-0.49,-0.21
3064,1782566056741,0.07,-0.49,-0.28
3065,1782566056808,0.07,-0.63,-0.28
3066,1782566056874,0,-0.63,-0.28
3067,1782566056975,0.35,-0.35,-0.14
3068,1782566057024,0.35,-0.35,-0.14
3069,1782566057108,0.35,-0.35,-0.14
3070,1782566057174,0.28,-0.56,-0.14
3071,1782566057192,0.28,-0.56,-0.14
3072,1782566057241,0.28,-0.56,-0.14
3073,1782566057291,0.28,-0.56,-0.14
3074,1782566057357,0.28,-0.56,-0.07
3075,1782566057408,0.28,-0.56,-0.07
3076,1782566057458,0.28,-0.56,-0.07
3077,1782566057508,0.28,-0.56,-0.07
3078,1782566057708,0.28,-0.56,0
3079,1782566057808,0.28,-0.63,-0.07
3080,1782566057873,0.28,-0.56,-0.07
3081,1782566057907,0.28,-0.56,-0.07
3082,1782566057974,0.28,-0.56,-0.07
3083,1782566058040,0.28,-0.56,0
3084,1782566058074,0.21,-0.49,0
3085,1782566058157,0.21,-0.49,0
3086,1782566058207,0.28,-0.49,0.07
3087,1782566058257,0.28,-0.49,0.07
3088,1782566058273,0.07,-0.7,0.07
3089,1782566058306,0.07,-0.7,0.07
3090,1782566058340,0.07,-0.7,0.07
3091,1782566058423,0.14,-0.56,0
3092,1782566058439,0.14,-0.56,0
3093,1782566058490,0.14,-0.56,-0.07
3094,1782566058573,0.28,-0.63,-0.07
3095,1782566058640,0.28,-0.56,-0.07
3096,1782566058723,0.28,-0.56,-0.07
3097,1782566058790,0.35,-0.49,-0.07
3098,1782566058823,0.21,-0.63,0
3099,1782566058873,0.28,-0.63,-0.07
3100,1782566058923,0.28,-0.56,0
3101,1782566058973,0.35,-0.56,-0.07
3102,1782566059024,0.35,-0.49,-0.07
3103,1782566059072,0.28,-0.56,-0.07
3104,1782566059189,0.42,-0.56,-0.07
3105,1782566059273,0.42,-0.56,0
3106,1782566059289,0.35,-0.56,0
3107,1782566059306,0.35,-0.56,-0.07
3108,1782566059340,0.35,-0.42,-0.07
3109,1782566059356,0.35,-0.42,-0.07
3110,1782566059569,0.35,-0.42,-0.07
3111,1782566059576,0.35,-0.42,-0.07
3112,1782566059639,0.21,-0.42,0
3113,1782566059689,0.28,-0.42,0
3114,1782566059705,0.21,-0.49,0
3115,1782566059722,0.28,-0.56,0
3116,1782566059755,0.28,-0.7,0
3117,1782566059772,0.28,-0.7,0
3118,1782566059822,0.14,-0.77,0
3119,1782566059872,0.21,-0.77,0
3120,1782566059938,0.35,-0.49,0
3121,1782566060006,0.35,-0.49,0
3122,1782566060072,0.35,-0.49,-0.07
3123,1782566060155,0.28,-0.56,-0.07
3124,1782566060172,0.28,-0.49,0
3125,1782566060239,0.28,-0.49,-0.07
3126,1782566060305,0.28,-0.56,-0.07
3127,1782566060355,0.28,-0.56,-0.07
3128,1782566060405,0.28,-0.56,0
3129,1782566060505,0.28,-0.56,0
3130,1782566060538,0.28,-0.56,0
3131,1782566060555,0.28,-0.49,-0.07
3132,1782566060571,0.21,-0.49,-0.07
3133,1782566060605,0.21,-0.49,-0.07
3134,1782566060655,0.21,-0.56,-0.07
3135,1782566060672,0.28,-0.56,0
3136,1782566060755,0.28,-0.56,0
3137,1782566060821,0.35,-0.56,0
3138,1782566060904,0.28,-0.56,0
3139,1782566060971,0.28,-0.49,-0.07
3140,1782566061071,0.28,-0.49,0
3141,1782566061154,0.21,-0.49,0
3142,1782566061187,0.28,-0.49,0
3143,1782566061238,0.28,-0.49,0
3144,1782566061271,0.28,-0.49,0
3145,1782566061371,0.35,-0.56,0
3146,1782566061404,0.28,-0.49,0
3147,1782566061437,0.28,-0.42,0
3148,1782566061504,0.28,-0.42,0
3149,1782566061554,0.28,-0.42,0
3150,1782566061571,0.21,-0.49,0
3151,1782566061604,0.21,-0.49,0
3152,1782566061687,0.35,-0.35,0
3153,1782566061737,0.35,-0.35,0
3154,1782566061787,0.28,-0.35,-0.07
3155,1782566061870,0.28,-0.42,-0.07
3156,1782566061920,0.28,-0.49,-0.14
3157,1782566061987,0.28,-0.56,-0.14
3158,1782566062070,0.28,-0.56,-0.07
3159,1782566062120,0.28,-0.56,-0.07
3160,1782566062220,0.28,-0.56,-0.07
3161,1782566062254,0.14,-0.49,-0.07
3162,1782566062304,0.21,-0.49,-0.07
3163,1782566062353,0.21,-0.49,-0.07
3164,1782566062370,0.21,-0.49,-0.07
3165,1782566062386,0.21,-0.56,-0.07
3166,1782566062420,0.21,-0.63,-0.07
3167,1782566062437,0.28,-0.63,-0.07
3168,1782566062486,0.28,-0.63,0
3169,1782566062537,0.28,-0.56,0
3170,1782566062703,0.28,-0.56,0
3171,1782566062736,0.28,-0.56,0
3172,1782566062753,0.28,-0.56,0
3173,1782566062770,0.28,-0.56,-0.07
3174,1782566062821,0.28,-0.49,0
3175,1782566062902,0.28,-0.49,0
3176,1782566062969,0.28,-0.56,0
3177,1782566063070,0.21,-0.56,0
3178,1782566063120,0.21,-0.56,0
3179,1782566063169,0.21,-0.56,0
3180,1782566063236,0.21,-0.56,0
3181,1782566063286,0.21,-0.49,0
3182,1782566063353,0.28,-0.56,0
3183,1782566063386,0.28,-0.56,-0.07
3184,1782566063435,0.28,-0.56,-0.07
3185,1782566063502,0.28,-0.49,-0.07
3186,1782566063552,0.28,-0.56,0
3187,1782566063602,0.35,-0.56,0
3188,1782566063652,0.35,-0.56,0
3189,1782566063685,0.35,-0.49,0
3190,1782566063719,0.28,-0.49,0
3191,1782566063785,0.21,-0.49,-0.07
3192,1782566063836,0.21,-0.63,0
3193,1782566063869,0.21,-0.63,0
3194,1782566063969,0.35,-0.63,0
3195,1782566063985,0.35,-0.63,0
3196,1782566064102,0.21,-0.56,0
3197,1782566064135,0.21,-0.56,-0.07
3198,1782566064201,0.28,-0.63,-0.07
3199,1782566064252,0.28,-0.63,-0.07
3200,1782566064301,0.35,-0.63,-0.07
3201,1782566064452,0.21,-0.42,-0.07
3202,1782566064518,0.21,-0.42,-0.07
3203,1782566064551,0.21,-0.49,-0.07
3204,1782566064618,0.21,-0.7,-0.07
3205,1782566064668,0.21,-0.7,-0.07
3206,1782566064718,0.21,-0.63,-0.14
3207,1782566064768,0.21,-0.49,-0.07
3208,1782566064801,0.28,-0.42,-0.07
3209,1782566064818,0.28,-0.42,-0.07
3210,1782566064851,0.28,-0.42,0
3211,1782566064884,0.28,-0.49,0
3212,1782566064935,0.28,-0.49,0
3213,1782566065002,0.28,-0.49,0
3214,1782566065068,0.28,-0.49,-0.07
3215,1782566065117,0.28,-0.49,-0.07
3216,1782566065201,0.21,-0.49,0
3217,1782566065234,0.21,-0.49,0
3218,1782566065334,0.21,-0.49,0
3219,1782566065367,0.28,-0.49,0
3220,1782566065434,0.28,-0.49,-0.07
3221,1782566065501,0.21,-0.56,0
3222,1782566065534,0.21,-0.56,0
3223,1782566065584,0.21,-0.56,0
3224,1782566065634,0.21,-0.49,0
3225,1782566065684,0.21,-0.49,0
3226,1782566065734,0.28,-0.56,0
3227,1782566065867,0.28,-0.56,0
3228,1782566065917,0.28,-0.56,0
3229,1782566065967,0.21,-0.63,-0.07
3230,1782566065983,0.28,-0.63,-0.07
3231,1782566066017,0.28,-0.63,-0.07
3232,1782566066116,0.21,-0.56,-0.07
3233,1782566066150,0.21,-0.56,-0.07
3234,1782566066200,0.21,-0.56,-0.07
3235,1782566066216,0.28,-0.56,-0.07
3236,1782566066267,0.28,-0.56,0
3237,1782566066300,0.21,-0.49,-0.07
3238,1782566066367,0.21,-0.49,-0.07
3239,1782566066400,0.21,-0.49,-0.07
3240,1782566066466,0.21,-0.49,-0.07
3241,1782566066533,0.21,-0.56,-0.07
3242,1782566066616,0.21,-0.56,-0.07
3243,1782566066683,0.21,-0.56,0
3244,1782566066716,0.28,-0.56,0
3245,1782566066734,0.21,-0.56,0
3246,1782566066800,0.28,-0.56,0
3247,1782566066850,0.35,-0.7,0.07
3248,1782566066983,0.35,-0.7,0.07
3249,1782566067049,0.35,-0.56,0.07
3250,1782566067099,0.21,-0.35,-0.07
3251,1782566067116,0.21,-0.35,-0.07
3252,1782566067166,0.21,-0.42,-0.07
3253,1782566067216,0.21,-0.49,-0.07
3254,1782566067233,0.21,-0.56,-0.07
3255,1782566067283,0.21,-0.56,-0.07
3256,1782566067333,0.21,-0.56,-0.07
3257,1782566067366,0.28,-0.49,0
3258,1782566067416,0.28,-0.42,0
3259,1782566067499,0.28,-0.49,-0.07
3260,1782566067516,0.21,-0.49,-0.07
3261,1782566067532,0.21,-0.56,-0.07
3262,1782566067599,0.21,-0.56,-0.07
3263,1782566067665,0.21,-0.56,0
3264,1782566067699,0.21,-0.56,0
3265,1782566067782,0.21,-0.49,0
3266,1782566067832,0.28,-0.42,0
3267,1782566067882,0.28,-0.42,-0.07
3268,1782566067950,0.35,-0.49,-0.07
3269,1782566068032,0.35,-0.49,-0.07
3270,1782566068165,0.21,-0.56,0
3271,1782566068215,0.14,-0.56,0
3272,1782566068265,0.14,-0.63,0
3273,1782566068331,0.07,-0.56,0
3274,1782566068448,0.14,-0.56,-0.07
3275,1782566068499,0.14,-0.63,-0.07
3276,1782566068549,0.14,-0.56,0
3277,1782566068598,0.14,-0.49,0
3278,1782566068699,0.21,-0.49,-0.07
3279,1782566068715,0.28,-0.49,-0.07
3280,1782566068764,0.28,-0.63,-0.07
3281,1782566068831,0.21,-0.49,-0.07
3282,1782566068848,0.07,-0.63,0
3283,1782566068897,-0.14,-0.56,0
3284,1782566068964,0.49,-0.49,0
3285,1782566069031,0.49,-0.49,0
3286,1782566069081,0.49,-0.49,0.07
3287,1782566069114,0.49,-0.63,0.07
3288,1782566069147,-0.21,-0.63,0.14
3289,1782566069181,0.42,-0.42,-0.07
3290,1782566069264,0.42,-0.28,0
3291,1782566069348,0.42,-0.28,0
3292,1782566069398,0.14,-0.28,0.07
3293,1782566069448,0.07,-0.35,0.14
3294,1782566069464,0.28,-0.35,-0.07
3295,1782566069514,0.28,-0.63,-0.14
3296,1782566069581,0.28,-0.7,-0.14
3297,1782566069647,0.35,-0.7,-0.14
3298,1782566069681,0.35,-0.7,-0.14
3299,1782566069713,0.35,-0.63,-0.14
3300,1782566069731,0.35,-0.63,-0.14
3301,1782566069764,0.35,-0.63,0
3302,1782566069863,0.35,-0.63,-0.07
3303,1782566069914,0.35,-0.63,-0.07
3304,1782566069964,0.35,-0.63,-0.07
3305,1782566069980,0.35,-0.63,-0.07
3306,1782566070031,0.35,-0.49,-0.07
3307,1782566070130,0.28,-0.49,-0.07
3308,1782566070180,0.21,-0.56,0
3309,1782566070246,0.21,-0.56,0
3310,1782566070280,0.28,-0.49,0
3311,1782566070330,0.35,-0.56,0
3312,1782566070563,0.28,-0.56,0.07
3313,1782566070563,0.21,-0.49,0
3314,1782566070579,0.21,-0.56,0
3315,1782566070613,0.21,-0.56,0
3316,1782566070629,0.28,-0.56,0
3317,1782566070679,0.21,-0.56,0
3318,1782566070746,0.21,-0.56,-0.07
3319,1782566070830,0.28,-0.56,-0.07
3320,1782566070930,0.35,-0.56,-0.07
3321,1782566070946,0.35,-0.56,-0.07
3322,1782566070964,0.35,-0.56,-0.07
3323,1782566070996,0.35,-0.56,-0.07
3324,1782566071013,0.35,-0.63,-0.07
3325,1782566071030,0.28,-0.56,0
3326,1782566071096,0.28,-0.56,0
3327,1782566071196,0.28,-0.42,0
3328,1782566071246,0.28,-0.42,0
3329,1782566071263,0.28,-0.42,0
3330,1782566071329,0.28,-0.56,0
3331,1782566071429,0.28,-0.63,0
3332,1782566071546,0.28,-0.56,-0.07
3333,1782566071562,0.28,-0.56,-0.07
3334,1782566071612,0.28,-0.56,-0.07
3335,1782566071663,0.28,-0.56,-0.07
3336,1782566071713,0.28,-0.56,-0.07
3337,1782566071829,0.28,-0.56,-0.07
3338,1782566071879,0.14,-0.56,-0.07
3339,1782566071929,0.21,-0.56,-0.07
3340,1782566071978,0.21,-0.56,0
3341,1782566072046,0.21,-0.56,0
3342,1782566072112,0.21,-0.56,-0.07
3343,1782566072145,0.21,-0.56,0
3344,1782566072196,0.21,-0.56,-0.07
3345,1782566072262,0.21,-0.49,-0.07
3346,1782566072362,0.21,-0.49,-0.07
3347,1782566072378,0.28,-0.56,-0.07
3348,1782566072395,0.28,-0.56,-0.07
3349,1782566072461,0.28,-0.56,0
3350,1782566072529,0.28,-0.56,0
3351,1782566072561,0.28,-0.56,0
3352,1782566072694,0.21,-0.49,-0.07
3353,1782566072727,0.21,-0.49,-0.07
3354,1782566072745,0.21,-0.49,-0.07
3355,1782566072794,0.28,-0.49,-0.07
3356,1782566072861,0.28,-0.49,-0.07
3357,1782566072995,0.35,-0.56,-0.07
3358,1782566073111,0.35,-0.56,-0.07
3359,1782566073127,0.21,-0.56,-0.07
3360,1782566073177,0.35,-0.56,0
3361,1782566073227,0.28,-0.56,0
3362,1782566073278,0.28,-0.63,0
3363,1782566073378,0.21,-0.56,0
3364,1782566073444,0.28,-0.42,-0.07
3365,1782566073494,0.28,-0.49,0
3366,1782566073544,0.28,-0.56,0
3367,1782566073594,0.28,-0.63,0
3368,1782566073710,0.21,-0.42,-0.07
3369,1782566073761,0.21,-0.49,-0.07
3370,1782566073827,0.28,-0.42,-0.07
3371,1782566073911,0.21,-0.49,-0.07
3372,1782566073960,0.21,-0.56,0
3373,1782566073994,0.21,-0.63,0
3374,1782566074044,0.21,-0.56,0
3375,1782566074094,0.21,-0.49,0
3376,1782566074127,0.28,-0.63,0
3377,1782566074211,0.28,-0.49,-0.07
3378,1782566074226,0.35,-0.49,0
3379,1782566074243,0.35,-0.49,0
3380,1782566074276,0.28,-0.49,0
3381,1782566074293,0.28,-0.49,0
3382,1782566074343,0.28,-0.49,0
