index,date,ACCEL_X,ACCEL_Y,ACCEL_Z
0,1782565775652,0.05,-0.03,1.01
1,1782565775693,0.05,-0.03,1.01
2,1782565775727,0.05,-0.03,1.01
3,1782565775744,0.05,-0.03,1.01
4,1782565775760,0.05,-0.03,1.01
5,1782565775860,0.05,-0.03,1.01
6,1782565775893,0.05,-0.03,1.01
7,1782565775960,0.05,-0.03,1.01
8,1782565776010,0.05,-0.03,1.01
9,1782565776027,0.05,-0.03,1.01
10,1782565776061,0.05,-0.03,1.01
11,1782565776093,0.05,-0.03,1.01
12,1782565776127,0.05,-0.03,1.01
13,1782565776177,0.05,-0.03,1.01
14,1782565776194,0.05,-0.03,1.01
15,1782565776227,0.05,-0.03,1.01
16,1782565776360,0.05,-0.03,1.01
17,1782565776393,0.05,-0.03,1.01
18,1782565776443,0.05,-0.03,1.01
19,1782565776477,0.05,-0.03,1.01
20,1782565776510,0.05,-0.03,1.01
21,1782565776543,0.05,-0.03,1.01
22,1782565776560,0.05,-0.03,1.01
23,1782565776576,0.05,-0.03,1.01
24,1782565776648,0.05,-0.03,1.01
25,1782565776693,0.05,-0.03,1.01
26,1782565776710,0.05,-0.03,1.01
27,1782565776743,0.05,-0.03,1.01
28,1782565776810,0.05,-0.03,1.01
29,1782565776960,0.05,-0.03,1.01
30,1782565776993,0.05,-0.03,1.01
31,1782565777027,0.05,-0.03,1.01
32,1782565777060,0.05,-0.03,1.01
33,1782565777110,0.05,-0.03,1.01
34,1782565777193,0.05,-0.03,1.01
35,1782565777227,0.05,-0.03,1.01
36,1782565777276,0.05,-0.03,1.01
37,1782565777326,0.05,-0.03,1.01
38,1782565777393,0.05,-0.03,1.01
39,1782565777443,0.05,-0.03,1.01
40,1782565777576,0.05,-0.03,1.01
41,1782565777609,0.05,-0.03,1.01
42,1782565777675,0.05,-0.03,1.01
43,1782565777843,0.05,-0.03,1.01
44,1782565777843,0.05,-0.03,1.01
45,1782565777976,0.05,-0.03,1.01
46,1782565777992,0.05,-0.03,1.01
47,1782565778043,0.05,-0.03,1.01
48,1782565778092,0.05,-0.03,1.01
49,1782565778209,0.05,-0.03,1.01
50,1782565778225,0.05,-0.03,1.01
51,1782565778292,0.05,-0.03,1.01
52,1782565778359,0.05,-0.03,1.01
53,1782565778425,0.05,-0.03,1.01
54,1782565778492,0.05,-0.03,1.01
55,1782565778526,0.05,-0.03,1.01
56,1782565778576,0.05,-0.03,1.01
57,1782565778608,0.05,-0.03,1.01
58,1782565778675,0.05,-0.03,1.01
59,1782565778708,0.05,-0.03,1.01
60,1782565778775,0.05,-0.03,1.01
61,1782565778808,0.05,-0.03,1.01
62,1782565778908,0.05,-0.03,1.01
63,1782565778958,0.05,-0.03,1.01
64,1782565778975,0.05,-0.03,1.01
65,1782565779008,0.05,-0.03,1.01
66,1782565779042,0.05,-0.03,1.01
67,1782565779075,0.05,-0.03,1.01
68,1782565779142,0.05,-0.03,1.01
69,1782565779175,0.05,-0.03,1.01
70,1782565779225,0.05,-0.03,1.01
71,1782565779259,0.05,-0.03,1.01
72,1782565779274,0.05,-0.03,1.01
73,1782565779291,0.05,-0.03,1.01
74,1782565779325,0.05,-0.03,1.01
75,1782565779408,0.05,-0.03,1.01
76,1782565779491,0.05,-0.03,1.01
77,1782565779541,0.05,-0.03,1.01
78,1782565779608,0.05,-0.03,1.01
79,1782565779658,0.05,-0.03,1.01
80,1782565779708,0.05,-0.03,1.01
81,1782565779774,0.05,-0.03,1.01
82,1782565779808,0.05,-0.03,1.01
83,1782565779875,0.05,-0.03,1.01
84,1782565779907,0.05,-0.03,1.01
85,1782565779941,0.05,-0.03,1.01
86,1782565779990,0.05,-0.03,1.01
87,1782565780091,0.05,-0.03,1.01
88,1782565780223,0.05,-0.03,1.01
89,1782565780290,0.05,-0.03,1.01
90,1782565780324,0.05,-0.03,1.01
91,1782565780490,0.05,-0.03,1.01
92,1782565780523,0.05,-0.03,1.01
93,1782565780590,0.05,-0.03,1.01
94,1782565780623,0.05,-0.03,1.01
95,1782565780657,0.05,-0.03,1.01
96,1782565780890,0.05,-0.03,1.01
97,1782565780907,0.05,-0.03,1.01
98,1782565780940,0.05,-0.03,1.01
99,1782565780973,0.05,-0.03,1.01
100,1782565780990,0.05,-0.03,1.01
101,1782565781057,0.05,-0.03,1.01
102,1782565781107,0.05,-0.03,1.01
103,1782565781157,0.05,-0.03,1.01
104,1782565781190,0.05,-0.03,1.02
105,1782565781273,0.05,-0.03,1.02
106,1782565781306,0.05,-0.03,1.02
107,1782565781440,0.05,-0.03,1.01
108,1782565781490,0.05,-0.03,1.01
109,1782565781539,0.05,-0.03,1.01
110,1782565781556,0.05,-0.03,1.01
111,1782565781589,0.05,-0.03,1.01
112,1782565781606,0.05,-0.03,1.01
113,1782565781723,0.05,-0.03,1.01
114,1782565781756,0.05,-0.03,1.01
115,1782565781823,0.05,-0.03,1.01
116,1782565781856,0.05,-0.03,1.01
117,1782565781872,0.05,-0.03,1.01
118,1782565781906,0.05,-0.03,1.01
119,1782565782006,0.05,-0.03,1.01
120,1782565782039,0.05,-0.03,1.01
121,1782565782089,0.05,-0.03,1.01
122,1782565782122,0.05,-0.03,1.01
123,1782565782172,0.05,-0.03,1.01
124,1782565782239,0.05,-0.03,1.01
125,1782565782272,0.05,-0.03,1.01
126,1782565782338,0.05,-0.03,1.01
127,1782565782389,0.05,-0.03,1.01
128,1782565782439,0.05,-0.03,1.01
129,1782565782522,0.05,-0.03,1.01
130,1782565782605,0.05,-0.03,1.01
131,1782565782722,0.05,-0.03,1.01
132,1782565782788,0.05,-0.03,1.01
133,1782565782839,0.05,-0.03,1.01
134,1782565782905,0.05,-0.03,1.01
135,1782565782955,0.05,-0.03,1.01
136,1782565782988,0.05,-0.03,1.01
137,1782565783054,0.05,-0.03,1.01
138,1782565783122,0.05,-0.03,1.01
139,1782565783171,0.05,-0.03,1.01
140,1782565783287,0.05,-0.03,1.01
141,1782565783405,0.05,-0.03,1.01
142,1782565783487,0.05,-0.03,1.01
143,1782565783671,0.05,-0.03,1.01
144,1782565783804,0.05,-0.03,1.01
145,1782565783870,0.05,-0.03,1.01
146,1782565783937,0.05,-0.03,1.01
147,1782565783970,0.05,-0.03,1.01
148,1782565784103,0.05,-0.03,1.01
149,1782565784153,0.05,-0.03,1.01
150,1782565784220,0.05,-0.03,1.01
151,1782565784270,0.05,-0.03,1.01
152,1782565784303,0.05,-0.03,1.01
153,1782565784320,0.05,-0.03,1.01
154,1782565784353,0.05,-0.03,1.01
155,1782565784387,0.05,-0.03,1.01
156,1782565784437,0.05,-0.03,1.01
157,1782565784453,0.05,-0.03,1.01
158,1782565784487,0.05,-0.03,1.01
159,1782565784503,0.05,-0.03,1.01
160,1782565784520,0.05,-0.03,1.01
161,1782565784570,0.05,-0.03,1.01
162,1782565784637,0.05,-0.03,1.01
163,1782565784670,0.05,-0.03,1.01
164,1782565784704,0.05,-0.03,1.01
165,1782565784736,0.05,-0.03,1.01
166,1782565784786,0.05,-0.03,1.01
167,1782565784836,0.05,-0.03,1.01
168,1782565784903,0.05,-0.03,1.01
169,1782565784988,0.05,-0.03,1.01
170,1782565785037,0.05,-0.03,1.01
171,1782565785086,0.05,-0.03,1.01
172,1782565785137,0.05,-0.03,1.01
173,1782565785187,0.05,-0.03,1.01
174,1782565785253,0.05,-0.03,1.01
175,1782565785369,0.05,-0.03,1.01
176,1782565785420,0.05,-0.03,1.01
177,1782565785469,0.05,-0.03,1.01
178,1782565785536,0.05,-0.03,1.01
179,1782565785586,0.05,-0.03,1.01
180,1782565785636,0.05,-0.03,1.01
181,1782565785686,0.05,-0.03,1.01
182,1782565785786,0.05,-0.03,1.01
183,1782565785935,0.05,-0.03,1.01
184,1782565785969,0.05,-0.03,1.01
185,1782565786019,0.05,-0.03,1.01
186,1782565786069,0.05,-0.03,1.01
187,1782565786202,0.05,-0.03,1.01
188,1782565786352,0.05,-0.03,1.01
189,1782565786418,0.05,-0.03,1.01
190,1782565786435,0.05,-0.03,1.01
191,1782565786468,0.05,-0.03,1.01
192,1782565786618,0.05,-0.03,1.01
193,1782565786652,0.05,-0.03,1.01
194,1782565786702,0.05,-0.03,1.01
195,1782565786752,0.05,-0.03,1.01
196,1782565786785,0.05,-0.03,1.01
197,1782565786851,0.05,-0.03,1.01
198,1782565786884,0.05,-0.03,1.01
199,1782565786918,0.05,-0.03,1.01
200,1782565786935,0.05,-0.03,1.01
201,1782565786952,0.05,-0.03,1.01
202,1782565786986,0.05,-0.03,1.01
203,1782565787035,0.05,-0.03,1.01
204,1782565787084,0.05,-0.03,1.01
205,1782565787101,0.05,-0.03,1.01
206,1782565787135,0.05,-0.03,1.01
207,1782565787151,0.05,-0.03,1.01
208,1782565787168,0.05,-0.03,1.01
209,1782565787201,0.05,-0.03,1.01
210,1782565787285,0.05,-0.03,1.01
211,1782565787319,0.05,-0.03,1.01
212,1782565787385,0.05,-0.03,1.01
213,1782565787434,0.05,-0.03,1.01
214,1782565787451,0.05,-0.03,1.01
215,1782565787468,0.05,-0.03,1.01
216,1782565787501,0.05,-0.03,1.01
217,1782565787534,0.05,-0.03,1.01
218,1782565787618,0.05,-0.03,1.01
219,1782565787684,0.05,-0.03,1.01
220,1782565787684,0.05,-0.03,1.01
221,1782565787718,0.05,-0.03,1.01
222,1782565787751,0.05,-0.03,1.01
223,1782565787767,0.05,-0.03,1.01
224,1782565787801,0.05,-0.03,1.01
225,1782565787851,0.05,-0.03,1.01
226,1782565787900,0.05,-0.03,1.01
227,1782565787950,0.05,-0.03,1.01
228,1782565788100,0.05,-0.03,1.01
229,1782565788117,0.05,-0.03,1.01
230,1782565788267,0.05,-0.03,1.01
231,1782565788300,0.05,-0.03,1.01
232,1782565788335,0.05,-0.03,1.01
233,1782565788350,0.05,-0.03,1.01
234,1782565788367,0.05,-0.03,1.01
235,1782565788400,0.05,-0.03,1.01
236,1782565788500,0.05,-0.03,1.01
237,1782565788533,0.05,-0.03,1.01
238,1782565788583,0.05,-0.03,1.01
239,1782565788616,0.05,-0.03,1.01
240,1782565788700,0.05,-0.03,1.01
241,1782565788718,0.05,-0.03,1.01
242,1782565788767,0.05,-0.03,1.01
243,1782565788817,0.05,-0.03,1.01
244,1782565788866,0.05,-0.03,1.01
245,1782565788899,0.05,-0.03,1.01
246,1782565788917,0.05,-0.03,1.01
247,1782565788949,0.05,-0.03,1.01
248,1782565788983,0.05,-0.03,1.01
249,1782565789001,0.05,-0.03,1.01
250,1782565789016,0.05,-0.03,1.01
251,1782565789100,0.05,-0.03,1.01
252,1782565789200,0.05,-0.03,1.01
253,1782565789217,0.05,-0.03,1.01
254,1782565789233,0.05,-0.03,1.01
255,1782565789250,0.05,-0.03,1.01
256,1782565789283,0.05,-0.03,1.01
257,1782565789317,0.05,-0.03,1.01
258,1782565789366,0.05,-0.03,1.01
259,1782565789399,0.05,-0.03,1.01
260,1782565789449,0.05,-0.03,1.01
261,1782565789532,0.05,-0.03,1.01
262,1782565789566,0.05,-0.03,1.01
263,1782565789617,0.05,-0.03,1.01
264,1782565789649,0.05,-0.03,1.01
265,1782565789700,0.05,-0.03,1.01
266,1782565789733,0.05,-0.03,1.01
267,1782565789799,0.05,-0.03,1.01
268,1782565789916,0.05,-0.03,1.01
269,1782565789933,0.05,-0.03,1.01
270,1782565789950,0.05,-0.03,1.01
271,1782565789999,0.05,-0.03,1.01
272,1782565790049,0.05,-0.03,1.01
273,1782565790166,0.05,-0.03,1.01
274,1782565790216,0.05,-0.03,1.01
275,1782565790232,0.05,-0.03,1.01
276,1782565790249,0.05,-0.03,1.01
277,1782565790282,0.05,-0.03,1.01
278,1782565790349,0.05,-0.03,1.01
279,1782565790382,0.05,-0.03,1.01
280,1782565790448,0.05,-0.03,1.01
281,1782565790465,0.05,-0.03,1.01
282,1782565790482,0.05,-0.03,1.01
283,1782565790498,0.05,-0.03,1.01
284,1782565790515,0.05,-0.03,1.01
285,1782565790548,0.05,-0.03,1.01
286,1782565790599,0.05,-0.03,1.01
287,1782565790665,0.05,-0.03,1.01
288,1782565790732,0.05,-0.03,1.01
289,1782565790815,0.05,-0.03,1.01
290,1782565790832,0.05,-0.03,1.01
291,1782565790848,0.05,-0.03,1.01
292,1782565790865,0.05,-0.03,1.01
293,1782565790898,0.05,-0.03,1.01
294,1782565790931,0.05,-0.03,1.01
295,1782565791065,0.05,-0.03,1.01
296,1782565791098,0.05,-0.03,1.01
297,1782565791131,0.05,-0.03,1.01
298,1782565791148,0.05,-0.03,1.01
299,1782565791165,0.05,-0.03,1.01
300,1782565791198,0.05,-0.03,1.01
301,1782565791248,0.05,-0.03,1.01
302,1782565791365,0.05,-0.03,1.01
303,1782565791481,0.05,-0.03,1.01
304,1782565791498,0.05,-0.03,1.01
305,1782565791514,0.05,-0.03,1.01
306,1782565791548,0.05,-0.03,1.01
307,1782565791598,0.05,-0.03,1.01
308,1782565791615,0.05,-0.03,1.01
309,1782565791647,0.05,-0.03,1.01
310,1782565791664,0.05,-0.03,1.01
311,1782565791681,0.05,-0.03,1.01
312,1782565791730,0.05,-0.03,1.01
313,1782565791798,0.05,-0.03,1.01
314,1782565791848,0.05,-0.03,1.01
315,1782565791914,0.05,-0.03,1.01
316,1782565792031,0.05,-0.03,1.01
317,1782565792080,0.05,-0.03,1.01
318,1782565792164,0.05,-0.02,1.01
319,1782565792263,0.05,-0.03,1.01
320,1782565792314,0.05,-0.03,1.01
321,1782565792413,0.05,-0.03,1.01
322,1782565792514,0.05,-0.03,1.01
323,1782565792563,0.05,-0.03,1.01
324,1782565792680,0.05,-0.03,1.01
325,1782565792730,0.05,-0.03,1.01
326,1782565792763,0.05,-0.03,1.01
327,1782565792780,0.05,-0.03,1.01
328,1782565792813,0.05,-0.03,1.01
329,1782565792863,0.05,-0.03,1.01
330,1782565792913,0.05,-0.03,1.01
331,1782565792963,0.05,-0.03,1.01
332,1782565793013,0.05,-0.03,1.01
333,1782565793080,0.05,-0.03,1.01
334,1782565793096,0.05,-0.03,1.01
335,1782565793130,0.05,-0.03,1.01
336,1782565793196,0.05,-0.03,1.01
337,1782565793279,0.05,-0.03,1.01
338,1782565793329,0.05,-0.03,1.01
339,1782565793346,0.05,-0.03,1.01
340,1782565793363,0.05,-0.03,1.01
341,1782565793446,0.05,-0.03,1.01
342,1782565793529,0.05,-0.03,1.01
343,1782565793563,0.05,-0.03,1.01
344,1782565793630,0.05,-0.03,1.01
345,1782565793730,0.05,-0.03,1.01
346,1782565793763,0.05,-0.03,1.01
347,1782565793813,0.05,-0.03,1.01
348,1782565793879,0.05,-0.03,1.01
349,1782565793912,0.05,-0.03,1.01
350,1782565793946,0.05,-0.03,1.01
351,1782565793979,0.05,-0.03,1.01
352,1782565794079,0.05,-0.03,1.01
353,1782565794145,0.05,-0.03,1.01
354,1782565794195,0.05,-0.03,1.01
355,1782565794245,0.05,-0.03,1.01
356,1782565794295,0.05,-0.03,1.01
357,1782565794345,0.05,-0.03,1.01
358,1782565794395,0.05,-0.03,1.01
359,1782565794462,0.05,-0.03,1.01
360,1782565794529,0.05,-0.03,1.01
361,1782565794562,0.05,-0.03,1.01
362,1782565794629,0.05,-0.03,1.01
363,1782565794679,0.05,-0.03,1.01
364,1782565794745,0.05,-0.03,1.01
365,1782565794812,0.05,-0.03,1.01
366,1782565794861,0.05,-0.03,1.01
367,1782565794911,0.05,-0.03,1.01
368,1782565794961,0.05,-0.03,1.01
369,1782565795012,0.05,-0.03,1.01
370,1782565795094,0.05,-0.03,1.01
371,1782565795178,0.05,-0.03,1.01
372,1782565795244,0.05,-0.03,1.01
373,1782565795311,0.05,-0.03,1.01
374,1782565795345,0.05,-0.03,1.01
375,1782565795361,0.05,-0.03,1.01
376,1782565795411,0.05,-0.03,1.01
377,1782565795461,0.05,-0.03,1.01
378,1782565795528,0.05,-0.03,1.01
379,1782565795595,0.05,-0.03,1.01
380,1782565795628,0.05,-0.03,1.01
381,1782565795661,0.05,-0.03,1.01
382,1782565795711,0.05,-0.03,1.01
383,1782565795761,0.05,-0.03,1.01
384,1782565795811,0.05,-0.03,1.01
385,1782565795861,0.05,-0.03,1.01
386,1782565795894,0.05,-0.03,1.01
387,1782565795977,0.05,-0.03,1.01
388,1782565796027,0.05,-0.03,1.01
389,1782565796061,0.05,-0.03,1.01
390,1782565796110,0.05,-0.03,1.01
391,1782565796194,0.05,-0.03,1.01
392,1782565796210,0.05,-0.03,1.01
393,1782565796277,0.05,-0.03,1.01
394,1782565796327,0.05,-0.03,1.01
395,1782565796377,0.05,-0.03,1.01
396,1782565796427,0.05,-0.03,1.01
397,1782565796477,0.05,-0.03,1.01
398,1782565796543,0.05,-0.03,1.01
399,1782565796610,0.05,-0.03,1.01
400,1782565796660,0.05,-0.03,1.01
401,1782565796727,0.05,-0.03,1.01
402,1782565796760,0.05,-0.03,1.01
403,1782565796860,0.05,-0.03,1.01
404,1782565796926,0.05,-0.03,1.01
405,1782565797026,0.05,-0.03,1.01
406,1782565797127,0.05,-0.03,1.01
407,1782565797259,0.05,-0.03,1.01
408,1782565797326,0.05,-0.03,1.01
409,1782565797392,0.05,-0.03,1.01
410,1782565797443,0.05,-0.03,1.01
411,1782565797543,0.05,-0.03,1.01
412,1782565797709,0.05,-0.03,1.01
413,1782565797776,0.05,-0.03,1.01
414,1782565797843,0.05,-0.03,1.01
415,1782565797975,0.05,-0.03,1.01
416,1782565798026,0.05,-0.03,1.01
417,1782565798076,0.05,-0.03,1.01
418,1782565798125,0.05,-0.03,1.01
419,1782565798192,0.05,-0.03,1.01
420,1782565798209,0.05,-0.03,1.01
421,1782565798258,0.05,-0.03,1.01
422,1782565798325,0.05,-0.03,1.01
423,1782565798392,0.05,-0.03,1.01
424,1782565798425,0.05,-0.03,1.01
425,1782565798491,0.05,-0.03,1.01
426,1782565798559,0.05,-0.03,1.01
427,1782565798625,0.05,-0.03,1.01
428,1782565798741,0.05,-0.03,1.01
429,1782565798792,0.05,-0.03,1.01
430,1782565798825,0.05,-0.03,1.01
431,1782565798875,0.05,-0.03,1.01
432,1782565798942,0.05,-0.03,1.01
433,1782565799008,0.05,-0.03,1.01
434,1782565799026,0.05,-0.03,1.01
435,1782565799092,0.05,-0.03,1.01
436,1782565799158,0.05,-0.03,1.01
437,1782565799209,0.05,-0.03,1.01
438,1782565799258,0.05,-0.03,1.01
439,1782565799275,0.05,-0.03,1.01
440,1782565799291,0.05,-0.03,1.01
441,1782565799324,0.05,-0.03,1.01
442,1782565799341,0.05,-0.03,1.01
443,1782565799524,0.05,-0.03,1.01
444,1782565799541,0.05,-0.03,1.01
445,1782565799558,0.05,-0.03,1.01
446,1782565799590,0.05,-0.03,1.01
447,1782565799607,0.05,-0.03,1.01
448,1782565799657,0.05,-0.03,1.01
449,1782565799741,0.05,-0.03,1.01
450,1782565799808,0.05,-0.03,1.01
451,1782565799824,0.05,-0.03,1.01
452,1782565799840,0.05,-0.03,1.01
453,1782565799874,0.05,-0.03,1.01
454,1782565799890,0.05,-0.03,1.01
455,1782565799940,0.05,-0.03,1.01
456,1782565799974,0.05,-0.03,1.01
457,1782565800007,0.05,-0.03,1.01
458,1782565800040,0.05,-0.03,1.01
459,1782565800073,0.05,-0.03,1.01
460,1782565800091,0.05,-0.03,1.01
461,1782565800123,0.05,-0.03,1.01
462,1782565800173,0.05,-0.03,1.01
463,1782565800224,0.05,-0.03,1.01
464,1782565800274,0.05,-0.03,1.01
465,1782565800290,0.05,-0.03,1.01
466,1782565800340,0.05,-0.03,1.01
467,1782565800374,0.05,-0.03,1.01
468,1782565800391,0.05,-0.03,1.01
469,1782565800440,0.05,-0.03,1.01
470,1782565800490,0.05,-0.03,1.01
471,1782565800590,0.05,-0.02,1.01
472,1782565800673,0.05,-0.03,1.01
473,1782565800690,0.05,-0.03,1.01
474,1782565800724,0.05,-0.03,1.01
475,1782565800740,0.05,-0.03,1.01
476,1782565800789,0.05,-0.03,1.01
477,1782565800840,0.05,-0.03,1.01
478,1782565800889,0.05,-0.03,1.01
479,1782565800906,0.05,-0.03,1.01
480,1782565800940,0.05,-0.03,1.01
481,1782565800956,0.05,-0.03,1.01
482,1782565801073,0.05,-0.03,1.01
483,1782565801090,0.05,-0.03,1.01
484,1782565801157,0.05,-0.03,1.01
485,1782565801223,0.05,-0.03,1.01
486,1782565801323,0.05,-0.03,1.01
487,1782565801339,0.05,-0.03,1.01
488,1782565801373,0.05,-0.03,1.01
489,1782565801423,0.05,-0.03,1.01
490,1782565801439,0.05,-0.03,1.01
491,1782565801472,0.05,-0.03,1.01
492,1782565801523,0.05,-0.03,1.01
493,1782565801590,0.05,-0.03,1.01
494,1782565801689,0.05,-0.03,1.01
495,1782565801789,0.05,-0.03,1.01
496,1782565801823,0.05,-0.03,1.01
497,1782565801889,0.05,-0.03,1.01
498,1782565801939,0.05,-0.03,1.01
499,1782565802022,0.05,-0.03,1.01
500,1782565802105,0.05,-0.03,1.01
501,1782565802205,0.05,-0.03,1.01
502,1782565802272,0.05,-0.03,1.01
503,1782565802289,0.05,-0.03,1.01
504,1782565802371,0.05,-0.03,1.01
505,1782565802439,0.05,-0.03,1.01
506,1782565802522,0.05,-0.03,1.01
507,1782565802571,0.05,-0.03,1.01
508,1782565802656,0.05,-0.03,1.01
509,1782565802689,0.05,-0.03,1.01
510,1782565802738,0.05,-0.03,1.01
511,1782565802789,0.05,-0.03,1.01
512,1782565802988,0.05,-0.03,1.01
513,1782565803022,0.05,-0.03,1.01
514,1782565803171,0.05,-0.03,1.01
515,1782565803187,0.05,-0.03,1.01
516,1782565803221,0.05,-0.03,1.01
517,1782565803237,0.05,-0.03,1.01
518,1782565803271,0.05,-0.03,1.01
519,1782565803304,0.05,-0.03,1.01
520,1782565803371,0.05,-0.03,1.01
521,1782565803388,0.05,-0.03,1.01
522,1782565803504,0.05,-0.03,1.01
523,1782565803538,0.05,-0.03,1.01
524,1782565803554,0.05,-0.03,1.01
525,1782565803588,0.05,-0.03,1.01
526,1782565803637,0.05,-0.03,1.01
527,1782565803720,0.05,-0.03,1.01
528,1782565803737,0.05,-0.03,1.01
529,1782565803770,0.05,-0.03,1.01
530,1782565803788,0.05,-0.03,1.01
531,1782565803837,0.05,-0.03,1.01
532,1782565803937,0.05,-0.03,1.01
533,1782565803970,0.05,-0.03,1.01
534,1782565804037,0.05,-0.03,1.01
535,1782565804104,0.05,-0.03,1.01
536,1782565804137,0.05,-0.03,1.01
537,1782565804187,0.05,-0.03,1.01
538,1782565804270,0.05,-0.03,1.01
539,1782565804320,0.05,-0.03,1.01
540,1782565804353,0.05,-0.03,1.01
541,1782565804420,0.05,-0.03,1.01
542,1782565804470,0.05,-0.03,1.01
543,1782565804536,0.05,-0.03,1.01
544,1782565804603,0.05,-0.03,1.01
545,1782565804670,0.05,-0.03,1.01
546,1782565804737,0.05,-0.03,1.01
547,1782565804769,0.05,-0.03,1.01
548,1782565804819,0.05,-0.03,1.01
549,1782565804853,0.05,-0.03,1.01
550,1782565804952,0.05,-0.03,1.01
551,1782565804986,0.05,-0.03,1.01
552,1782565805036,0.05,-0.03,1.01
553,1782565805086,0.05,-0.03,1.01
554,1782565805153,0.05,-0.02,1.01
555,1782565805219,0.05,-0.02,1.01
556,1782565805286,0.05,-0.02,1.01
557,1782565805369,0.05,-0.02,1.01
558,1782565805452,0.05,-0.03,1.01
559,1782565805520,0.05,-0.03,1.01
560,1782565805553,0.05,-0.03,1.01
561,1782565805619,0.05,-0.03,1.01
562,1782565805703,0.05,-0.03,1.01
563,1782565805703,0.04,-0.03,1.01
564,1782565805770,0.04,-0.03,1.01
565,1782565805819,0.04,-0.03,1.02
566,1782565805885,0.04,-0.03,1.02
567,1782565805952,0.04,-0.03,1.02
568,1782565806003,0.05,-0.02,1
569,1782565806052,0.05,-0.02,1
570,1782565806102,0.05,-0.03,1
571,1782565806152,0.05,-0.03,1
572,1782565806202,0.04,-0.03,1
573,1782565806268,0.04,-0.03,1.01
574,1782565806336,0.05,-0.03,1.01
575,1782565806402,0.05,-0.03,1.01
576,1782565806435,0.05,-0.03,1
577,1782565806485,0.05,-0.03,1
578,1782565806552,0.05,-0.03,1
579,1782565806602,0.05,-0.03,1.01
580,1782565806618,0.04,-0.03,1.01
581,1782565806718,0.04,-0.03,1.01
582,1782565806801,0.05,-0.03,1.01
583,1782565806852,0.05,-0.03,1.02
584,1782565806885,0.05,-0.02,1.02
585,1782565806901,0.05,-0.02,1.01
586,1782565806901,0.05,-0.02,1.01
587,1782565807002,0.05,-0.02,1.01
588,1782565807102,0.05,-0.03,1.01
589,1782565807134,0.05,-0.03,1.02
590,1782565807151,0.05,-0.03,1.02
591,1782565807169,0.05,-0.03,1.02
592,1782565807201,0.05,-0.03,1.01
593,1782565807252,0.05,-0.03,1.01
594,1782565807318,0.05,-0.03,1.01
595,1782565807401,0.05,-0.02,1.01
596,1782565807435,0.05,-0.02,1.01
597,1782565807468,0.05,-0.02,1.01
598,1782565807501,0.05,-0.03,1.01
599,1782565807551,0.05,-0.03,1.01
600,1782565807584,0.05,-0.03,1.01
601,1782565807618,0.05,-0.03,1.01
602,1782565807700,0.05,-0.03,1.01
603,1782565807734,0.05,-0.03,1.01
604,1782565807801,0.05,-0.03,1.01
605,1782565807851,0.05,-0.03,1.01
606,1782565807867,0.05,-0.03,1.01
607,1782565807967,0.05,-0.03,1.01
608,1782565807984,0.05,-0.03,1.01
609,1782565808017,0.05,-0.03,1.01
610,1782565808050,0.05,-0.03,1.01
611,1782565808134,0.05,-0.03,1.02
612,1782565808150,0.05,-0.03,1.02
613,1782565808167,0.05,-0.03,1.02
614,1782565808200,0.05,-0.03,1.01
615,1782565808217,0.05,-0.03,1.01
616,1782565808250,0.05,-0.03,1.01
617,1782565808366,0.05,-0.03,1.01
618,1782565808417,0.05,-0.03,1.01
619,1782565808483,0.04,-0.03,1.02
620,1782565808500,0.04,-0.03,1.02
621,1782565808533,0.04,-0.03,1.02
622,1782565808567,0.05,-0.03,1.02
623,1782565808616,0.05,-0.03,1.02
624,1782565808650,0.05,-0.03,1.01
625,1782565808684,0.05,-0.03,1.01
626,1782565808717,0.05,-0.03,1.01
627,1782565808733,0.04,-0.03,1.01
628,1782565808783,0.04,-0.03,1.01
629,1782565808833,0.04,-0.03,1.02
630,1782565808883,0.05,-0.03,1.02
631,1782565808933,0.05,-0.03,1.02
632,1782565808983,0.05,-0.03,1.02
633,1782565809182,0.05,-0.03,1.01
634,1782565809283,0.05,-0.03,1.01
635,1782565809366,0.05,-0.03,1.01
636,1782565809533,0.05,-0.03,1.01
637,1782565809566,0.05,-0.03,1.01
638,1782565809599,0.05,-0.03,1.01
639,1782565809616,0.05,-0.03,1.01
640,1782565809749,0.05,-0.03,1.01
641,1782565809832,0.05,-0.03,1.01
642,1782565809883,0.05,-0.03,1.01
643,1782565809899,0.05,-0.03,1.01
644,1782565809949,0.05,-0.03,1.01
645,1782565809999,0.05,-0.03,1.01
646,1782565810015,0.05,-0.03,1.01
647,1782565810049,0.05,-0.03,1.01
648,1782565810065,0.04,-0.03,1.01
649,1782565810082,0.04,-0.03,1.01
650,1782565810165,0.04,-0.03,1.01
651,1782565810199,0.05,-0.02,1.01
652,1782565810298,0.05,-0.02,1.01
653,1782565810315,0.05,-0.02,1.02
654,1782565810365,0.05,-0.02,1.02
655,1782565810399,0.05,-0.02,1.02
656,1782565810448,0.05,-0.03,1.02
657,1782565810548,0.05,-0.03,1.01
658,1782565810581,0.05,-0.03,1.01
659,1782565810599,0.05,-0.03,1.01
660,1782565810632,0.05,-0.03,1.01
661,1782565810648,0.05,-0.03,1.01
662,1782565810698,0.05,-0.03,1.01
663,1782565810748,0.05,-0.03,1.01
664,1782565810765,0.05,-0.03,1.01
665,1782565810798,0.05,-0.03,1.01
666,1782565810815,0.05,-0.02,1.01
667,1782565810898,0.05,-0.03,1.01
668,1782565810981,0.05,-0.03,1.01
669,1782565811032,0.05,-0.03,1.01
670,1782565811097,0.05,-0.03,1.01
671,1782565811131,0.05,-0.02,1.01
672,1782565811147,0.05,-0.02,1.01
673,1782565811181,0.05,-0.02,1.01
674,1782565811198,0.05,-0.02,1.02
675,1782565811231,0.05,-0.02,1.02
676,1782565811348,0.05,-0.02,1.02
677,1782565811398,0.05,-0.02,1.02
678,1782565811414,0.05,-0.03,1.01
679,1782565811464,0.05,-0.03,1.01
680,1782565811531,0.05,-0.03,1.01
681,1782565811597,0.05,-0.03,1.01
682,1782565811664,0.05,-0.03,1.01
683,1782565811698,0.05,-0.02,1.02
684,1782565811764,0.05,-0.02,1.02
685,1782565811831,0.05,-0.03,1.01
686,1782565811963,0.05,-0.03,1.01
687,1782565812014,0.04,-0.03,1.01
688,1782565812063,0.04,-0.03,1.02
689,1782565812113,0.04,-0.03,1.02
690,1782565812197,0.04,-0.03,1.02
691,1782565812247,0.05,-0.03,1.02
692,1782565812263,0.05,-0.03,1.01
693,1782565812281,0.05,-0.03,1.01
694,1782565812347,0.05,-0.03,1.01
695,1782565812396,0.05,-0.03,1.01
696,1782565812446,0.05,-0.03,1.01
697,1782565812546,0.05,-0.03,1.01
698,1782565812614,0.05,-0.03,1.01
699,1782565812713,0.05,-0.03,1.01
700,1782565812779,0.05,-0.03,1.01
701,1782565812847,0.05,-0.03,1.01
702,1782565812880,0.05,-0.03,1.01
703,1782565812979,0.05,-0.03,1.01
704,1782565813063,0.05,-0.03,1.01
705,1782565813130,0.05,-0.03,1.01
706,1782565813180,0.05,-0.03,1.01
707,1782565813246,0.05,-0.03,1.01
708,1782565813280,0.05,-0.03,1.01
709,1782565813346,0.05,-0.03,1.01
710,1782565813396,0.05,-0.03,1.01
711,1782565813562,0.05,-0.03,1.01
712,1782565813646,0.05,-0.03,1.01
713,1782565813679,0.05,-0.03,1.01
714,1782565813712,0.04,-0.03,1.01
715,1782565813730,0.05,-0.03,1.01
716,1782565813779,0.05,-0.03,1.01
717,1782565813812,0.05,-0.03,1.01
718,1782565813846,0.05,-0.03,1.01
719,1782565813862,0.05,-0.03,1.01
720,1782565813878,0.05,-0.03,1.01
721,1782565813912,0.05,-0.03,1.02
722,1782565813979,0.05,-0.03,1.02
723,1782565814045,0.04,-0.03,1.01
724,1782565814079,0.04,-0.03,1.01
725,1782565814096,0.04,-0.03,1.01
726,1782565814145,0.04,-0.03,1.01
727,1782565814245,0.04,-0.03,1.01
728,1782565814278,0.04,-0.03,1.01
729,1782565814379,0.05,-0.03,1.01
730,1782565814395,0.05,-0.03,1.01
731,1782565814428,0.05,-0.03,1.01
732,1782565814445,0.05,-0.03,1.01
733,1782565814462,0.05,-0.03,1.01
734,1782565814495,0.05,-0.03,1.01
735,1782565814561,0.05,-0.03,1.01
736,1782565814628,0.05,-0.03,1.02
737,1782565814662,0.05,-0.03,1.02
738,1782565814695,0.05,-0.03,1.02
739,1782565814728,0.05,-0.03,1.02
740,1782565814778,0.05,-0.03,1.01
741,1782565814894,0.05,-0.03,1.01
742,1782565814945,0.05,-0.03,1.01
743,1782565815011,0.05,-0.03,1.01
744,1782565815028,0.05,-0.03,1.01
745,1782565815112,0.05,-0.03,1.01
746,1782565815145,0.05,-0.03,1.01
747,1782565815177,0.05,-0.02,1.02
748,1782565815228,0.05,-0.02,1.02
749,1782565815261,0.05,-0.03,1.02
750,1782565815278,0.05,-0.03,1.02
751,1782565815311,0.05,-0.03,1.02
752,1782565815330,0.05,-0.03,1.01
753,1782565815344,0.05,-0.03,1.01
754,1782565815428,0.04,-0.03,1.01
755,1782565815461,0.04,-0.03,1.01
756,1782565815528,0.05,-0.03,1.01
757,1782565815627,0.05,-0.03,1.01
758,1782565815644,0.05,-0.03,1.01
759,1782565815661,0.05,-0.03,1.01
760,1782565815695,0.05,-0.03,1.02
761,1782565815794,0.05,-0.03,1.01
762,1782565815910,0.05,-0.03,1.01
763,1782565815927,0.05,-0.03,1.01
764,1782565815944,0.05,-0.03,1.01
765,1782565815977,0.05,-0.02,1.01
766,1782565816060,0.05,-0.03,1.01
767,1782565816110,0.05,-0.03,1.01
768,1782565816144,0.05,-0.03,1.01
769,1782565816177,0.05,-0.03,1.01
770,1782565816210,0.05,-0.03,1.01
771,1782565816243,0.05,-0.03,1.01
772,1782565816294,0.05,-0.03,1.01
773,1782565816327,0.05,-0.03,1.01
774,1782565816377,0.05,-0.03,1.01
775,1782565816444,0.05,-0.03,1.01
776,1782565816476,0.05,-0.03,1.01
777,1782565816543,0.05,-0.03,1.01
778,1782565816693,0.05,-0.03,1.02
779,1782565816727,0.05,-0.03,1.02
780,1782565816793,0.05,-0.03,1.01
781,1782565816860,0.05,-0.03,1.01
782,1782565816910,0.05,-0.03,1.02
783,1782565816926,0.05,-0.03,1.01
784,1782565816993,0.05,-0.03,1.01
785,1782565817043,0.05,-0.03,1.01
786,1782565817110,0.05,-0.03,1.01
787,1782565817143,0.05,-0.03,1.01
788,1782565817193,0.04,-0.03,1.01
789,1782565817276,0.05,-0.03,1.01
790,1782565817359,0.05,-0.03,1.01
791,1782565817409,0.05,-0.03,1.02
792,1782565817476,0.05,-0.03,1.02
793,1782565817509,0.05,-0.03,1.01
794,1782565817559,0.05,-0.03,1.01
795,1782565817609,0.05,-0.03,1.01
796,1782565817676,0.05,-0.03,1.01
797,1782565817742,0.05,-0.03,1.01
798,1782565817825,0.05,-0.03,1.01
799,1782565817926,0.05,-0.03,1.01
800,1782565817975,0.05,-0.03,1.01
801,1782565818058,0.05,-0.03,1.02
802,1782565818142,0.05,-0.03,1.01
803,1782565818192,0.05,-0.03,1.01
804,1782565818258,0.05,-0.03,1.01
805,1782565818292,0.05,-0.03,1.01
806,1782565818342,0.05,-0.03,1.01
807,1782565818425,0.05,-0.03,1.01
808,1782565818475,0.05,-0.03,1.01
809,1782565818542,0.05,-0.03,1.01
810,1782565818591,0.05,-0.03,1.01
811,1782565818658,0.05,-0.03,1.01
812,1782565818708,0.05,-0.03,1.01
813,1782565818758,0.05,-0.03,1.01
814,1782565818808,0.05,-0.03,1.01
815,1782565818875,0.05,-0.03,1.01
816,1782565818924,0.05,-0.03,1.01
817,1782565818941,0.05,-0.03,1.01
818,1782565818991,0.04,-0.02,1.02
819,1782565819041,0.04,-0.02,1.02
820,1782565819091,0.04,-0.03,1.02
821,1782565819141,0.04,-0.03,1.02
822,1782565819191,0.04,-0.03,1.01
823,1782565819224,0.04,-0.03,1.01
824,1782565819292,0.04,-0.03,1.01
825,1782565819325,0.04,-0.03,1.01
826,1782565819374,0.04,-0.03,1.01
827,1782565819424,0.04,-0.03,1.01
828,1782565819473,0.04,-0.03,1.02
829,1782565819491,0.05,-0.03,1.02
830,1782565819524,0.05,-0.03,1.02
831,1782565819540,0.05,-0.03,1.02
832,1782565819574,0.05,-0.03,1.01
833,1782565819624,0.05,-0.03,1.01
834,1782565819674,0.05,-0.03,1.02
835,1782565819692,0.05,-0.03,1.02
836,1782565819707,0.05,-0.03,1.02
837,1782565819741,0.05,-0.03,1.01
838,1782565819840,0.05,-0.03,1.02
839,1782565819891,0.05,-0.03,1.02
840,1782565819924,0.05,-0.03,1.02
841,1782565819957,0.05,-0.03,1.01
842,1782565819974,0.05,-0.02,1.01
843,1782565820057,0.05,-0.02,1.01
844,1782565820106,0.05,-0.02,1.01
845,1782565820123,0.05,-0.03,1.01
846,1782565820157,0.05,-0.03,1.01
847,1782565820191,0.05,-0.03,1.01
848,1782565820224,0.05,-0.03,1.01
849,1782565820241,0.05,-0.03,1.01
850,1782565820273,0.05,-0.03,1.02
851,1782565820290,0.05,-0.03,1.02
852,1782565820356,0.05,-0.03,1.02
853,1782565820423,0.05,-0.03,1.02
854,1782565820440,0.05,-0.03,1.02
855,1782565820456,0.05,-0.03,1.02
856,1782565820490,0.04,-0.03,1.02
857,1782565820573,0.04,-0.03,1.01
858,1782565820656,0.04,-0.03,1.01
859,1782565820689,0.04,-0.03,1.02
860,1782565820823,0.04,-0.03,1.02
861,1782565820873,0.04,-0.03,1.02
862,1782565820907,0.04,-0.03,1.01
863,1782565820923,0.04,-0.03,1.01
864,1782565820940,0.04,-0.03,1.01
865,1782565820972,0.05,-0.03,1.02
866,1782565821023,0.05,-0.03,1.02
867,1782565821072,0.05,-0.03,1.01
868,1782565821106,0.05,-0.03,1.01
869,1782565821156,0.05,-0.03,1.01
870,1782565821189,0.05,-0.03,1.01
871,1782565821206,0.05,-0.03,1.02
872,1782565821256,0.05,-0.03,1.02
873,1782565821306,0.05,-0.03,1.02
874,1782565821490,0.06,-0.02,1.01
875,1782565821655,0.05,-0.02,1.01
876,1782565821739,0.05,-0.02,1.01
877,1782565821789,0.05,-0.02,1.01
878,1782565821855,0.05,-0.02,1.01
879,1782565821889,0.05,-0.02,1.01
880,1782565821905,0.05,-0.02,1.01
881,1782565821955,0.05,-0.02,1.01
882,1782565822105,0.05,-0.03,1.01
883,1782565822155,0.03,-0.03,1.01
884,1782565822172,0.03,-0.03,1.01
885,1782565822272,0.03,-0.03,1.01
886,1782565822355,0.03,-0.03,1.01
887,1782565822439,0.04,-0.03,1.01
888,1782565822471,0.04,-0.03,1.01
889,1782565822605,0.04,-0.03,1.01
890,1782565822622,0.04,-0.03,1.01
891,1782565822638,0.04,-0.03,1.02
892,1782565822688,0.04,-0.03,1.02
893,1782565822688,0.04,-0.03,1.01
894,1782565822822,0.04,-0.03,1.01
895,1782565822838,0.04,-0.03,1.01
896,1782565822854,0.04,-0.03,1.01
897,1782565822921,0.04,-0.03,1.01
898,1782565822987,0.04,-0.03,1.01
899,1782565823021,0.05,-0.03,1.01
900,1782565823071,0.05,-0.03,1.01
901,1782565823105,0.06,-0.02,1.01
902,1782565823138,0.06,-0.02,1.01
903,1782565823272,0.07,-0.02,1.01
904,1782565823337,0.07,-0.02,1.01
905,1782565823404,0.07,-0.02,1.01
906,1782565823438,0.07,-0.03,1.01
907,1782565823454,0.07,-0.03,1.01
908,1782565823505,0.08,-0.03,1.02
909,1782565823571,0.08,-0.03,1.02
910,1782565823605,0.05,-0.03,1.01
911,1782565823671,0.05,-0.02,1.01
912,1782565823738,0.05,-0.02,1.01
913,1782565823770,0.05,-0.02,1.01
914,1782565823820,0.05,-0.03,1.01
915,1782565823888,0.05,-0.03,1.02
916,1782565823921,0.05,-0.02,1.01
917,1782565823970,0.05,-0.03,1.02
918,1782565824154,0.05,-0.03,1.02
919,1782565824187,0.04,-0.03,1.01
920,1782565824271,0.04,-0.03,1.01
921,1782565824320,0.04,-0.03,1.01
922,1782565824387,0.04,-0.03,1.01
923,1782565824420,0.03,-0.03,1.01
924,1782565824437,0.03,-0.03,1.01
925,1782565824470,0.03,-0.03,1.01
926,1782565824537,0.03,-0.03,1.01
927,1782565824570,0.03,-0.03,1.02
928,1782565824620,0.03,-0.03,1.02
929,1782565824669,0.03,-0.03,1.02
930,1782565824703,0.03,-0.03,1.01
931,1782565824736,0.03,-0.03,1.01
932,1782565824754,0.04,-0.03,1.02
933,1782565824769,0.05,-0.02,1.02
934,1782565824837,0.06,-0.02,1.02
935,1782565824887,0.07,-0.02,1.02
936,1782565824953,0.07,-0.02,1.02
937,1782565824986,0.07,-0.02,1.01
938,1782565825052,0.05,-0.03,1.01
939,1782565825086,0.05,-0.02,1.01
940,1782565825152,0.05,-0.02,1.01
941,1782565825253,0.07,-0.02,1.02
942,1782565825285,0.08,-0.02,1.01
943,1782565825352,0.08,-0.02,1.01
944,1782565825369,0.08,-0.02,1.01
945,1782565825403,0.08,-0.02,1
946,1782565825453,0.07,-0.02,1
947,1782565825503,0.07,-0.02,1
948,1782565825569,0.05,-0.03,1.01
949,1782565825653,0.05,-0.03,1.01
950,1782565825785,0.05,-0.04,1.03
951,1782565825835,0.04,-0.03,1.02
952,1782565825853,0.05,-0.03,1.03
953,1782565825869,0.05,-0.03,1.03
954,1782565825903,0.05,-0.03,1.03
955,1782565825935,0.05,-0.03,1.01
956,1782565826002,0.05,-0.02,1
957,1782565826052,0.05,-0.02,1
958,1782565826119,0.04,-0.02,1
959,1782565826152,0.04,-0.02,1.02
960,1782565826185,0.03,-0.03,1.01
961,1782565826252,0.03,-0.03,1.01
962,1782565826668,0.04,-0.03,1.01
963,1782565826719,0.04,-0.03,1.01
964,1782565826769,0.04,-0.03,1.01
965,1782565826835,0.04,-0.03,1.01
966,1782565826918,0.04,-0.02,1.01
967,1782565826968,0.05,-0.02,1.01
968,1782565827035,0.06,-0.02,1.01
969,1782565827084,0.06,-0.03,1.01
970,1782565827118,0.06,-0.03,1.01
971,1782565827184,0.06,-0.03,1.01
972,1782565827234,0.06,-0.03,1.01
973,1782565827351,0.04,-0.03,1.01
974,1782565827401,0.05,-0.03,1.01
975,1782565827451,0.05,-0.03,1.01
976,1782565827517,0.05,-0.03,1.01
977,1782565827551,0.05,-0.03,1.01
978,1782565827634,0.04,-0.03,1.01
979,1782565827783,0.04,-0.03,1.01
980,1782565827850,0.04,-0.03,1.01
981,1782565827934,0.05,-0.03,1.01
982,1782565827984,0.05,-0.03,1.01
983,1782565828034,0.05,-0.03,1.01
984,1782565828100,0.05,-0.03,1.01
985,1782565828134,0.05,-0.03,1.02
986,1782565828201,0.04,-0.03,1.01
987,1782565828267,0.04,-0.03,1.01
988,1782565828367,0.04,-0.03,1.01
989,1782565828400,0.04,-0.03,1.01
990,1782565828451,0.05,-0.03,1.01
991,1782565828517,0.05,-0.03,1.02
992,1782565828585,0.05,-0.03,1.02
993,1782565828618,0.05,-0.03,1.01
994,1782565828650,0.05,-0.03,1.01
995,1782565828667,0.05,-0.03,1.01
996,1782565828684,0.05,-0.03,1.01
997,1782565828717,0.05,-0.03,1.01
998,1782565828766,0.05,-0.03,1.01
999,1782565828816,0.04,-0.03,1.01
1000,1782565828909,0.04,-0.03,1.01
1001,1782565828950,0.04,-0.03,1.01
1002,1782565828983,0.04,-0.03,1.01
1003,1782565829016,0.04,-0.03,1.01
1004,1782565829033,0.04,-0.03,1.02
1005,1782565829101,0.05,-0.03,1.01
1006,1782565829166,0.05,-0.03,1.01
1007,1782565829183,0.05,-0.03,1.01
1008,1782565829200,0.05,-0.03,1.01
1009,1782565829234,0.05,-0.03,1.01
1010,1782565829250,0.05,-0.03,1.01
1011,1782565829316,0.05,-0.03,1.01
1012,1782565829400,0.04,-0.03,1.01
1013,1782565829433,0.04,-0.03,1.01
1014,1782565829500,0.04,-0.03,1.01
1015,1782565829616,0.04,-0.03,1.02
1016,1782565829632,0.04,-0.03,1.02
1017,1782565829683,0.04,-0.03,1.02
1018,1782565829749,0.04,-0.03,1.02
1019,1782565829766,0.04,-0.03,1.02
1020,1782565829783,0.04,-0.03,1.02
1021,1782565829817,0.04,-0.03,1.02
1022,1782565829832,0.04,-0.03,1.02
1023,1782565829865,0.04,-0.03,1.01
1024,1782565829916,0.05,-0.03,1.01
1025,1782565829982,0.05,-0.03,1.01
1026,1782565829999,0.05,-0.03,1.01
1027,1782565830099,0.05,-0.03,1.01
1028,1782565830148,0.05,-0.03,1.01
1029,1782565830182,0.05,-0.03,1.01
1030,1782565830315,0.05,-0.03,1.01
1031,1782565830365,0.05,-0.03,1.01
1032,1782565830415,0.05,-0.03,1.01
1033,1782565830432,0.05,-0.03,1.01
1034,1782565830465,0.05,-0.03,1.01
1035,1782565830498,0.04,-0.03,1.01
1036,1782565830598,0.04,-0.03,1.01
1037,1782565830665,0.04,-0.03,1.01
1038,1782565830698,0.04,-0.03,1.01
1039,1782565830732,0.04,-0.03,1.01
1040,1782565830748,0.04,-0.03,1.02
1041,1782565830798,0.04,-0.03,1.02
1042,1782565830864,0.04,-0.03,1.02
1043,1782565830915,0.04,-0.03,1.02
1044,1782565830932,0.04,-0.03,1.02
1045,1782565830964,0.04,-0.03,1.01
1046,1782565830982,0.04,-0.03,1.01
1047,1782565830998,0.04,-0.03,1.01
1048,1782565831048,0.05,-0.03,1.01
1049,1782565831115,0.06,-0.03,1.01
1050,1782565831231,0.06,-0.03,1.01
1051,1782565831248,0.06,-0.03,1.01
1052,1782565831314,0.06,-0.03,1.01
1053,1782565831364,0.05,-0.03,1.01
1054,1782565831381,0.05,-0.03,1.01
1055,1782565831431,0.05,-0.03,1.01
1056,1782565831464,0.05,-0.02,1.01
1057,1782565831498,0.05,-0.02,1.01
1058,1782565831597,0.05,-0.02,1.01
1059,1782565831664,0.05,-0.03,1.01
1060,1782565831781,0.05,-0.03,1.01
1061,1782565831830,0.05,-0.03,1.01
1062,1782565831881,0.05,-0.03,1.01
1063,1782565831947,0.05,-0.03,1.01
1064,1782565832047,0.05,-0.03,1.01
1065,1782565832063,0.05,-0.03,1.01
1066,1782565832114,0.05,-0.03,1.01
1067,1782565832164,0.05,-0.03,1.01
1068,1782565832230,0.05,-0.03,1.01
1069,1782565832280,0.05,-0.03,1.01
1070,1782565832297,0.05,-0.03,1.01
1071,1782565832313,0.05,-0.03,1.01
1072,1782565832348,0.05,-0.03,1.01
1073,1782565832413,0.05,-0.03,1.01
1074,1782565832546,0.05,-0.03,1.01
1075,1782565832646,0.05,-0.03,1.01
1076,1782565832667,0.05,-0.03,1.01
1077,1782565832696,0.05,-0.03,1.01
1078,1782565832745,0.05,-0.03,1.01
1079,1782565832762,0.05,-0.03,1.01
1080,1782565832845,0.05,-0.03,1.01
1081,1782565832862,0.05,-0.03,1.01
1082,1782565832929,0.05,-0.03,1.01
1083,1782565832994,0.05,-0.03,1.01
1084,1782565833013,0.05,-0.03,1.01
1085,1782565833046,0.05,-0.03,1.01
1086,1782565833096,0.05,-0.03,1.01
1087,1782565833147,0.05,-0.03,1.01
1088,1782565833163,0.05,-0.03,1.01
1089,1782565833196,0.05,-0.03,1.01
1090,1782565833262,0.05,-0.03,1.01
1091,1782565833329,0.05,-0.03,1.01
1092,1782565833362,0.05,-0.03,1.01
1093,1782565833379,0.05,-0.03,1.01
1094,1782565833412,0.05,-0.03,1.01
1095,1782565833463,0.05,-0.03,1.01
1096,1782565833479,0.05,-0.03,1.01
1097,1782565833529,0.05,-0.03,1.01
1098,1782565833579,0.05,-0.03,1.01
1099,1782565833629,0.05,-0.03,1.01
1100,1782565833646,0.06,-0.03,1.01
1101,1782565833679,0.05,-0.03,1.01
1102,1782565833696,0.05,-0.03,1.01
1103,1782565833746,0.05,-0.03,1.01
1104,1782565833779,0.05,-0.03,1.01
1105,1782565833845,0.05,-0.03,1.01
1106,1782565833912,0.05,-0.03,1.01
1107,1782565833979,0.04,-0.03,1.01
1108,1782565834046,0.04,-0.03,1.01
1109,1782565834112,0.04,-0.03,1.01
1110,1782565834162,0.04,-0.03,1.01
1111,1782565834211,0.04,-0.03,1.01
1112,1782565834228,0.04,-0.03,1.01
1113,1782565834278,0.04,-0.03,1.01
1114,1782565834312,0.04,-0.03,1.01
1115,1782565834361,0.04,-0.02,1.01
1116,1782565834428,0.04,-0.02,1.01
1117,1782565834478,0.04,-0.02,1.01
1118,1782565834528,0.04,-0.02,1.01
1119,1782565834612,0.04,-0.03,1.01
1120,1782565834628,0.04,-0.03,1.01
1121,1782565834678,0.04,-0.03,1.01
1122,1782565834745,0.04,-0.03,1.01
1123,1782565834794,0.05,-0.03,1.02
1124,1782565834828,0.05,-0.03,1.01
1125,1782565834845,0.05,-0.03,1.01
1126,1782565834878,0.05,-0.03,1.01
1127,1782565834911,0.04,-0.03,1.01
1128,1782565834961,0.04,-0.03,1.01
1129,1782565835011,0.04,-0.03,1.01
1130,1782565835111,0.04,-0.03,1.01
1131,1782565835128,0.04,-0.03,1.01
1132,1782565835161,0.04,-0.03,1.01
1133,1782565835194,0.04,-0.03,1.01
1134,1782565835261,0.04,-0.03,1.01
1135,1782565835311,0.05,-0.03,1.01
1136,1782565835361,0.05,-0.03,1.01
1137,1782565835394,0.05,-0.03,1.01
1138,1782565835427,0.05,-0.03,1.01
1139,1782565835460,0.05,-0.03,1.01
1140,1782565835527,0.05,-0.03,1.01
1141,1782565835561,0.05,-0.03,1.01
1142,1782565835610,0.05,-0.03,1.01
1143,1782565835710,0.05,-0.02,1.01
1144,1782565835760,0.05,-0.03,1.01
1145,1782565835827,0.05,-0.03,1.01
1146,1782565835860,0.05,-0.03,1.01
1147,1782565835910,0.05,-0.03,1.02
1148,1782565835978,0.05,-0.03,1.02
1149,1782565836060,0.05,-0.03,1.01
1150,1782565836144,0.05,-0.03,1.01
1151,1782565836210,0.04,-0.03,1.01
1152,1782565836227,0.04,-0.03,1.01
1153,1782565836243,0.04,-0.03,1.01
1154,1782565836276,0.04,-0.03,1.01
1155,1782565836276,0.04,-0.03,1.01
1156,1782565836327,0.04,-0.03,1.01
1157,1782565836376,0.05,-0.03,1.01
1158,1782565836444,0.05,-0.03,1.01
1159,1782565836476,0.05,-0.03,1.01
1160,1782565836560,0.05,-0.03,1.01
1161,1782565836576,0.05,-0.03,1.01
1162,1782565836626,0.05,-0.03,1.01
1163,1782565836677,0.05,-0.03,1.01
1164,1782565836727,0.05,-0.03,1.01
1165,1782565836760,0.05,-0.03,1.01
1166,1782565836793,0.05,-0.03,1.01
1167,1782565836843,0.05,-0.03,1.01
1168,1782565836860,0.05,-0.03,1.01
1169,1782565836909,0.05,-0.03,1.01
1170,1782565836959,0.05,-0.03,1.01
1171,1782565837010,0.05,-0.03,1.01
1172,1782565837042,0.05,-0.03,1.01
1173,1782565837076,0.05,-0.03,1.01
1174,1782565837092,0.05,-0.03,1.01
1175,1782565837126,0.05,-0.03,1.01
1176,1782565837176,0.05,-0.03,1.01
1177,1782565837260,0.05,-0.03,1.01
1178,1782565837309,0.05,-0.03,1.01
1179,1782565837342,0.05,-0.03,1.01
1180,1782565837376,0.05,-0.03,1.01
1181,1782565837393,0.05,-0.03,1.01
1182,1782565837409,0.05,-0.03,1.01
1183,1782565837442,0.05,-0.03,1.01
1184,1782565837492,0.05,-0.03,1.01
1185,1782565837625,0.05,-0.03,1.01
1186,1782565837642,0.05,-0.03,1.01
1187,1782565837659,0.05,-0.03,1.01
1188,1782565837692,0.05,-0.03,1.01
1189,1782565837759,0.05,-0.03,1.01
1190,1782565837809,0.05,-0.03,1.01
1191,1782565837858,0.05,-0.03,1.01
1192,1782565837942,0.04,-0.03,1.01
1193,1782565837975,0.04,-0.03,1.01
1194,1782565838009,0.04,-0.03,1.01
1195,1782565838042,0.05,-0.03,1.01
1196,1782565838092,0.05,-0.03,1.01
1197,1782565838108,0.05,-0.03,1.01
1198,1782565838125,0.05,-0.03,1.01
1199,1782565838158,0.05,-0.03,1.01
1200,1782565838176,0.05,-0.03,1.01
1201,1782565838225,0.05,-0.03,1.01
1202,1782565838275,0.05,-0.03,1.01
1203,1782565838325,0.05,-0.03,1.01
1204,1782565838375,0.05,-0.03,1.01
1205,1782565838392,0.04,-0.03,1.01
1206,1782565838442,0.04,-0.03,1.01
1207,1782565838492,0.05,-0.03,1.01
1208,1782565838541,0.05,-0.03,1.01
1209,1782565838624,0.05,-0.03,1.01
1210,1782565838691,0.05,-0.03,1.01
1211,1782565838758,0.05,-0.03,1.01
1212,1782565838859,0.05,-0.03,1.01
1213,1782565838925,0.05,-0.03,1.01
1214,1782565838958,0.05,-0.03,1.01
1215,1782565838975,0.05,-0.03,1.01
1216,1782565839124,0.05,-0.03,1.01
1217,1782565839157,0.05,-0.03,1.01
1218,1782565839224,0.05,-0.03,1.01
1219,1782565839257,0.05,-0.03,1.01
1220,1782565839324,0.05,-0.03,1.01
1221,1782565839375,0.05,-0.03,1.01
1222,1782565839424,0.05,-0.03,1.01
1223,1782565839524,0.05,-0.03,1.01
1224,1782565839574,0.05,-0.03,1.01
1225,1782565839624,0.05,-0.03,1.01
1226,1782565839674,0.04,-0.03,1.01
1227,1782565839724,0.04,-0.03,1.01
1228,1782565839741,0.05,-0.03,1.01
1229,1782565839773,0.05,-0.03,1.01
1230,1782565839807,0.05,-0.03,1.01
1231,1782565839823,0.05,-0.03,1.01
1232,1782565839874,0.05,-0.03,1.01
1233,1782565839924,0.05,-0.03,1.01
1234,1782565839957,0.05,-0.03,1.01
1235,1782565839974,0.05,-0.03,1.01
1236,1782565839991,0.05,-0.03,1.01
1237,1782565840023,0.05,-0.03,1.01
1238,1782565840040,0.05,-0.03,1.01
1239,1782565840124,0.05,-0.03,1.01
1240,1782565840141,0.05,-0.03,1.01
1241,1782565840206,0.05,-0.03,1.01
1242,1782565840257,0.05,-0.03,1.01
1243,1782565840273,0.05,-0.03,1.01
1244,1782565840290,0.05,-0.03,1.01
1245,1782565840323,0.05,-0.03,1.01
1246,1782565840340,0.05,-0.03,1.01
1247,1782565840390,0.05,-0.03,1.01
1248,1782565840489,0.05,-0.03,1.01
1249,1782565840506,0.05,-0.03,1.01
1250,1782565840523,0.05,-0.03,1.01
1251,1782565840557,0.05,-0.03,1.01
1252,1782565840573,0.05,-0.03,1.01
1253,1782565840606,0.05,-0.03,1.01
1254,1782565840673,0.05,-0.03,1.01
1255,1782565840739,0.05,-0.03,1.01
1256,1782565840806,0.05,-0.03,1.01
1257,1782565840856,0.05,-0.03,1.01
1258,1782565840923,0.05,-0.03,1.01
1259,1782565840956,0.05,-0.03,1.01
1260,1782565841006,0.05,-0.03,1.01
1261,1782565841073,0.05,-0.03,1.01
1262,1782565841106,0.05,-0.03,1.01
1263,1782565841173,0.05,-0.03,1.01
1264,1782565841223,0.05,-0.03,1.01
1265,1782565841256,0.05,-0.03,1.01
1266,1782565841306,0.05,-0.03,1.01
1267,1782565841356,0.05,-0.03,1.01
1268,1782565841405,0.05,-0.03,1.01
1269,1782565841439,0.05,-0.03,1.01
1270,1782565841556,0.05,-0.03,1.01
1271,1782565841622,0.05,-0.03,1.01
1272,1782565841705,0.05,-0.03,1.01
1273,1782565841755,0.05,-0.03,1.01
1274,1782565841788,0.05,-0.03,1.01
1275,1782565841855,0.05,-0.03,1.01
1276,1782565841872,0.05,-0.03,1.01
1277,1782565841939,0.05,-0.03,1.01
1278,1782565841955,0.05,-0.03,1.01
1279,1782565842005,0.05,-0.03,1.01
1280,1782565842056,0.05,-0.03,1.01
1281,1782565842138,0.05,-0.03,1.01
1282,1782565842171,0.05,-0.03,1.01
1283,1782565842238,0.05,-0.03,1.01
1284,1782565842288,0.04,-0.03,1.01
1285,1782565842321,0.04,-0.03,1.01
1286,1782565842372,0.05,-0.03,1.01
1287,1782565842421,0.05,-0.03,1.01
1288,1782565842438,0.05,-0.03,1.01
1289,1782565842455,0.05,-0.03,1.01
1290,1782565842489,0.05,-0.03,1.01
1291,1782565842555,0.05,-0.03,1.01
1292,1782565842622,0.05,-0.03,1.01
1293,1782565842671,0.05,-0.03,1.01
1294,1782565842738,0.05,-0.03,1.01
1295,1782565842755,0.05,-0.03,1.01
1296,1782565842788,0.05,-0.03,1.01
1297,1782565842821,0.05,-0.03,1.01
1298,1782565842838,0.05,-0.03,1.01
1299,1782565842888,0.05,-0.03,1.01
1300,1782565842921,0.05,-0.03,1.01
1301,1782565842954,0.05,-0.03,1.01
1302,1782565842971,0.05,-0.03,1.01
1303,1782565842988,0.05,-0.03,1.01
1304,1782565843021,0.05,-0.03,1.01
1305,1782565843054,0.05,-0.03,1.01
1306,1782565843121,0.05,-0.03,1.01
1307,1782565843204,0.05,-0.03,1.01
1308,1782565843271,0.05,-0.03,1.01
1309,1782565843304,0.05,-0.03,1.01
1310,1782565843370,0.05,-0.03,1.01
1311,1782565843438,0.05,-0.03,1.01
1312,1782565843487,0.05,-0.03,1.01
1313,1782565843504,0.05,-0.03,1.01
1314,1782565843554,0.05,-0.03,1.01
1315,1782565843605,0.05,-0.03,1.01
1316,1782565843654,0.05,-0.03,1.01
1317,1782565843737,0.05,-0.03,1.01
1318,1782565843770,0.05,-0.03,1.01
1319,1782565843820,0.05,-0.03,1.01
1320,1782565843854,0.05,-0.03,1.01
1321,1782565843920,0.05,-0.03,1.01
1322,1782565843970,0.05,-0.03,1.01
1323,1782565844020,0.05,-0.03,1.01
1324,1782565844070,0.05,-0.03,1.01
1325,1782565844170,0.05,-0.03,1.01
1326,1782565844220,0.05,-0.03,1.01
1327,1782565844270,0.05,-0.03,1.01
1328,1782565844320,0.05,-0.03,1.01
1329,1782565844454,0.05,-0.03,1.01
1330,1782565844537,0.05,-0.03,1.01
1331,1782565844570,0.05,-0.03,1.01
1332,1782565844620,0.05,-0.03,1.01
1333,1782565844653,0.04,-0.03,1.01
1334,1782565844837,0.05,-0.03,1.01
1335,1782565844853,0.05,-0.03,1.01
1336,1782565844936,0.05,-0.03,1.01
1337,1782565844986,0.05,-0.03,1.01
1338,1782565845119,0.05,-0.03,1.01
1339,1782565845252,0.05,-0.03,1.01
1340,1782565845286,0.05,-0.03,1.01
1341,1782565845336,0.05,-0.03,1.01
1342,1782565845436,0.05,-0.03,1.01
1343,1782565845536,0.05,-0.03,1.01
1344,1782565845569,0.05,-0.03,1.01
1345,1782565845635,0.05,-0.03,1.02
1346,1782565845702,0.05,-0.03,1.02
1347,1782565845785,0.05,-0.03,1.02
1348,1782565845819,0.05,-0.03,1.01
1349,1782565845852,0.05,-0.03,1.01
1350,1782565845902,0.05,-0.03,1.01
1351,1782565845951,0.05,-0.03,1.01
1352,1782565845968,0.05,-0.03,1.01
1353,1782565846018,0.05,-0.03,1.01
1354,1782565846085,0.05,-0.03,1.01
1355,1782565846118,0.05,-0.03,1.01
1356,1782565846285,0.05,-0.03,1.01
1357,1782565846318,0.05,-0.03,1.01
1358,1782565846351,0.05,-0.03,1.01
1359,1782565846385,0.05,-0.03,1.01
1360,1782565846451,0.05,-0.03,1.01
1361,1782565846485,0.05,-0.03,1.01
1362,1782565846535,0.05,-0.03,1.01
1363,1782565846568,0.05,-0.03,1.01
1364,1782565846602,0.05,-0.03,1.01
1365,1782565846618,0.05,-0.03,1.01
1366,1782565846635,0.05,-0.03,1.01
1367,1782565846668,0.05,-0.03,1.01
1368,1782565846735,0.05,-0.03,1.01
1369,1782565846901,0.05,-0.03,1.01
1370,1782565846934,0.05,-0.03,1.01
1371,1782565847018,0.05,-0.03,1.01
1372,1782565847067,0.05,-0.03,1.01
1373,1782565847101,0.05,-0.03,1.01
1374,1782565847151,0.05,-0.03,1.01
1375,1782565847168,0.05,-0.03,1.01
1376,1782565847201,0.05,-0.03,1.01
1377,1782565847251,0.05,-0.03,1.01
1378,1782565847284,0.05,-0.03,1.01
1379,1782565847351,0.05,-0.03,1.01
1380,1782565847417,0.05,-0.03,1.01
1381,1782565847450,0.05,-0.03,1.01
1382,1782565847484,0.05,-0.03,1.01
1383,1782565847500,0.05,-0.03,1.01
1384,1782565847717,0.05,-0.03,1.01
1385,1782565847800,0.05,-0.03,1.01
1386,1782565847867,0.05,-0.03,1.01
1387,1782565847900,0.05,-0.03,1.01
1388,1782565847967,0.05,-0.03,1.01
1389,1782565848017,0.05,-0.03,1.01
1390,1782565848050,0.05,-0.03,1.01
1391,1782565848067,0.05,-0.03,1.01
1392,1782565848100,0.05,-0.03,1.01
1393,1782565848133,0.05,-0.03,1.01
1394,1782565848166,0.05,-0.03,1.01
1395,1782565848200,0.05,-0.03,1.01
1396,1782565848216,0.05,-0.03,1.01
1397,1782565848233,0.05,-0.03,1.01
1398,1782565848300,0.05,-0.03,1.01
1399,1782565848417,0.05,-0.03,1.01
1400,1782565848533,0.05,-0.03,1.01
1401,1782565848550,0.05,-0.03,1.01
1402,1782565848583,0.05,-0.03,1.01
1403,1782565848650,0.05,-0.03,1.01
1404,1782565848699,0.05,-0.03,1.01
1405,1782565848783,0.05,-0.03,1.01
1406,1782565848816,0.05,-0.03,1.01
1407,1782565848849,0.05,-0.03,1.01
1408,1782565848883,0.05,-0.03,1.01
1409,1782565848983,0.05,-0.03,1.01
1410,1782565849016,0.05,-0.03,1.01
1411,1782565849033,0.05,-0.03,1.01
1412,1782565849066,0.05,-0.03,1.01
1413,1782565849100,0.05,-0.03,1.01
1414,1782565849116,0.05,-0.03,1.01
1415,1782565849166,0.05,-0.03,1.01
1416,1782565849216,0.05,-0.03,1.01
1417,1782565849300,0.05,-0.03,1.01
1418,1782565849382,0.05,-0.03,1.01
1419,1782565849399,0.05,-0.03,1.01
1420,1782565849432,0.05,-0.03,1.01
1421,1782565849449,0.05,-0.03,1.01
1422,1782565849549,0.05,-0.03,1.01
1423,1782565849615,0.05,-0.03,1.01
1424,1782565849666,0.05,-0.03,1.01
1425,1782565849749,0.05,-0.03,1.01
1426,1782565849765,0.05,-0.03,1.01
1427,1782565849832,0.05,-0.03,1.01
1428,1782565849898,0.05,-0.03,1.01
1429,1782565849915,0.05,-0.03,1.01
1430,1782565849932,0.05,-0.03,1.01
1431,1782565849949,0.05,-0.03,1.01
1432,1782565849982,0.05,-0.03,1.01
1433,1782565850049,0.05,-0.03,1.01
1434,1782565850082,0.05,-0.03,1.01
1435,1782565850115,0.05,-0.03,1.01
1436,1782565850232,0.05,-0.03,1.01
1437,1782565850265,0.05,-0.03,1.01
1438,1782565850315,0.05,-0.03,1.01
1439,1782565850365,0.05,-0.03,1.01
1440,1782565850398,0.05,-0.03,1.01
1441,1782565850415,0.05,-0.03,1.01
1442,1782565850432,0.05,-0.03,1.01
1443,1782565850465,0.05,-0.03,1.01
1444,1782565850482,0.05,-0.03,1.01
1445,1782565850531,0.05,-0.03,1.01
1446,1782565850597,0.05,-0.03,1.01
1447,1782565850631,0.05,-0.03,1.01
1448,1782565850698,0.05,-0.03,1.01
1449,1782565850765,0.05,-0.03,1.01
1450,1782565850882,0.05,-0.03,1.01
1451,1782565850964,0.05,-0.03,1.01
1452,1782565850981,0.05,-0.03,1.01
1453,1782565851014,0.05,-0.03,1.01
1454,1782565851114,0.05,-0.03,1.01
1455,1782565851214,0.05,-0.03,1.01
1456,1782565851248,0.05,-0.03,1.01
1457,1782565851280,0.05,-0.03,1.01
1458,1782565851298,0.05,-0.03,1.01
1459,1782565851314,0.05,-0.03,1.01
1460,1782565851348,0.05,-0.03,1.01
1461,1782565851397,0.05,-0.03,1.01
1462,1782565851464,0.05,-0.03,1.01
1463,1782565851547,0.05,-0.03,1.01
1464,1782565851564,0.05,-0.03,1.01
1465,1782565851614,0.05,-0.03,1.01
1466,1782565851663,0.05,-0.03,1.01
1467,1782565851731,0.05,-0.03,1.01
1468,1782565851830,0.05,-0.03,1.01
1469,1782565851847,0.05,-0.03,1.01
1470,1782565851863,0.05,-0.03,1.01
1471,1782565851930,0.05,-0.03,1.01
1472,1782565851964,0.05,-0.03,1.01
1473,1782565852081,0.05,-0.03,1.01
1474,1782565852114,0.05,-0.03,1.01
1475,1782565852180,0.05,-0.03,1.01
1476,1782565852196,0.05,-0.03,1.01
1477,1782565852247,0.05,-0.03,1.01
1478,1782565852296,0.05,-0.03,1.01
1479,1782565852363,0.05,-0.03,1.01
1480,1782565852380,0.05,-0.03,1.01
1481,1782565852446,0.05,-0.03,1.01
1482,1782565852480,0.05,-0.03,1.01
1483,1782565852497,0.05,-0.03,1.01
1484,1782565852564,0.05,-0.03,1.01
1485,1782565852646,0.05,-0.03,1.01
1486,1782565852713,0.04,-0.03,1.02
1487,1782565852763,0.04,-0.03,1.02
1488,1782565852796,0.04,-0.03,1.01
1489,1782565852863,0.04,-0.03,1.01
1490,1782565852929,0.04,-0.03,1.01
1491,1782565852996,0.04,-0.03,1.01
1492,1782565853030,0.05,-0.03,1.01
1493,1782565853030,0.05,-0.03,1.02
1494,1782565853096,0.05,-0.03,1.01
1495,1782565853129,0.05,-0.03,1.01
1496,1782565853196,0.04,-0.03,1.01
1497,1782565853246,0.05,-0.03,1.01
1498,1782565853296,0.04,-0.03,1.01
1499,1782565853346,0.05,-0.03,1.01
1500,1782565853362,0.05,-0.03,1.02
1501,1782565853412,0.05,-0.03,1.02
1502,1782565853512,0.05,-0.03,1.02
1503,1782565853629,0.05,-0.03,1.01
1504,1782565853679,0.05,-0.03,1.01
1505,1782565853762,0.05,-0.03,1.01
1506,1782565853795,0.05,-0.03,1.01
1507,1782565853845,0.05,-0.03,1.01
1508,1782565853895,0.05,-0.03,1.01
1509,1782565853945,0.05,-0.03,1.01
1510,1782565854028,0.05,-0.03,1.01
1511,1782565854061,0.05,-0.03,1.01
1512,1782565854161,0.05,-0.03,1.02
1513,1782565854262,0.05,-0.03,1.01
1514,1782565854312,0.05,-0.03,1.01
1515,1782565854378,0.05,-0.03,1.01
1516,1782565854412,0.05,-0.03,1.01
1517,1782565854595,0.05,-0.03,1.02
1518,1782565854644,0.05,-0.03,1.01
1519,1782565854711,0.05,-0.03,1.01
1520,1782565854745,0.05,-0.03,1.01
1521,1782565854811,0.05,-0.03,1.01
1522,1782565854878,0.05,-0.03,1.01
1523,1782565854944,0.05,-0.03,1.02
1524,1782565855011,0.04,-0.02,1.01
1525,1782565855061,0.04,-0.02,1.01
1526,1782565855111,0.04,-0.03,1.01
1527,1782565855161,0.04,-0.03,1.01
1528,1782565855211,0.04,-0.03,1.01
1529,1782565855261,0.04,-0.03,1.01
1530,1782565855327,0.05,-0.03,1.01
1531,1782565855394,0.05,-0.03,1.01
1532,1782565855427,0.05,-0.03,1.01
1533,1782565855477,0.05,-0.03,1.01
1534,1782565855494,0.05,-0.03,1.01
1535,1782565855527,0.05,-0.03,1.01
1536,1782565855561,0.05,-0.03,1.01
1537,1782565855578,0.05,-0.03,1.01
1538,1782565855777,0.04,-0.03,1.01
1539,1782565855777,0.05,-0.03,1.01
1540,1782565855810,0.05,-0.03,1.01
1541,1782565855827,0.05,-0.03,1.01
1542,1782565855844,0.05,-0.03,1.01
1543,1782565855877,0.05,-0.03,1.01
1544,1782565855943,0.05,-0.03,1.01
1545,1782565855993,0.05,-0.03,1.01
1546,1782565856060,0.05,-0.03,1.01
1547,1782565856161,0.05,-0.03,1.01
1548,1782565856177,0.05,-0.03,1.01
1549,1782565856226,0.05,-0.03,1.01
1550,1782565856327,0.05,-0.03,1.01
1551,1782565856343,0.05,-0.03,1.01
1552,1782565856360,0.05,-0.03,1.01
1553,1782565856394,0.05,-0.02,1.01
1554,1782565856443,0.05,-0.02,1.01
1555,1782565856460,0.05,-0.03,1.01
1556,1782565856526,0.05,-0.03,1.01
1557,1782565856576,0.05,-0.03,1.01
1558,1782565856626,0.05,-0.03,1.01
1559,1782565856676,0.05,-0.03,1.01
1560,1782565856726,0.04,-0.03,1.01
1561,1782565856760,0.05,-0.03,1.01
1562,1782565856810,0.05,-0.03,1.01
1563,1782565856860,0.05,-0.03,1.01
1564,1782565856910,0.05,-0.03,1.01
1565,1782565856926,0.05,-0.03,1.01
1566,1782565856992,0.05,-0.03,1.01
1567,1782565857092,0.04,-0.03,1.01
1568,1782565857142,0.04,-0.03,1.01
1569,1782565857209,0.04,-0.03,1.01
1570,1782565857242,0.04,-0.02,1.01
1571,1782565857260,0.04,-0.02,1.01
1572,1782565857293,0.04,-0.02,1.01
1573,1782565857309,0.05,-0.02,1.01
1574,1782565857360,0.05,-0.03,1.01
1575,1782565857425,0.05,-0.03,1.01
1576,1782565857492,0.05,-0.03,1.01
1577,1782565857559,0.05,-0.03,1.01
1578,1782565857576,0.05,-0.03,1.01
1579,1782565857643,0.05,-0.03,1.01
1580,1782565857692,0.05,-0.03,1.01
1581,1782565857759,0.05,-0.03,1.01
1582,1782565857776,0.05,-0.03,1.01
1583,1782565857808,0.05,-0.03,1.01
1584,1782565857826,0.05,-0.03,1.01
1585,1782565857859,0.05,-0.03,1.01
1586,1782565857892,0.05,-0.03,1.01
1587,1782565857975,0.05,-0.03,1.01
1588,1782565858025,0.05,-0.03,1.01
1589,1782565858075,0.05,-0.03,1.01
1590,1782565858142,0.05,-0.03,1.01
1591,1782565858208,0.05,-0.03,1.01
1592,1782565858225,0.05,-0.03,1.01
1593,1782565858242,0.05,-0.03,1.01
1594,1782565858275,0.05,-0.03,1.01
1595,1782565858308,0.05,-0.03,1.01
1596,1782565858375,0.05,-0.03,1.01
1597,1782565858425,0.05,-0.03,1.01
1598,1782565969031,0.05,-0.03,1.02
1599,1782565969082,0.05,-0.03,1.01
1600,1782565969165,0.05,-0.03,1.01
1601,1782565969198,0.05,-0.03,1.01
1602,1782565969232,0.05,-0.03,1.01
1603,1782565969281,0.05,-0.03,1.01
1604,1782565969365,0.04,-0.03,1.01
1605,1782565969381,0.04,-0.03,1.01
1606,1782565969415,0.04,-0.03,1.01
1607,1782565969431,0.04,-0.03,1.01
1608,1782565969481,0.04,-0.03,1.01
1609,1782565969514,0.04,-0.03,1.01
1610,1782565969564,0.04,-0.03,1.01
1611,1782565969614,0.05,-0.03,1.01
1612,1782565969681,0.05,-0.03,1.01
1613,1782565969714,0.05,-0.03,1.01
1614,1782565969765,0.04,-0.02,1.01
1615,1782565969832,0.04,-0.02,1.02
1616,1782565969881,0.04,-0.02,1.03
1617,1782565969915,0.04,-0.03,1.03
1618,1782565969930,0.04,-0.03,1.03
1619,1782565969964,0.03,-0.03,1.01
1620,1782565969981,0.03,-0.03,1
1621,1782565969998,0.03,-0.03,1
1622,1782565970048,0.03,-0.03,0.99
1623,1782565970097,0.03,-0.03,0.99
1624,1782565970131,0.05,-0.03,1.02
1625,1782565970181,0.05,-0.03,1.02
1626,1782565970231,0.05,-0.03,1.02
1627,1782565970264,0.05,-0.03,1.02
1628,1782565970331,0.05,-0.02,1.01
1629,1782565970381,0.05,-0.02,1.01
1630,1782565970447,0.05,-0.02,1.01
1631,1782565970530,0.04,-0.03,1.01
1632,1782565970614,0.04,-0.03,1.01
1633,1782565970614,0.04,-0.03,1.02
1634,1782565970647,0.04,-0.03,1.02
1635,1782565970664,0.04,-0.03,1.02
1636,1782565970680,0.04,-0.03,1.02
1637,1782565970714,0.04,-0.03,1.02
1638,1782565970780,0.04,-0.02,1.01
1639,1782565970830,0.04,-0.02,1.01
1640,1782565970864,0.05,-0.03,1.01
1641,1782565970947,0.05,-0.03,1.01
1642,1782565970997,0.05,-0.03,1.01
1643,1782565971031,0.05,-0.03,1.01
1644,1782565971096,0.05,-0.03,1.01
1645,1782565971147,0.05,-0.03,1.01
1646,1782565971263,0.04,-0.03,1.01
1647,1782565971296,0.04,-0.03,1.01
1648,1782565971313,0.04,-0.03,1.01
1649,1782565971330,0.04,-0.03,1.01
1650,1782565971363,0.04,-0.03,1.01
1651,1782565971396,0.04,-0.03,1.01
1652,1782565971480,0.04,-0.03,1.01
1653,1782565971547,0.04,-0.03,1.01
1654,1782565971580,0.05,-0.03,1.01
1655,1782565971613,0.05,-0.03,1.01
1656,1782565971663,0.05,-0.03,1.01
1657,1782565971730,0.05,-0.03,1.01
1658,1782565971779,0.05,-0.03,1.01
1659,1782565971829,0.05,-0.03,1.01
1660,1782565971929,0.05,-0.03,1.01
1661,1782565971996,0.05,-0.03,1.01
1662,1782565972013,0.05,-0.03,1.01
1663,1782565972046,0.05,-0.03,1.01
1664,1782565972062,0.05,-0.03,1.01
1665,1782565972079,0.05,-0.03,1.01
1666,1782565972130,0.05,-0.03,1.01
1667,1782565972179,0.05,-0.03,1.01
1668,1782565972212,0.05,-0.03,1.01
1669,1782565972296,0.05,-0.03,1.01
1670,1782565972363,0.05,-0.03,1.01
1671,1782565972445,0.05,-0.03,1.01
1672,1782565972479,0.05,-0.03,1.01
1673,1782565972529,0.05,-0.03,1.01
1674,1782565972646,0.05,-0.03,1.01
1675,1782565972695,0.05,-0.03,1.01
1676,1782565972745,0.05,-0.03,1.01
1677,1782565972812,0.05,-0.03,1.01
1678,1782565972845,0.05,-0.03,1.01
1679,1782565972912,0.05,-0.03,1.01
1680,1782565973029,0.05,-0.03,1.01
1681,1782565973096,0.04,-0.03,1.01
1682,1782565973145,0.04,-0.03,1.01
1683,1782565973211,0.04,-0.03,1.01
1684,1782565973262,0.04,-0.03,1.01
1685,1782565973429,0.05,-0.03,1.01
1686,1782565973429,0.05,-0.03,1.01
1687,1782565973461,0.05,-0.03,1.01
1688,1782565973512,0.05,-0.03,1.01
1689,1782565973561,0.05,-0.03,1.01
1690,1782565973628,0.05,-0.03,1.01
1691,1782565973661,0.04,-0.03,1.01
1692,1782565973728,0.04,-0.03,1.02
1693,1782565973794,0.04,-0.03,1.02
1694,1782565973861,0.04,-0.03,1.02
1695,1782565973894,0.04,-0.03,1.02
1696,1782565973961,0.05,-0.03,1.01
1697,1782565974011,0.05,-0.03,1.01
1698,1782565974077,0.05,-0.03,1.01
1699,1782565974111,0.05,-0.03,1.01
1700,1782565974177,0.05,-0.03,1.01
1701,1782565974388,0.05,-0.03,1.01
1702,1782565974388,0.04,-0.03,1.01
1703,1782565974388,0.04,-0.03,1.01
1704,1782565974388,0.04,-0.03,1.01
1705,1782565974388,0.04,-0.03,1.01
1706,1782565974393,0.04,-0.03,1.01
1707,1782565974427,0.04,-0.03,1.01
1708,1782565974477,0.04,-0.03,1.01
1709,1782565974510,0.04,-0.03,1.01
1710,1782565974527,0.04,-0.03,1.01
1711,1782565974560,0.04,-0.03,1.01
1712,1782565974593,0.05,-0.03,1.01
1713,1782565974610,0.05,-0.03,1.01
1714,1782565974677,0.05,-0.03,1.01
1715,1782565974711,0.05,-0.03,1.01
1716,1782565974760,0.05,-0.03,1.01
1717,1782565974827,0.05,-0.03,1.01
1718,1782565974844,0.04,-0.03,1.01
1719,1782565974877,0.04,-0.03,1.01
1720,1782565974944,0.04,-0.03,1.01
1721,1782565975059,0.04,-0.03,1.01
1722,1782565975110,0.03,-0.03,1.01
1723,1782565975160,0.03,-0.03,1.01
1724,1782565975210,0.03,-0.03,1.01
1725,1782565975276,0.04,-0.03,1.01
1726,1782565975343,0.04,-0.03,1.01
1727,1782565975410,0.05,-0.03,1.01
1728,1782565975477,0.05,-0.03,1.01
1729,1782565975543,0.06,-0.03,1.01
1730,1782565975577,0.06,-0.03,1.01
1731,1782565975643,0.06,-0.03,1.01
1732,1782565975726,0.04,-0.03,1.01
1733,1782565975759,0.04,-0.03,1.01
1734,1782565975826,0.04,-0.03,1.01
1735,1782565975876,0.04,-0.03,1.01
1736,1782565976059,0.05,-0.03,1.01
1737,1782565976109,0.05,-0.03,1.01
1738,1782565976176,0.05,-0.03,1.02
1739,1782565976209,0.06,-0.03,1.02
1740,1782565976359,0.02,-0.03,1.02
1741,1782565976442,0.02,-0.03,1.02
1742,1782565976476,0.02,-0.03,1.01
1743,1782565976542,0.04,-0.03,1.02
1744,1782565976593,0.04,-0.03,1.02
1745,1782565976641,0.04,-0.03,1.03
1746,1782565976792,0.07,-0.03,1.02
1747,1782565976841,0.06,-0.03,1.02
1748,1782565976908,0.06,-0.03,1.01
1749,1782565976941,0.06,-0.02,1.01
1750,1782565976992,0.06,-0.02,1.01
1751,1782565977059,0.06,-0.02,1.01
1752,1782565977125,0.05,-0.03,1.01
1753,1782565977191,0.05,-0.03,1.01
1754,1782565977225,0.05,-0.03,1.01
1755,1782565977275,0.05,-0.03,1.01
1756,1782565977325,0.05,-0.03,1.01
1757,1782565977391,0.05,-0.03,1.01
1758,1782565977458,0.04,-0.02,1.01
1759,1782565977508,0.04,-0.03,1.01
1760,1782565977542,0.04,-0.03,1.02
1761,1782565977674,0.05,-0.03,1.01
1762,1782565977774,0.05,-0.03,1.01
1763,1782565977807,0.05,-0.03,1.01
1764,1782565977874,0.05,-0.03,1.01
1765,1782565977925,0.05,-0.03,1.01
1766,1782565978007,0.04,-0.03,1.01
1767,1782565978107,0.04,-0.03,1.01
1768,1782565978324,0.05,-0.03,1.01
1769,1782565978390,0.05,-0.03,1.01
1770,1782565978424,0.05,-0.03,1.01
1771,1782565978490,0.05,-0.03,1.01
1772,1782565978541,0.05,-0.03,1.01
1773,1782565978574,0.05,-0.03,1.01
1774,1782565978690,0.05,-0.03,1.01
1775,1782565978791,0.05,-0.03,1.01
1776,1782565978840,0.05,-0.03,1.02
1777,1782565978890,0.05,-0.03,1.02
1778,1782565978941,0.05,-0.03,1.01
1779,1782565979007,0.05,-0.03,1.01
1780,1782565979074,0.05,-0.03,1.01
1781,1782565979123,0.05,-0.04,1.01
1782,1782565979157,0.05,-0.04,1.01
1783,1782565979273,0.04,-0.04,1.01
1784,1782565979340,0.04,-0.03,1.01
1785,1782565979406,0.05,-0.02,1.01
1786,1782565979456,0.05,-0.02,1.01
1787,1782565979523,0.05,-0.02,1.01
1788,1782565979556,0.05,-0.02,1.01
1789,1782565979623,0.05,-0.02,1.01
1790,1782565979689,0.05,-0.02,1.01
1791,1782565979723,0.05,-0.02,1.01
1792,1782565979723,0.06,-0.03,1.01
1793,1782565979756,0.06,-0.03,1.01
1794,1782565979822,0.06,-0.03,1.01
1795,1782565979906,0.06,-0.03,1.01
1796,1782565979940,0.06,-0.03,1.01
1797,1782565980006,0.06,-0.03,1.01
1798,1782565980022,0.05,-0.03,1.01
1799,1782565980106,0.05,-0.03,1.01
1800,1782565980139,0.04,-0.03,1.01
1801,1782565980206,0.04,-0.03,1.01
1802,1782565980239,0.04,-0.03,1.01
1803,1782565980306,0.04,-0.03,1.01
1804,1782565980322,0.03,-0.03,1.01
1805,1782565980339,0.03,-0.03,1.01
1806,1782565980372,0.03,-0.03,1.01
1807,1782565980506,0.03,-0.03,1.01
1808,1782565980555,0.03,-0.03,1.01
1809,1782565980605,0.03,-0.03,1.01
1810,1782565980622,0.03,-0.03,1.01
1811,1782565980656,0.03,-0.03,1.01
1812,1782565980672,0.04,-0.03,1.01
1813,1782565980688,0.04,-0.03,1.01
1814,1782565980739,0.04,-0.03,1.01
1815,1782565980822,0.04,-0.03,1.01
1816,1782565980921,0.05,-0.03,1.01
1817,1782565981038,0.05,-0.03,1.01
1818,1782565981122,0.05,-0.03,1.01
1819,1782565981139,0.05,-0.03,1.01
1820,1782565981188,0.05,-0.03,1.01
1821,1782565981239,0.05,-0.03,1.01
1822,1782565981271,0.05,-0.03,1.01
1823,1782565981289,0.05,-0.03,1.01
1824,1782565981338,0.05,-0.03,1.01
1825,1782565981405,0.05,-0.03,1.01
1826,1782565981471,0.05,-0.03,1.01
1827,1782565981504,0.05,-0.03,1.01
1828,1782565981521,0.05,-0.03,1.01
1829,1782565981555,0.05,-0.03,1.01
1830,1782565981621,0.05,-0.03,1.01
1831,1782565981704,0.05,-0.03,1.01
1832,1782565981738,0.05,-0.03,1.01
1833,1782565981755,0.05,-0.03,1.01
1834,1782565981771,0.05,-0.03,1.01
1835,1782565981788,0.05,-0.03,1.01
1836,1782565981854,0.05,-0.03,1.01
1837,1782565981888,0.05,-0.03,1.01
1838,1782565981988,0.05,-0.03,1.01
1839,1782565982054,0.04,-0.03,1.01
1840,1782565982121,0.04,-0.03,1.01
1841,1782565982154,0.05,-0.03,1.01
1842,1782565982221,0.05,-0.03,1.01
1843,1782565982287,0.05,-0.03,1.01
1844,1782565982338,0.05,-0.03,1.01
1845,1782565982371,0.05,-0.03,1.01
1846,1782565982437,0.05,-0.03,1.01
1847,1782565982487,0.05,-0.03,1.01
1848,1782565982554,0.05,-0.03,1.01
1849,1782565982704,0.05,-0.03,1.01
1850,1782565990897,0.04,-0.03,1.01
1851,1782565990963,0.04,-0.03,1.01
1852,1782565991030,0.04,-0.03,1.01
1853,1782565991063,0.04,-0.03,1.01
1854,1782565991114,0.04,-0.03,1.01
1855,1782565991180,0.04,-0.03,1.01
1856,1782565991230,0.05,-0.03,1.01
1857,1782565991247,0.05,-0.03,1.01
1858,1782565991280,0.05,-0.03,1.01
1859,1782565991296,0.05,-0.03,1.01
1860,1782565991314,0.05,-0.03,1.01
1861,1782565991379,0.05,-0.03,1.01
1862,1782565991412,0.05,-0.03,1.01
1863,1782565991447,0.05,-0.03,1.01
1864,1782565991496,0.05,-0.03,1.01
1865,1782565991579,0.05,-0.03,1.01
1866,1782565991612,0.04,-0.03,1.01
1867,1782565991662,0.05,-0.03,1.01
1868,1782565991746,0.05,-0.03,1.01
1869,1782565991779,0.05,-0.03,1.01
1870,1782565991812,0.05,-0.03,1.01
1871,1782565991829,0.05,-0.03,1.01
1872,1782565991862,0.05,-0.03,1.01
1873,1782565991879,0.05,-0.03,1.01
1874,1782565991896,0.05,-0.03,1.01
1875,1782565991946,0.05,-0.03,1.01
1876,1782565991996,0.05,-0.03,1.01
1877,1782565992013,0.05,-0.03,1.01
1878,1782565992063,0.05,-0.03,1.01
1879,1782565992112,0.05,-0.03,1.01
1880,1782565992146,0.05,-0.03,1.01
1881,1782565992212,0.05,-0.03,1.01
1882,1782565992279,0.05,-0.03,1.01
1883,1782565992312,0.05,-0.03,1.01
1884,1782565992362,0.05,-0.03,1.01
1885,1782565992445,0.05,-0.03,1.01
1886,1782565992445,0.05,-0.03,1.01
1887,1782565992479,0.05,-0.03,1.01
1888,1782565992495,0.05,-0.03,1.01
1889,1782565992512,0.05,-0.03,1.01
1890,1782565992546,0.05,-0.03,1.01
1891,1782565992645,0.05,-0.03,1.01
1892,1782565992728,0.05,-0.03,1.01
1893,1782565992762,0.05,-0.03,1.01
1894,1782565992878,0.05,-0.03,1.01
1895,1782565992928,0.05,-0.03,1.01
1896,1782565993011,0.05,-0.03,1.01
1897,1782565993095,0.05,-0.03,1.01
1898,1782565993113,0.05,-0.03,1.01
1899,1782565993161,0.05,-0.03,1.01
1900,1782565993244,0.05,-0.03,1.01
1901,1782565993312,0.05,-0.03,1.01
1902,1782565993515,0.05,-0.03,1.01
1903,1782565993515,0.05,-0.03,1.01
1904,1782565993528,0.05,-0.03,1.01
1905,1782565993528,0.05,-0.03,1.01
1906,1782565993578,0.05,-0.03,1.01
1907,1782565993611,0.05,-0.03,1.01
1908,1782565993644,0.05,-0.03,1.01
1909,1782565993661,0.05,-0.03,1.01
1910,1782565993695,0.05,-0.03,1.01
1911,1782565993744,0.05,-0.03,1.01
1912,1782565993811,0.05,-0.03,1.01
1913,1782565993861,0.05,-0.03,1.01
1914,1782565993910,0.05,-0.03,1.01
1915,1782565993978,0.05,-0.03,1.01
1916,1782565994094,0.05,-0.03,1.01
1917,1782565994128,0.05,-0.03,1.01
1918,1782565994194,0.05,-0.03,1.01
1919,1782565994243,0.05,-0.03,1.01
1920,1782565994293,0.05,-0.03,1.01
1921,1782565994328,0.05,-0.03,1.01
1922,1782565994343,0.05,-0.03,1.01
1923,1782565994360,0.05,-0.03,1.01
1924,1782565994394,0.05,-0.03,1.01
1925,1782565994444,0.05,-0.03,1.01
1926,1782565994477,0.05,-0.03,1.01
1927,1782565994527,0.05,-0.03,1.01
1928,1782565994577,0.05,-0.03,1.01
1929,1782565994594,0.05,-0.03,1.01
1930,1782565994627,0.05,-0.03,1.01
1931,1782565994644,0.05,-0.03,1.01
1932,1782565994693,0.05,-0.03,1.01
1933,1782565994776,0.05,-0.03,1.01
1934,1782565994826,0.05,-0.03,1.01
1935,1782565994876,0.05,-0.03,1.01
1936,1782565994910,0.05,-0.03,1.01
1937,1782565994927,0.05,-0.03,1.01
1938,1782565994943,0.05,-0.03,1.01
1939,1782565994977,0.05,-0.03,1.01
1940,1782565994994,0.05,-0.03,1.01
1941,1782565995043,0.05,-0.03,1.01
1942,1782565995160,0.05,-0.03,1.01
1943,1782565995193,0.05,-0.03,1.01
1944,1782565995210,0.05,-0.03,1.01
1945,1782565995227,0.05,-0.03,1.01
1946,1782565995259,0.05,-0.03,1.01
1947,1782565995277,0.05,-0.03,1.01
1948,1782565995327,0.05,-0.03,1.01
1949,1782565995426,0.05,-0.03,1.01
1950,1782565995443,0.05,-0.03,1.01
1951,1782565995476,0.05,-0.03,1.01
1952,1782565995560,0.05,-0.03,1.01
1953,1782565995643,0.04,-0.03,1.02
1954,1782565995676,0.04,-0.03,1.02
1955,1782565995743,0.05,-0.03,1.01
1956,1782565995759,0.05,-0.03,1.01
1957,1782565995793,0.05,-0.03,1.01
1958,1782565995875,0.05,-0.03,1.01
1959,1782565995925,0.05,-0.03,1.01
1960,1782565996025,0.05,-0.03,1.01
1961,1782565996076,0.05,-0.03,1.01
1962,1782565996109,0.05,-0.03,1.01
1963,1782565996142,0.05,-0.03,1.01
1964,1782565996176,0.05,-0.03,1.01
1965,1782565996292,0.05,-0.03,1.01
1966,1782565996359,0.05,-0.03,1.01
1967,1782565996392,0.05,-0.03,1.01
1968,1782565996425,0.05,-0.03,1.01
1969,1782565996458,0.05,-0.03,1.01
1970,1782565996493,0.05,-0.03,1.01
1971,1782565996575,0.05,-0.03,1.01
1972,1782565996609,0.05,-0.03,1.01
1973,1782565996642,0.05,-0.03,1.01
1974,1782565996659,0.05,-0.03,1.01
1975,1782565996692,0.05,-0.03,1.01
1976,1782565996708,0.05,-0.03,1.01
1977,1782565996758,0.05,-0.03,1.01
1978,1782565996791,0.05,-0.03,1.01
1979,1782565996891,0.05,-0.03,1.01
1980,1782565996975,0.04,-0.03,1.01
1981,1782565997042,0.05,-0.03,1.01
1982,1782565997091,0.05,-0.03,1.01
1983,1782565997108,0.05,-0.03,1.01
1984,1782565997142,0.05,-0.03,1.01
1985,1782565997158,0.05,-0.03,1.01
1986,1782565997225,0.05,-0.03,1.01
1987,1782565997291,0.05,-0.03,1.01
1988,1782565997375,0.05,-0.03,1.01
1989,1782565997441,0.05,-0.03,1.02
1990,1782565997475,0.05,-0.03,1.02
1991,1782565997491,0.05,-0.03,1.02
1992,1782565997591,0.05,-0.03,1.02
1993,1782565997607,0.04,-0.03,1.01
1994,1782565997691,0.04,-0.03,1.01
1995,1782565997741,0.04,-0.03,1.01
1996,1782565997757,0.04,-0.03,1.01
1997,1782565997791,0.04,-0.03,1.01
1998,1782565997807,0.04,-0.03,1.01
1999,1782565997824,0.05,-0.03,1.01
2000,1782565997875,0.05,-0.03,1.01
2001,1782565997907,0.05,-0.03,1.01
2002,1782565997941,0.05,-0.03,1.01
2003,1782565997957,0.05,-0.03,1.01
2004,1782565998008,0.05,-0.03,1.01
2005,1782565998057,0.05,-0.03,1.01
2006,1782565998074,0.05,-0.03,1.01
2007,1782565998174,0.05,-0.03,1.01
2008,1782565998174,0.05,-0.03,1.01
2009,1782565998274,0.05,-0.03,1.01
2010,1782565998307,0.05,-0.03,1.01
2011,1782565998323,0.05,-0.03,1.01
2012,1782565998340,0.05,-0.03,1.01
2013,1782565998373,0.05,-0.03,1.01
2014,1782565998506,0.05,-0.03,1.01
2015,1782565998507,0.05,-0.03,1.01
2016,1782565998540,0.05,-0.03,1.01
2017,1782565998557,0.05,-0.03,1.01
2018,1782565998573,0.05,-0.03,1.01
2019,1782565998623,0.05,-0.03,1.01
2020,1782565998740,0.05,-0.03,1.01
2021,1782565998790,0.05,-0.03,1.01
2022,1782565998824,0.05,-0.03,1.01
2023,1782565998840,0.05,-0.03,1.01
2024,1782565998857,0.05,-0.03,1.01
2025,1782565998890,0.05,-0.03,1.01
2026,1782565998923,0.05,-0.03,1.01
2027,1782565999057,0.05,-0.03,1.01
2028,1782565999090,0.05,-0.03,1.01
2029,1782565999123,0.05,-0.03,1.01
2030,1782565999190,0.05,-0.03,1.01
2031,1782565999223,0.05,-0.03,1.01
2032,1782565999307,0.05,-0.03,1.01
2033,1782565999406,0.05,-0.03,1.01
2034,1782565999456,0.05,-0.03,1.01
2035,1782565999506,0.05,-0.03,1.01
2036,1782565999689,0.05,-0.03,1.01
2037,1782565999757,0.05,-0.03,1.01
2038,1782565999789,0.05,-0.03,1.01
2039,1782565999839,0.05,-0.03,1.01
2040,1782565999923,0.05,-0.03,1.01
2041,1782565999923,0.05,-0.03,1.01
2042,1782565999955,0.05,-0.03,1.01
2043,1782566000023,0.05,-0.03,1.01
2044,1782566000073,0.05,-0.03,1.01
2045,1782566000139,0.05,-0.03,1.01
2046,1782566000206,0.05,-0.03,1.01
2047,1782566000222,0.05,-0.03,1.01
2048,1782566000289,0.05,-0.03,1.01
2049,1782566000356,0.05,-0.03,1.01
2050,1782566000389,0.05,-0.03,1.01
2051,1782566000440,0.05,-0.03,1.01
2052,1782566000505,0.05,-0.03,1.01
2053,1782566000572,0.05,-0.03,1.01
2054,1782566000638,0.05,-0.03,1.01
2055,1782566000739,0.05,-0.03,1.01
2056,1782566000839,0.05,-0.03,1.01
2057,1782566000938,0.05,-0.03,1.01
2058,1782566000988,0.05,-0.03,1.01
2059,1782566001072,0.05,-0.03,1.01
2060,1782566001088,0.05,-0.03,1.01
2061,1782566001155,0.05,-0.03,1.01
2062,1782566001188,0.05,-0.03,1.01
2063,1782566001238,0.05,-0.03,1.01
2064,1782566001321,0.05,-0.03,1.01
2065,1782566001372,0.05,-0.03,1.01
2066,1782566001421,0.05,-0.03,1.01
2067,1782566001488,0.05,-0.03,1.01
2068,1782566001521,0.05,-0.03,1.01
2069,1782566001588,0.05,-0.03,1.01
2070,1782566001655,0.05,-0.03,1.01
2071,1782566001739,0.05,-0.03,1.01
2072,1782566001838,0.05,-0.03,1.01
2073,1782566001905,0.05,-0.03,1.01
2074,1782566002004,0.05,-0.03,1.01
2075,1782566002037,0.05,-0.03,1.01
2076,1782566002087,0.05,-0.03,1.01
2077,1782566002137,0.05,-0.03,1.01
2078,1782566002205,0.05,-0.03,1.01
2079,1782566002237,0.05,-0.03,1.01
2080,1782566002270,0.05,-0.03,1.01
2081,1782566002321,0.05,-0.03,1.01
2082,1782566002355,0.05,-0.03,1.01
2083,1782566002421,0.05,-0.03,1.01
2084,1782566002487,0.05,-0.03,1.01
2085,1782566002586,0.05,-0.03,1.01
2086,1782566002603,0.05,-0.03,1.01
2087,1782566002654,0.05,-0.03,1.01
2088,1782566002721,0.05,-0.03,1.01
2089,1782566002787,0.05,-0.03,1.01
2090,1782566002804,0.05,-0.03,1.01
2091,1782566002820,0.05,-0.03,1.01
2092,1782566002854,0.05,-0.03,1.01
2093,1782566002921,0.05,-0.03,1.01
2094,1782566002953,0.05,-0.03,1.01
2095,1782566003003,0.05,-0.03,1.01
2096,1782566003070,0.05,-0.03,1.01
2097,1782566003137,0.05,-0.03,1.01
2098,1782566003287,0.05,-0.03,1.01
2099,1782566003320,0.05,-0.03,1.01
2100,1782566003370,0.05,-0.03,1.01
2101,1782566003403,0.05,-0.03,1.01
2102,1782566003470,0.05,-0.03,1.01
2103,1782566003553,0.05,-0.03,1.01
2104,1782566003653,0.05,-0.03,1.01
2105,1782566003703,0.04,-0.03,1.01
2106,1782566003786,0.04,-0.03,1.01
2107,1782566003819,0.04,-0.03,1.01
2108,1782566003886,0.05,-0.03,1.01
2109,1782566003952,0.05,-0.03,1.01
2110,1782566003986,0.05,-0.03,1.02
2111,1782566004053,0.05,-0.03,1.01
2112,1782566004086,0.05,-0.03,1.01
2113,1782566004136,0.05,-0.02,1.01
2114,1782566004152,0.05,-0.02,1.01
2115,1782566004169,0.05,-0.02,1.01
2116,1782566004202,0.05,-0.02,1.01
2117,1782566004219,0.05,-0.02,1.01
2118,1782566004269,0.05,-0.02,1.01
2119,1782566004302,0.05,-0.02,1.01
2120,1782566004529,0.05,-0.02,1.01
2121,1782566004529,0.05,-0.03,1.01
2122,1782566004535,0.05,-0.03,1.01
2123,1782566004536,0.05,-0.03,1.01
2124,1782566004536,0.05,-0.03,1.01
2125,1782566004536,0.05,-0.03,1.01
2126,1782566004553,0.04,-0.03,1.01
2127,1782566004618,0.04,-0.03,1.01
2128,1782566004652,0.04,-0.03,1.01
2129,1782566004685,0.04,-0.03,1.01
2130,1782566004702,0.05,-0.03,1.01
2131,1782566004735,0.05,-0.03,1.01
2132,1782566004752,0.05,-0.03,1.01
2133,1782566004785,0.05,-0.03,1.01
2134,1782566004885,0.04,-0.03,1.01
2135,1782566004901,0.04,-0.03,1.01
2136,1782566004985,0.05,-0.03,1.01
2137,1782566005069,0.05,-0.03,1.01
2138,1782566005134,0.04,-0.03,1.01
2139,1782566005185,0.04,-0.03,1
2140,1782566005202,0.04,-0.02,1
2141,1782566005219,0.04,-0.02,1
2142,1782566005252,0.04,-0.02,1
2143,1782566005268,0.04,-0.02,1
2144,1782566005302,0.04,-0.02,1.01
2145,1782566005352,0.04,-0.02,1.01
2146,1782566005418,0.04,-0.03,1.02
2147,1782566005501,0.05,-0.03,1.02
2148,1782566005585,0.05,-0.03,1.02
2149,1782566005651,0.05,-0.03,1.01
2150,1782566005801,0.05,-0.03,1.01
2151,1782566005834,0.05,-0.03,1.01
2152,1782566005852,0.05,-0.03,1.01
2153,1782566005884,0.05,-0.03,1.01
2154,1782566005902,0.05,-0.03,1.01
2155,1782566005968,0.05,-0.03,1.01
2156,1782566006018,0.05,-0.03,1.02
2157,1782566006101,0.04,-0.03,1.02
2158,1782566006118,0.04,-0.03,1.02
2159,1782566006151,0.04,-0.03,1.02
2160,1782566006168,0.04,-0.03,1.02
2161,1782566006201,0.04,-0.02,1.01
2162,1782566006251,0.04,-0.02,1.01
2163,1782566006318,0.05,-0.03,1
2164,1782566006334,0.05,-0.03,1.01
2165,1782566006367,0.05,-0.03,1.01
2166,1782566006417,0.05,-0.03,1.02
2167,1782566006484,0.05,-0.03,1.02
2168,1782566006534,0.05,-0.03,1.02
2169,1782566006584,0.05,-0.03,1.02
2170,1782566006667,0.04,-0.02,1.01
2171,1782566006734,0.04,-0.02,1.01
2172,1782566006783,0.04,-0.02,1.01
2173,1782566006833,0.04,-0.02,1.01
2174,1782566006900,0.04,-0.02,1.01
2175,1782566006917,0.05,-0.03,1.01
2176,1782566006967,0.05,-0.03,1.02
2177,1782566007066,0.05,-0.03,1.02
2178,1782566007150,0.05,-0.03,1.01
2179,1782566007233,0.04,-0.03,1.01
2180,1782566007283,0.04,-0.03,1.01
2181,1782566007350,0.04,-0.03,1.01
2182,1782566007383,0.04,-0.03,1.01
2183,1782566007449,0.04,-0.03,1.01
2184,1782566007483,0.05,-0.02,1.01
2185,1782566007550,0.05,-0.02,1.01
2186,1782566007616,0.05,-0.02,1.01
2187,1782566007683,0.05,-0.03,1.01
2188,1782566007749,0.05,-0.03,1.01
2189,1782566007849,0.05,-0.03,1.01
2190,1782566007932,0.05,-0.03,1.01
2191,1782566007999,0.05,-0.03,1.01
2192,1782566008032,0.05,-0.03,1.02
2193,1782566008115,0.05,-0.03,1.01
2194,1782566008216,0.05,-0.03,1.01
2195,1782566008265,0.05,-0.03,1.01
2196,1782566008332,0.05,-0.03,1.01
2197,1782566008365,0.05,-0.03,1.01
2198,1782566008416,0.05,-0.03,1.01
2199,1782566008515,0.05,-0.03,1.01
2200,1782566008583,0.05,-0.03,1.01
2201,1782566008631,0.05,-0.03,1.01
2202,1782566008699,0.05,-0.03,1.01
2203,1782566008749,0.05,-0.03,1.01
2204,1782566008799,0.05,-0.03,1.01
2205,1782566008848,0.05,-0.03,1.01
2206,1782566008982,0.05,-0.03,1.01
2207,1782566009032,0.05,-0.03,1.01
2208,1782566009065,0.05,-0.03,1.01
2209,1782566009131,0.05,-0.03,1.01
2210,1782566009181,0.05,-0.03,1.01
2211,1782566009232,0.05,-0.03,1.01
2212,1782566009281,0.05,-0.03,1.01
2213,1782566009348,0.05,-0.03,1.01
2214,1782566009415,0.05,-0.03,1.01
2215,1782566009448,0.04,-0.03,1.01
2216,1782566009481,0.04,-0.03,1.01
2217,1782566009515,0.05,-0.03,1.01
2218,1782566009581,0.05,-0.03,1.01
2219,1782566009614,0.05,-0.03,1.01
2220,1782566009681,0.05,-0.03,1.01
2221,1782566009748,0.05,-0.03,1.01
2222,1782566009764,0.05,-0.03,1.01
2223,1782566009831,0.05,-0.03,1.01
2224,1782566009881,0.05,-0.03,1.01
2225,1782566009981,0.05,-0.03,1.01
2226,1782566010047,0.05,-0.03,1.01
2227,1782566010065,0.05,-0.02,1.02
2228,1782566010148,0.05,-0.02,1.01
2229,1782566010264,0.05,-0.02,1.01
2230,1782566010314,0.05,-0.02,1.01
2231,1782566010430,0.05,-0.03,1.01
2232,1782566010497,0.05,-0.02,1.01
2233,1782566010530,0.05,-0.02,1.01
2234,1782566010597,0.05,-0.02,1.01
2235,1782566010630,0.02,-0.02,1.03
2236,1782566010664,0.02,-0.02,1.04
2237,1782566010730,0.02,-0.03,1.04
2238,1782566010781,0.02,-0.03,1.04
2239,1782566010847,0.02,-0.03,1.03
2240,1782566010880,0.03,-0.03,1.02
2241,1782566010897,0.07,-0.03,1.02
2242,1782566010947,0.07,-0.03,0.99
2243,1782566011013,0.06,-0.03,0.99
2244,1782566011047,0.05,-0.03,0.99
2245,1782566011113,0.04,-0.04,1
2246,1782566011246,0.08,-0.04,1.02
2247,1782566011313,0.08,-0.03,1.03
2248,1782566011346,0.07,-0.03,1.03
2249,1782566011396,0.06,-0.03,1.05
2250,1782566011413,0.06,-0.02,1.05
2251,1782566011430,0.04,-0.02,1.05
2252,1782566011496,0.04,-0.02,1.03
2253,1782566011529,0.04,-0.02,1.02
2254,1782566011546,0.05,-0.02,1
2255,1782566011563,0.05,-0.02,1
2256,1782566011596,0.05,-0.02,1
2257,1782566011613,0.05,-0.02,1
2258,1782566011629,0.05,-0.02,1.02
2259,1782566011762,0.05,-0.02,1.02
2260,1782566011863,0.05,-0.03,1.01
2261,1782566011929,0.05,-0.03,1.01
2262,1782566011946,0.05,-0.03,1.01
2263,1782566012012,0.05,-0.03,1.01
2264,1782566012112,0.05,-0.03,1.02
2265,1782566012212,0.05,-0.03,1.02
2266,1782566012246,0.05,-0.03,1.02
2267,1782566012262,0.04,-0.04,1.02
2268,1782566012279,0.04,-0.04,1.02
2269,1782566012345,0.04,-0.04,1.02
2270,1782566012412,0.04,-0.03,1.01
2271,1782566012445,0.04,-0.03,1.01
2272,1782566012479,0.04,-0.03,1.01
2273,1782566012495,0.04,-0.03,1.01
2274,1782566012512,0.04,-0.03,1.01
2275,1782566012545,0.04,-0.03,1.01
2276,1782566012595,0.04,-0.03,1.01
2277,1782566012628,0.04,-0.02,1.01
2278,1782566012662,0.05,-0.03,1.02
2279,1782566012712,0.05,-0.03,1.02
2280,1782566012761,0.04,-0.03,1.01
2281,1782566012778,0.04,-0.03,1.01
2282,1782566012795,0.04,-0.03,1.01
2283,1782566012828,0.04,-0.03,1.01
2284,1782566012895,0.04,-0.03,1.01
2285,1782566012962,0.04,-0.03,1.02
2286,1782566012995,0.05,-0.03,1.02
2287,1782566013012,0.05,-0.03,1.02
2288,1782566013145,0.05,-0.03,1.02
2289,1782566013178,0.05,-0.03,1.02
2290,1782566013211,0.05,-0.03,1.01
2291,1782566013245,0.05,-0.03,1.01
2292,1782566013278,0.05,-0.03,1.01
2293,1782566013311,0.05,-0.03,1.01
2294,1782566013344,0.05,-0.03,1.01
2295,1782566013377,0.05,-0.03,1.01
2296,1782566013478,0.05,-0.03,1.01
2297,1782566013544,0.05,-0.03,1.01
2298,1782566013611,0.05,-0.03,1.01
2299,1782566013628,0.05,-0.03,1.01
2300,1782566013644,0.04,-0.03,1.01
2301,1782566013678,0.04,-0.03,1.01
2302,1782566013712,0.05,-0.03,1.01
2303,1782566013777,0.05,-0.03,1.01
2304,1782566013861,0.05,-0.03,1.01
2305,1782566013894,0.05,-0.03,1.01
2306,1782566013978,0.05,-0.03,1.01
2307,1782566014061,0.05,-0.03,1.01
2308,1782566014094,0.05,-0.03,1.01
2309,1782566014227,0.03,-0.03,1.01
2310,1782566014294,-0.04,-0.03,1.02
2311,1782566014360,-0.06,-0.03,1.01
2312,1782566014411,-0.12,-0.03,1.01
2313,1782566014510,-0.02,-0.04,1.03
2314,1782566014610,-0.01,-0.03,1.04
2315,1782566014710,-0.03,-0.02,1.02
2316,1782566014793,-0.03,-0.01,1.02
2317,1782566014860,-0.03,-0.01,1.03
2318,1782566014960,0.01,-0.01,1.02
2319,1782566014976,0.01,-0.01,1.02
2320,1782566015027,0.01,-0.01,1.02
2321,1782566015127,0.01,-0.03,1.01
2322,1782566015193,0.01,-0.03,1.02
2323,1782566015210,0.02,-0.01,1.01
2324,1782566015260,0.02,-0.01,1.01
2325,1782566015293,0.02,-0.01,1
2326,1782566015524,0.03,-0.02,1
2327,1782566015524,0.04,-0.02,1.01
2328,1782566015524,0.04,-0.02,1.01
2329,1782566015542,0.02,-0.02,1.02
2330,1782566015559,0.01,-0.02,1.02
2331,1782566015659,0.01,-0.01,1
2332,1782566015709,0.01,-0.01,1.02
2333,1782566015742,-0.01,-0.01,1.02
2334,1782566015775,-0.01,-0,1.02
2335,1782566015842,-0.01,-0.01,1.02
2336,1782566015909,0,-0.01,1.02
2337,1782566015942,0.01,-0.01,1.02
2338,1782566015992,0.01,-0,1
2339,1782566016042,0.13,-0.03,1.02
2340,1782566016092,0.13,-0.03,1.01
2341,1782566016159,0.13,-0.01,1.01
2342,1782566016192,0.13,-0.03,1.02
2343,1782566016242,0.13,-0.03,1.03
2344,1782566016292,0.13,-0.02,1.02
2345,1782566016358,-0.01,-0.04,0.94
2346,1782566016408,-0.01,-0.04,0.95
2347,1782566016458,-0.01,-0.02,0.95
2348,1782566016475,0.04,-0.01,0.97
2349,1782566016491,0.04,0.01,1.02
2350,1782566016525,0.05,0,1.03
2351,1782566016591,0.05,0,1.04
2352,1782566016658,0.04,0.01,1
2353,1782566016774,0.04,0.01,1.02
2354,1782566016908,-0,-0.02,1.04
2355,1782566016975,-0,-0.01,1.04
2356,1782566017024,0.02,-0.02,1.04
2357,1782566017074,0.04,-0.02,1.05
2358,1782566017159,0.12,-0.04,1.05
2359,1782566017208,0.13,-0.06,1.05
2360,1782566017275,0.13,-0.07,1.04
2361,1782566017325,0.13,-0.07,1.04
2362,1782566017358,0.12,-0.07,1.03
2363,1782566017458,0.03,-0.05,0.96
2364,1782566017508,0.01,-0.04,0.96
2365,1782566017558,0.01,-0.02,0.96
2366,1782566017641,0.01,-0.02,0.96
2367,1782566017658,0.04,-0.01,0.99
2368,1782566017790,0.06,-0.02,1.02
2369,1782566017807,0.09,-0.04,1.05
2370,1782566017841,0.11,-0.05,1.05
2371,1782566017891,0.12,-0.06,1.06
2372,1782566017924,0.11,-0.06,1.07
2373,1782566017957,0.14,-0.06,1.07
2374,1782566018041,0.14,-0.06,1.07
2375,1782566018091,0.14,-0.06,1.05
2376,1782566018174,0.12,-0.09,1.04
2377,1782566018207,0.12,-0.09,1.04
2378,1782566018273,0.11,-0.08,0.99
2379,1782566018340,0.11,-0.07,0.99
2380,1782566018473,0.13,-0.03,0.99
2381,1782566018540,0.13,-0.03,0.99
2382,1782566018623,0.12,-0.03,0.99
2383,1782566018657,0.12,-0.03,1
2384,1782566018706,0.11,-0.02,1.01
2385,1782566018756,0.11,-0.02,1.02
2386,1782566018774,0.11,-0.02,1.02
2387,1782566018790,0.11,-0.02,1.02
2388,1782566018807,0,-0.09,1.06
2389,1782566018823,0.07,-0.1,1.06
2390,1782566018856,0.08,-0.1,1.07
2391,1782566018956,0.08,-0.12,1.07
2392,1782566019107,0.01,-0.09,1.06
2393,1782566019223,0.01,-0.09,1.04
2394,1782566019239,0.01,-0.1,1.03
2395,1782566019256,0.01,-0.1,1.03
2396,1782566019272,-0.01,-0.09,1.02
2397,1782566019339,-0.01,-0.11,1.01
2398,1782566019423,-0.02,-0.09,1.01
2399,1782566019506,-0.02,-0.09,1.01
2400,1782566019572,0.05,-0.1,1
2401,1782566019623,0.05,-0.06,1
2402,1782566019672,0.06,-0.05,1
2403,1782566019789,0.07,-0.05,1.04
2404,1782566019839,0.08,-0.05,1.05
2405,1782566019872,0.3,-0.01,1
2406,1782566019972,0.25,-0.01,1
2407,1782566020072,0.18,-0,0.98
2408,1782566020105,0.03,-0.04,0.9
2409,1782566020122,0.03,-0.04,1.02
2410,1782566020189,0.03,-0.04,1.03
2411,1782566020239,0.02,-0.01,1.03
2412,1782566020289,0.02,0.01,1.06
2413,1782566020388,0.11,-0,1.03
2414,1782566020422,0.11,-0.01,1.03
2415,1782566020489,0.1,-0.02,1.03
2416,1782566020522,0.1,-0.03,1.04
2417,1782566020572,0.09,-0.04,1.04
2418,1782566020638,0.08,-0.03,1.04
2419,1782566020688,0.08,-0.03,1.04
2420,1782566020772,0.08,-0.03,1.03
2421,1782566020805,0.08,-0.04,1.01
2422,1782566020855,0.08,-0.04,1
2423,1782566020871,0.11,-0.04,1.02
2424,1782566020938,0.11,-0.04,1.02
2425,1782566020971,0.11,-0.05,1.01
2426,1782566021022,0.11,-0.05,1.01
2427,1782566021071,0.1,-0.04,1
2428,1782566021088,0.09,-0.04,1
2429,1782566021122,0.08,-0.04,1
2430,1782566021138,0.07,-0.04,1
2431,1782566021155,0.07,-0.03,1
2432,1782566021221,0.07,-0.03,1
2433,1782566021304,0.08,-0.03,1.01
2434,1782566021454,0.08,-0.03,1.01
2435,1782566021487,0.06,-0.04,1.02
2436,1782566021570,0.06,-0.04,1.01
2437,1782566021604,0.06,-0.04,1.01
2438,1782566021621,0.06,-0.04,1.01
2439,1782566021638,0.05,-0.04,1.01
2440,1782566021705,0.05,-0.04,1.01
2441,1782566021770,0.04,-0.04,1.01
2442,1782566021837,0.04,-0.04,1.01
2443,1782566021937,0.04,-0.04,1.01
2444,1782566021970,0.04,-0.04,1.01
2445,1782566022004,0.03,-0.04,1.01
2446,1782566022037,0.03,-0.05,1.02
2447,1782566022104,0.03,-0.05,1.02
2448,1782566022221,0.03,-0.05,1.02
2449,1782566022254,0.03,-0.05,1.02
2450,1782566022255,0.04,-0.04,1.02
2451,1782566022320,0.04,-0.04,1.01
2452,1782566022420,0.04,-0.04,1.01
2453,1782566022453,0.04,-0.04,1.01
2454,1782566022520,0.04,-0.04,1.02
2455,1782566022586,0.04,-0.04,1.02
2456,1782566022653,0.04,-0.04,1.01
2457,1782566022720,0.04,-0.04,1.01
2458,1782566022754,0.04,-0.04,1.01
2459,1782566022804,0.07,-0.04,1.01
2460,1782566022903,0.07,-0.04,1.02
2461,1782566022920,0.06,-0.03,1.01
2462,1782566022970,-0.03,-0.04,0.99
2463,1782566023053,0.08,-0,0.96
2464,1782566023103,0.08,-0,0.96
2465,1782566023153,0.07,-0,0.99
2466,1782566023253,0.05,-0.03,1.02
2467,1782566023269,0.07,-0.03,1.01
2468,1782566023336,0.07,-0.03,1.01
2469,1782566023353,0.08,-0.02,1.01
2470,1782566023419,0.09,-0.03,1.01
2471,1782566023469,0.09,-0.03,1.01
2472,1782566023536,0.09,-0.03,1.01
2473,1782566023553,0.09,-0.03,1.01
2474,1782566023586,0.08,-0.03,1.01
2475,1782566023602,0.08,-0.04,1.01
2476,1782566023620,0.06,-0.04,1.01
2477,1782566023652,0.05,-0.04,1.01
2478,1782566023686,0.05,-0.05,1.01
2479,1782566023752,0.05,-0.05,1.01
2480,1782566023835,0.05,-0.05,1.01
2481,1782566023886,0.04,-0.04,1.01
2482,1782566023952,0.04,-0.04,1.01
2483,1782566024035,0.04,-0.04,1.01
2484,1782566024102,0.04,-0.04,1.01
2485,1782566024169,0.03,-0.04,1.01
2486,1782566024218,0.03,-0.04,1.02
2487,1782566024301,0.03,-0.04,1.01
2488,1782566024335,0.03,-0.04,1.01
2489,1782566024385,0.03,-0.05,1.02
2490,1782566024518,0.03,-0.05,1.01
2491,1782566024585,0.03,-0.04,1.01
2492,1782566024618,0.03,-0.04,1.01
2493,1782566024651,0.04,-0.04,1.01
2494,1782566024751,0.04,-0.04,1.01
2495,1782566024851,0.04,-0.04,1.01
2496,1782566024902,0.05,-0.04,1.02
2497,1782566024918,0.05,-0.04,1.02
2498,1782566024985,0.05,-0.04,1.02
2499,1782566025068,0.05,-0.04,1.02
2500,1782566025101,0.05,-0.04,1.01
2501,1782566025168,0.04,-0.04,1.01
2502,1782566025218,0.04,-0.04,1.01
2503,1782566025268,0.04,-0.04,1.01
2504,1782566025285,0.04,-0.04,1.01
2505,1782566025318,0.04,-0.04,1.01
2506,1782566025384,0.04,-0.04,1.01
2507,1782566025401,-0.19,-0.1,0.99
2508,1782566025567,-0.19,-0.1,1.03
2509,1782566025584,-0.17,-0.12,1.01
2510,1782566025667,-0.09,-0.09,1.06
2511,1782566025733,-0.09,-0.09,1.06
2512,1782566025784,-0.09,-0.09,1.03
2513,1782566025900,-0.09,-0.09,1.02
2514,1782566025934,-0.1,-0.09,1.02
2515,1782566025984,-0.12,-0.05,1
2516,1782566026051,-0.11,-0.05,1
2517,1782566026084,-0.1,-0.05,1.01
2518,1782566026150,-0.1,-0.06,1.01
2519,1782566026217,-0.1,-0.06,1
2520,1782566026267,-0.1,-0.07,1.03
2521,1782566026594,-0.11,-0.08,1.03
2522,1782566026594,-0.11,-0.09,1.03
2523,1782566026594,-0.11,-0.05,1.04
2524,1782566026600,-0.11,-0.08,1.04
2525,1782566026650,-0.11,-0.08,1.04
2526,1782566026766,-0.14,-0.07,0.99
2527,1782566026783,-0.13,-0.07,0.99
2528,1782566026800,-0.13,-0.07,0.99
2529,1782566026833,-0.13,-0.07,0.99
2530,1782566026867,-0.13,-0.08,1.01
2531,1782566026917,-0.14,-0.05,1.03
2532,1782566027050,-0.06,-0.06,1.03
2533,1782566027150,-0.07,-0.04,1.03
2534,1782566027216,-0.09,-0.03,1.03
2535,1782566027283,-0.1,-0.13,1.04
2536,1782566027333,-0.1,-0.14,1.04
2537,1782566027400,-0.08,-0.12,1.08
2538,1782566027482,-0.1,-0.1,1.08
2539,1782566027616,-0.1,-0.1,1.04
2540,1782566027649,-0.12,-0.09,1.03
2541,1782566027732,-0.13,-0.09,1.01
2542,1782566027816,-0.11,-0.1,1.04
2543,1782566027866,-0.11,-0.1,1.04
2544,1782566027915,-0.11,-0.1,1.04
2545,1782566027982,-0.11,-0.08,1.04
2546,1782566028066,-0.13,-0.02,0.84
2547,1782566028150,-0.12,0.03,0.84
2548,1782566028216,-0.12,0.03,0.91
2549,1782566028266,-0.12,0.03,1.04
2550,1782566028315,-0.12,-0.03,1.11
2551,1782566028365,-0.12,-0.04,1.12
2552,1782566028394,-0.13,-0.01,0.91
2553,1782566028449,-0.13,0.01,0.81
2554,1782566028500,-0.14,0.01,0.77
2555,1782566028582,-0.14,0.01,0.77
2556,1782566028616,-0.14,0.01,0.77
2557,1782566028649,-0.14,-0.06,1
2558,1782566028715,-0.13,-0.01,1.02
2559,1782566028782,-0.09,0.02,1.04
2560,1782566028848,-0.04,0.04,1.04
2561,1782566028898,-0.03,0.06,1.07
2562,1782566028965,-0.09,-0.1,0.88
2563,1782566029081,-0.09,-0.18,0.97
2564,1782566029131,-0.1,-0.18,0.97
2565,1782566029164,-0.15,-0.1,1.12
2566,1782566029181,-0.15,-0.1,1.13
2567,1782566029198,-0.15,-0.1,1.13
2568,1782566029231,-0.14,-0.08,1.13
2569,1782566029298,-0.13,-0.1,1.13
2570,1782566029398,-0.1,-0.1,1.13
2571,1782566029481,-0.02,-0.15,1.14
2572,1782566029531,0,-0.15,1.05
2573,1782566029564,0,-0.15,0.98
2574,1782566029580,0,-0.15,0.97
2575,1782566029614,-0.07,-0.08,0.86
2576,1782566029664,-0.09,-0.06,0.97
2577,1782566029764,-0.06,-0.08,0.92
2578,1782566029814,-0.08,-0.08,0.97
2579,1782566029881,-0.08,-0.09,0.97
2580,1782566029914,-0.08,-0.1,0.97
2581,1782566029947,-0.02,-0.2,1.1
2582,1782566029997,-0.12,-0.2,1.09
2583,1782566030097,-0.1,-0.19,1.05
2584,1782566030163,-0.1,-0.16,1.04
2585,1782566030231,-0.01,0.15,0.96
2586,1782566030264,-0.02,0.15,0.95
2587,1782566030363,-0.09,0.15,0.9
2588,1782566030496,0.04,0,1.19
2589,1782566030563,0.04,0.02,1.08
2590,1782566030581,0.04,0.16,0.95
2591,1782566030614,0.04,0.16,0.95
2592,1782566030680,0.04,0.2,0.92
2593,1782566030729,0.04,0.2,0.92
2594,1782566030796,0.06,0.18,0.92
2595,1782566030846,-0.02,0.19,0.91
2596,1782566030897,-0.04,0.2,0.91
2597,1782566030946,-0.04,0.21,0.91
2598,1782566031013,-0.03,0.21,1.17
2599,1782566031096,0.05,0.57,0.88
2600,1782566031146,0.05,0.57,0.82
2601,1782566031197,0,0.53,0.87
2602,1782566031279,-0.02,0.42,0.87
2603,1782566031313,0.01,0.21,1.05
2604,1782566031330,0.05,0.21,1.05
2605,1782566031363,0.05,0.21,1.05
2606,1782566031464,0.05,0.33,0.93
2607,1782566031529,0.08,0.36,0.92
2608,1782566031563,-0.18,0.32,0.88
2609,1782566031646,-0.18,0.3,1.05
2610,1782566031680,-0.14,0.23,1.06
2611,1782566031695,-0.12,0.19,1.06
2612,1782566031729,-0.08,0.18,1.06
2613,1782566031796,-0.07,0.18,0.92
2614,1782566031846,-0.02,0.6,0.83
2615,1782566031912,-0.02,0.68,0.83
2616,1782566031979,-0.02,0.7,0.86
2617,1782566032062,-0.02,0.7,0.89
2618,1782566032095,-0.27,0.74,0.91
2619,1782566032145,-0.28,0.82,0.88
2620,1782566032195,-0.28,0.83,0.91
2621,1782566032245,-0.28,0.83,0.91
2622,1782566032362,-0.19,0.53,0.89
2623,1782566032395,-0.19,0.49,0.89
2624,1782566032462,-0.1,0.53,1.02
2625,1782566032528,0.13,0.49,1.09
2626,1782566032595,-0.1,0.73,1.12
2627,1782566032649,-0.03,0.73,1.12
2628,1782566032711,-0.03,0.81,1.29
2629,1782566032794,-0.02,0.83,1.29
2630,1782566032844,-0.06,0.75,1.14
2631,1782566032860,-0.04,0.74,1.14
2632,1782566032927,-0,0.73,1.24
2633,1782566032977,0.04,0.73,1.25
2634,1782566033044,0.06,0.7,1.25
2635,1782566033077,0.06,0.69,1.25
2636,1782566033127,0.01,0.7,1.02
2637,1782566033160,-0.15,0.66,0.8
2638,1782566033210,-0.15,0.52,0.9
2639,1782566033244,-0.12,0.52,1.11
2640,1782566033310,-0.12,0.52,1.11
2641,1782566033360,-0.07,0.59,1.13
2642,1782566033527,-0.13,0.78,1.17
2643,1782566033577,-0.09,0.7,1.17
2644,1782566033643,-0.09,0.7,1.17
2645,1782566033677,-0.12,0.75,1.17
2646,1782566033693,0.07,0.62,1.18
2647,1782566033709,0.05,0.66,1
2648,1782566033777,0.04,0.69,0.77
2649,1782566033843,0.04,0.84,0.59
2650,1782566033860,0.01,0.84,0.77
2651,1782566033926,0,0.84,0.6
2652,1782566033959,-0.07,0.93,0.54
2653,1782566033993,-0.07,0.93,0.57
2654,1782566034093,-0.07,0.9,0.72
2655,1782566034126,0,0.79,0.57
2656,1782566034259,0.08,0.81,0.87
2657,1782566034310,0.08,0.67,0.72
2658,1782566034377,0.08,0.67,0.72
2659,1782566034442,0.03,0.67,0.89
2660,1782566034509,0.02,0.7,0.79
2661,1782566034642,0.03,0.65,1.11
2662,1782566034675,0.01,0.84,0.71
2663,1782566034709,-0.02,0.8,0.71
2664,1782566034726,-0.04,0.75,1.03
2665,1782566034742,-0.04,0.74,1.03
2666,1782566034775,-0.04,0.74,1.03
2667,1782566034842,-0.07,0.75,1.03
2668,1782566034926,-0.08,0.78,1.14
2669,1782566034976,0.05,0.69,0.97
2670,1782566035025,-0.04,0.66,0.97
2671,1782566035059,-0.13,0.59,0.97
2672,1782566035109,-0.24,0.55,0.94
2673,1782566035192,-0.4,0.5,0.94
2674,1782566035392,0.17,0.12,0.93
2675,1782566035459,0.17,0.26,0.8
2676,1782566035476,0.16,0.26,0.73
2677,1782566035491,-0.16,0.8,0.72
2678,1782566035559,-0.16,0.65,0.7
2679,1782566035592,-0.12,0.57,0.72
2680,1782566035642,-0.11,0.57,1.14
2681,1782566035675,-0.11,0.57,1.26
2682,1782566035708,-0.05,0.65,1.26
2683,1782566035725,-0.05,0.79,1.29
2684,1782566035742,-0.11,0.94,1.26
2685,1782566035774,-0.11,0.95,0.92
2686,1782566035808,-0.09,0.99,0.75
2687,1782566035908,-0.15,1.04,0.92
2688,1782566035941,-0.15,1.04,0.75
2689,1782566035958,-0.15,1.04,0.75
2690,1782566035975,0.05,0.93,1.25
2691,1782566036008,0.05,0.93,1.54
2692,1782566036041,0.05,0.76,1.25
2693,1782566036058,0.01,0.92,1.37
2694,1782566036241,0.09,0.84,1.37
2695,1782566036308,0.09,0.83,1.39
2696,1782566036358,-0.09,1.04,0.69
2697,1782566036508,-0.09,0.61,0.69
2698,1782566036557,-0.09,0.6,0.87
2699,1782566036658,-0.04,0.31,0.65
2700,1782566036891,-0.21,0.88,1.12
2701,1782566036907,-0.21,0.87,1.12
2702,1782566036941,-0.05,0.84,1.08
2703,1782566036957,-0.05,0.84,1.28
2704,1782566037024,-0.04,0.84,1.28
2705,1782566037058,-0.05,0.91,1.08
2706,1782566037140,-0.02,0.86,1.06
2707,1782566037258,-0.03,0.95,0.56
2708,1782566037290,-0.03,0.95,0.56
2709,1782566037307,-0.06,0.95,0.54
2710,1782566037323,-0.06,0.95,0.5
2711,1782566037544,-0.14,0.8,0.6
2712,1782566037557,-0.18,0.79,0.6
2713,1782566037557,-0.2,0.59,0.59
2714,1782566037573,-0.2,0.55,0.6
2715,1782566037690,-0.25,0.09,0.92
2716,1782566037756,-0.24,0.09,1.18
2717,1782566037923,-0.03,0.76,1.27
2718,1782566037990,-0.02,0.77,1.08
2719,1782566038023,-0.02,0.78,0.9
2720,1782566038073,-0.01,0.84,0.86
2721,1782566038139,0.02,0.84,0.86
2722,1782566038189,0.02,0.78,0.86
2723,1782566038306,0.01,0.67,0.87
2724,1782566038356,0.01,0.77,1.58
2725,1782566038406,0.01,0.92,0.87
2726,1782566038423,0.01,0.94,0.75
2727,1782566038456,0.01,0.94,0.87
2728,1782566038520,0.05,0.98,0.94
2729,1782566038557,0.05,0.98,0.94
2730,1782566038673,0.04,0.9,1.16
2731,1782566038773,0.08,0.91,0.69
2732,1782566038806,0.08,0.76,0.84
2733,1782566038856,0.07,0.7,0.84
2734,1782566038990,0.01,0.8,0.89
2735,1782566039073,0.02,0.82,0.93
2736,1782566039157,-0.01,0.82,1.29
2737,1782566039206,-0.05,0.8,1.13
2738,1782566039224,-0.11,0.91,0.99
2739,1782566039239,-0.15,0.91,0.99
2740,1782566039273,-0.11,0.91,0.99
2741,1782566039356,-0.11,0.76,0.92
2742,1782566039373,-0.15,0.66,0.77
2743,1782566039406,-0.23,0.64,0.77
2744,1782566039473,-0.15,0.59,1.09
2745,1782566039489,0.08,0.71,1.12
2746,1782566039540,0.02,0.71,1.12
2747,1782566039589,0.02,0.67,1.12
2748,1782566039656,0.02,0.67,0.8
2749,1782566039722,0.17,0.67,0.8
2750,1782566039772,-0.19,0.77,0.59
2751,1782566039822,-0.21,0.73,0.59
2752,1782566039889,-0.24,0.46,0.59
2753,1782566039955,-0.24,0.45,0.81
2754,1782566040038,0.13,0.43,1.01
2755,1782566040072,0.08,0.47,1.01
2756,1782566040122,0.08,0.47,1.04
2757,1782566040222,0.03,0.51,1.01
2758,1782566040255,0.03,0.53,1
2759,1782566040338,-0.08,0.76,0.85
2760,1782566040388,-0.08,0.71,1.05
2761,1782566040438,-0.08,0.63,1.32
2762,1782566040504,0.04,0.71,1.32
2763,1782566040538,0.04,0.71,1.41
2764,1782566040572,-0.04,0.67,1.41
2765,1782566040605,0.15,0.71,1.31
2766,1782566040671,-0.16,1.02,1.07
2767,1782566040738,-0.16,0.99,1.16
2768,1782566040793,-0.16,0.93,1.18
2769,1782566040821,-0.12,0.79,1.16
2770,1782566040838,-0.12,0.68,1.16
2771,1782566040855,-0.07,0.76,0.87
2772,1782566040888,-0.09,0.82,0.71
2773,1782566040955,-0.11,0.69,0.74
2774,1782566041121,-0.11,0.59,0.78
2775,1782566041154,0.08,0.35,1.07
2776,1782566041205,0.11,0.35,1.07
2777,1782566041254,0.08,0.63,1.07
2778,1782566041337,-0.14,0.7,1.03
2779,1782566041455,-0.17,0.56,0.84
2780,1782566041470,-0.17,0.56,0.88
2781,1782566041504,-0.17,0.59,0.95
2782,1782566041604,-0.16,0.76,1.04
2783,1782566041687,-0.12,0.65,0.76
2784,1782566041737,-0.13,0.71,0.87
2785,1782566041770,-0.22,0.76,1
2786,1782566041837,-0.13,0.8,1.07
2787,1782566041870,-0.13,0.85,1.26
2788,1782566041904,-0.2,0.84,0.93
2789,1782566041954,-0.2,0.87,0.94
2790,1782566042003,-0.16,0.92,1.21
2791,1782566042053,-0.16,0.98,0.94
2792,1782566042071,-0.13,0.98,1.11
2793,1782566042154,-0.12,0.98,0.94
2794,1782566042204,-0.1,0.81,1.19
2795,1782566042270,-0.1,0.81,1.19
2796,1782566042320,-0.08,0.82,1.19
2797,1782566042404,-0.08,0.87,1.17
2798,1782566042504,0.14,0.98,0.92
2799,1782566042537,0.14,0.98,0.92
2800,1782566042587,0.19,0.98,0.92
2801,1782566042670,0.19,0.85,0.92
2802,1782566042720,0.34,0.5,0.97
2803,1782566042771,0.34,0.6,0.97
2804,1782566042836,0.29,0.6,0.98
2805,1782566042869,0.29,0.69,0.98
2806,1782566042936,0.16,0.69,0.72
2807,1782566042986,0.16,0.8,0.62
2808,1782566043103,-0.24,0.49,0.79
2809,1782566043203,-0.24,0.57,0.79
2810,1782566043236,-0.28,0.62,0.58
2811,1782566043286,-0.28,0.62,0.58
2812,1782566043319,0.29,0.46,0.76
2813,1782566043453,0.29,0.46,0.65
2814,1782566043504,0.16,0.46,0.65
2815,1782566043553,0,0.46,0.88
2816,1782566043569,0,0.46,1.18
2817,1782566043620,0,0.58,1.18
2818,1782566043703,0.06,0.58,1.2
2819,1782566043786,0.15,0.63,1.2
2820,1782566043836,0.01,0.42,0.89
2821,1782566043869,-0.03,0.44,0.89
2822,1782566043903,0,0.56,0.92
2823,1782566043969,-0.01,0.56,0.95
2824,1782566044052,-0.01,0.22,1.09
2825,1782566044169,0.03,0.22,1.22
2826,1782566044236,0.03,0.28,1.22
2827,1782566044268,0.03,0.34,1.22
2828,1782566044285,0.09,0.34,1.27
2829,1782566044302,0.09,0.34,1.27
2830,1782566044368,0.1,0.58,0.93
2831,1782566044535,0.03,0.58,1.05
2832,1782566044551,0,0.47,1.05
2833,1782566044586,-0,0.34,1.1
2834,1782566044669,0.06,0.37,1.1
2835,1782566044718,0.06,0.37,1.2
2836,1782566044785,0.07,0.39,1.2
2837,1782566044834,0.13,0.47,1.12
2838,1782566044851,0.13,0.47,1.14
2839,1782566044885,0.13,0.49,1.14
2840,1782566044951,0.11,0.49,1.12
2841,1782566045035,0.1,0.52,1.05
2842,1782566045085,0.06,0.34,1.02
2843,1782566045117,0.04,0.36,1.02
2844,1782566045135,0.04,0.36,1.02
2845,1782566045151,0.02,0.4,1.02
2846,1782566045201,0.01,0.45,1.02
2847,1782566045251,0,0.49,1.03
2848,1782566045301,0.01,0.49,1.03
2849,1782566045367,0.01,0.45,1.08
2850,1782566045434,0.01,0.39,1.13
2851,1782566045434,-0.05,0.13,1.04
2852,1782566045551,-0.05,0.15,1.05
2853,1782566045618,0.01,0.15,1.08
2854,1782566045684,0.09,0.15,0.95
2855,1782566045717,0.07,0.15,0.95
2856,1782566045734,0.07,0.15,0.95
2857,1782566045785,0.06,0.13,1
2858,1782566045851,0.05,0.13,1
2859,1782566045884,0.04,0.1,1
2860,1782566045934,0.02,0.04,1.01
2861,1782566045984,0.02,0.04,1.01
2862,1782566046084,0.02,0.04,1.01
2863,1782566046101,0.02,0.03,1.01
2864,1782566046234,0.06,-0.01,1.09
2865,1782566046300,0.09,-0.03,1.14
2866,1782566046350,0.1,-0.04,1.1
2867,1782566046400,0.1,-0.04,1.1
2868,1782566046483,0.07,-0.1,1.1
2869,1782566046533,0.07,-0.1,1.12
2870,1782566046667,0.07,-0.1,1.1
2871,1782566046766,0.11,-0.38,1.05
2872,1782566046833,0.14,-0.3,1.02
2873,1782566046883,0.14,-0.28,1.02
2874,1782566046933,0.15,-0.19,0.88
2875,1782566046949,0.15,-0.2,0.88
2876,1782566046983,0.15,-0.2,0.88
2877,1782566047050,0.14,-0.2,0.91
2878,1782566047150,0.14,-0.2,0.92
2879,1782566047250,0.14,-0.16,0.99
2880,1782566047315,0.14,-0.21,1.03
2881,1782566047366,0.16,-0.22,1.09
2882,1782566047383,0.14,-0.22,1.03
2883,1782566047416,0.14,-0.22,1.03
2884,1782566047466,0.13,-0.16,0.98
2885,1782566047533,0.11,-0.16,0.98
2886,1782566047600,0.11,-0.16,0.92
2887,1782566047649,0.11,-0.15,0.91
2888,1782566047699,0.1,-0.15,0.91
2889,1782566047732,0.08,-0.15,0.91
2890,1782566047750,0.1,-0.16,1
2891,1782566047766,0.08,-0.15,1.05
2892,1782566047816,0.08,-0.15,1.05
2893,1782566047832,0.08,-0.15,1.05
2894,1782566047865,0.09,-0.14,1.08
2895,1782566047882,0.09,-0.14,1.05
2896,1782566047932,0.09,-0.14,1.05
2897,1782566047982,0.12,-0.12,1.05
2898,1782566048032,0.15,-0.19,1
2899,1782566048098,0.22,-0.15,1
2900,1782566048132,0.22,-0.15,1.06
2901,1782566048199,0.22,-0.15,1.06
2902,1782566048248,0.19,-0.15,1.06
2903,1782566048349,0.08,-0.08,1.16
2904,1782566048560,0.08,-0.14,1.2
2905,1782566048560,0.11,-0.14,1.21
2906,1782566048560,0.12,-0.19,1.2
2907,1782566048566,0.14,-0.19,1.16
2908,1782566048566,0.14,-0.19,1.03
2909,1782566048598,0.12,-0.13,0.99
2910,1782566048665,0.12,-0.13,1.09
2911,1782566048732,0.12,-0.19,1.12
2912,1782566048781,0.14,-0.21,1.23
2913,1782566048915,0.15,-0.22,1.11
2914,1782566048982,0.15,-0.18,1.11
2915,1782566049048,0.15,-0.16,1.11
2916,1782566049064,0.16,-0.16,1
2917,1782566049164,0.14,-0.16,1.06
2918,1782566049265,0.14,-0.16,1.09
2919,1782566049297,0.13,-0.16,1.09
2920,1782566049314,0.11,-0.13,1.08
2921,1782566049381,0.1,-0.14,1.12
2922,1782566049397,0.09,-0.17,1.12
2923,1782566049415,0.09,-0.15,1.12
2924,1782566049464,0.09,-0.16,1.12
2925,1782566049581,0.1,-0.16,1.13
2926,1782566049581,0.1,-0.13,1.11
2927,1782566049681,0.11,-0.13,1.09
2928,1782566049730,0.11,-0.11,1.09
2929,1782566049781,0.12,-0.11,1.03
2930,1782566049847,0.12,-0.12,1.03
2931,1782566049880,0.09,-0.13,0.99
2932,1782566049947,0.07,-0.13,0.99
2933,1782566049997,0.07,-0.1,0.98
2934,1782566050064,0.07,-0.09,0.94
2935,1782566050097,0.07,-0.05,0.93
2936,1782566050147,0.07,-0.05,0.94
2937,1782566050164,0.08,-0.04,0.94
2938,1782566050181,0.09,-0,1.09
2939,1782566050213,0.09,-0,1.12
2940,1782566050230,0.09,-0,1.12
2941,1782566050264,0.07,-0.03,1.09
2942,1782566050280,0.06,-0.03,1.08
2943,1782566050297,0.05,-0.03,1.03
2944,1782566050364,0.05,-0.03,1.03
2945,1782566050397,0.05,-0.06,1.02
2946,1782566050497,0.04,0.02,1.14
2947,1782566050580,0.04,0.02,1.07
2948,1782566050614,0.06,0.01,1.03
2949,1782566050680,0.07,0.01,0.96
2950,1782566050713,0.07,-0,0.89
2951,1782566050730,0.07,0.04,1.06
2952,1782566050779,0.07,0.06,0.94
2953,1782566050829,0.07,0.06,0.93
2954,1782566050880,0.07,0.06,0.91
2955,1782566050930,0.07,0.06,0.92
2956,1782566051046,0.08,-0.01,0.94
2957,1782566051113,0.06,0.02,0.92
2958,1782566051163,0.06,0.02,0.92
2959,1782566051229,0.06,0.02,0.92
2960,1782566051262,0.09,0.02,1.03
2961,1782566051312,0.09,0.02,1
2962,1782566051362,0.09,0.01,1
2963,1782566051429,0.09,0.01,1.01
2964,1782566051529,0.08,-0.04,1.01
2965,1782566051612,0.08,-0.04,1.01
2966,1782566051679,0.07,-0.05,1.01
2967,1782566051729,0.07,-0.05,1
2968,1782566051745,0.1,-0.05,1.03
2969,1782566051795,0.1,-0.05,1.01
2970,1782566051828,0.1,-0.05,0.99
2971,1782566051862,0.1,-0.05,0.99
2972,1782566051962,0.1,-0.05,1.03
2973,1782566052012,0.08,-0.02,0.97
2974,1782566052063,0.07,-0.02,0.97
2975,1782566052112,0.05,-0.03,0.98
2976,1782566052145,0.05,-0.05,1.03
2977,1782566052179,0.07,-0.05,1.05
2978,1782566052245,0.07,-0.05,1.05
2979,1782566052295,0.09,0,1
2980,1782566052329,0.09,0,1
2981,1782566052395,0.07,-0.01,1.02
2982,1782566052445,0.07,-0.01,1.02
2983,1782566052462,0.06,-0.01,1.02
2984,1782566052495,0.06,-0.02,1.03
2985,1782566052512,0.06,-0.02,1.05
2986,1782566052561,0.05,-0.02,1.05
2987,1782566052628,0.05,-0.02,1.03
2988,1782566052695,0.07,-0.02,1.02
2989,1782566052745,0.07,-0.02,1.01
2990,1782566052828,0.07,-0.01,1.01
2991,1782566052911,0.07,-0.02,1
2992,1782566052928,0.06,-0.02,1
2993,1782566053028,0.06,-0.02,1
2994,1782566053045,0.06,-0.01,1
2995,1782566053078,0.06,-0.01,1
2996,1782566053194,0.07,-0.02,1.03
2997,1782566053228,0.07,-0.01,1
2998,1782566053278,0.07,0.01,0.99
2999,1782566053378,0.07,0.01,0.99
3000,1782566053411,0.07,0.01,0.99
3001,1782566053428,0.07,-0.01,1.03
3002,1782566053477,0.07,-0.01,1.03
3003,1782566053527,0.07,-0,1.03
3004,1782566053561,0.06,-0,1.01
3005,1782566053594,0.06,-0,1.01
3006,1782566053660,0.07,-0.01,1.01
3007,1782566053710,0.06,0,1
3008,1782566053760,0.06,-0.01,1.01
3009,1782566053860,0.06,-0.01,1.01
3010,1782566053893,0.06,-0.01,1.01
3011,1782566053927,0.06,-0.01,1.01
3012,1782566053993,0.05,-0,1.02
3013,1782566054010,0.05,-0,1.02
3014,1782566054060,0.05,-0.01,1.02
3015,1782566054127,0.06,-0.01,1.03
3016,1782566054160,0.06,-0.01,1.03
3017,1782566054210,0.06,-0.01,1.03
3018,1782566054310,0.07,-0.01,1.02
3019,1782566054427,0.06,-0.01,1.01
3020,1782566054460,0.06,-0.01,1.01
3021,1782566054543,0.07,0,1.01
3022,1782566054643,0.06,0,1.01
3023,1782566054676,0.06,0,1.01
3024,1782566054710,0.06,0,1.01
3025,1782566054776,0.04,-0,1.01
3026,1782566054809,0.04,-0,1.01
3027,1782566054826,0.04,-0,1.01
3028,1782566054859,0.04,-0,1.01
3029,1782566054910,0.04,-0,1.01
3030,1782566054960,0.04,-0,1.01
3031,1782566055043,0.04,-0,1.01
3032,1782566055076,0.04,-0,1.01
3033,1782566055159,0.02,-0.01,1.02
3034,1782566055259,0.02,-0.01,1.02
3035,1782566055310,0.02,-0.01,1.01
3036,1782566055375,0.01,-0,1.01
3037,1782566055409,0.01,-0,1.01
3038,1782566055476,0.01,-0,1.01
3039,1782566055543,0.02,-0,1.02
3040,1782566055576,0.02,-0,1.02
3041,1782566055659,0.01,-0.01,1.02
3042,1782566055742,0.01,-0,1.02
3043,1782566055792,0.01,-0,1.02
3044,1782566055825,0.01,-0,1.02
3045,1782566055876,0.01,-0,1.02
3046,1782566055925,0.01,-0.01,1.01
3047,1782566055975,0.01,-0.01,1.01
3048,1782566055993,0.01,-0,1.01
3049,1782566056042,0.01,-0,1.01
3050,1782566056242,0.01,-0.01,1.01
3051,1782566056326,0.01,-0.01,1.01
3052,1782566056358,0.01,-0.01,1.01
3053,1782566056375,0.01,-0.01,1.01
3054,1782566056408,0.01,-0.01,1
3055,1782566056459,0.02,-0.01,1.01
3056,1782566056508,0.03,-0.01,1.02
3057,1782566056558,0.03,-0.01,1.02
3058,1782566056708,0,-0.01,1.01
3059,1782566056741,0,-0.01,1.01
3060,1782566056808,0,-0.01,1.01
3061,1782566056858,0,-0.01,1.01
3062,1782566056958,0.01,-0.01,1.02
3063,1782566057008,0.01,-0.01,1.02
3064,1782566057091,0.01,-0.01,1.03
3065,1782566057158,0.01,-0.01,1.03
3066,1782566057192,0.01,-0.01,1.01
3067,1782566057225,0.01,-0.01,1.01
3068,1782566057291,0.01,-0.01,1.01
3069,1782566057341,0.01,-0.01,1.01
3070,1782566057390,0.01,-0.01,1.01
3071,1782566057441,0.01,-0.01,1.01
3072,1782566057490,0.01,-0.01,1.01
3073,1782566057624,0.01,-0.01,1.02
3074,1782566057708,0.01,-0.01,1.02
3075,1782566057808,0.02,-0.01,1.02
3076,1782566057859,0.02,-0.01,1.02
3077,1782566057923,0.02,-0,1.01
3078,1782566057974,0.02,-0.01,1.01
3079,1782566058023,0.02,-0.01,1.01
3080,1782566058057,0.01,-0.01,1.02
3081,1782566058140,0.01,-0.02,1.02
3082,1782566058207,0.01,-0.02,1.02
3083,1782566058240,0.01,-0.02,1.02
3084,1782566058306,0.02,-0.01,1.02
3085,1782566058324,0.02,-0.01,1.02
3086,1782566058406,0.02,-0.02,1.01
3087,1782566058423,0.02,-0.02,1.01
3088,1782566058473,0.02,-0.02,1.01
3089,1782566058556,0.01,-0.01,1.01
3090,1782566058674,0.01,-0.01,1.01
3091,1782566058706,0.01,-0.01,1.01
3092,1782566058773,0.01,-0.01,1.01
3093,1782566058823,0.02,-0.01,1.01
3094,1782566058856,0.02,-0.01,1.01
3095,1782566058906,0.02,-0.01,1.01
3096,1782566058973,0.02,-0.01,1.01
3097,1782566059039,0.02,-0.01,1.01
3098,1782566059140,0.01,-0.01,1.02
3099,1782566059256,0,-0.01,1.02
3100,1782566059273,0.02,-0.01,1.01
3101,1782566059306,0.02,-0.01,1.01
3102,1782566059322,0.02,-0.01,1.01
3103,1782566059340,0.02,-0,1.01
3104,1782566059569,0.02,-0,1.01
3105,1782566059576,0.02,-0,1.01
3106,1782566059589,0.02,-0,1.02
3107,1782566059622,0.02,-0,1.02
3108,1782566059672,0.01,-0,1.01
3109,1782566059689,0.01,-0,1.01
3110,1782566059722,0.01,-0,1.01
3111,1782566059739,0.01,-0.01,1.01
3112,1782566059755,0.02,-0.01,1.01
3113,1782566059822,0.02,-0.01,1.01
3114,1782566059888,0.02,-0.01,1.02
3115,1782566059922,0.01,-0.01,1.01
3116,1782566059988,0.01,-0.01,1.01
3117,1782566060088,0.01,-0.01,1.01
3118,1782566060122,0.01,-0.01,1.01
3119,1782566060139,0.02,-0.01,1.01
3120,1782566060172,0.02,-0.01,1.01
3121,1782566060239,0.02,-0.01,1.01
3122,1782566060288,0.02,-0.01,1.01
3123,1782566060338,0.02,-0.01,1.02
3124,1782566060438,0.01,-0.01,1.02
3125,1782566060505,0.01,-0.01,1.02
3126,1782566060521,0.01,-0.01,1.02
3127,1782566060538,0.01,-0.01,1.01
3128,1782566060571,0.01,-0.01,1.01
3129,1782566060588,0.01,-0.01,1.01
3130,1782566060687,0.02,-0.01,1.01
3131,1782566060788,0.02,-0.01,1.01
3132,1782566060855,0.02,-0.01,1.01
3133,1782566060888,0.02,-0.01,1.01
3134,1782566060921,0.02,-0.01,1.01
3135,1782566060987,0.02,-0.01,1.02
3136,1782566061121,0.01,-0.01,1.02
3137,1782566061171,0.02,-0.01,1.01
3138,1782566061221,0.01,-0.01,1.01
3139,1782566061337,0.01,-0.01,1.01
3140,1782566061354,0.01,-0.01,1.01
3141,1782566061437,0.02,-0.01,1.02
3142,1782566061488,0.02,-0.01,1.02
3143,1782566061537,0.02,-0.01,1.02
3144,1782566061571,0.02,-0.01,1.02
3145,1782566061588,0.01,-0.01,1.02
3146,1782566061638,0.01,-0.01,1.02
3147,1782566061671,0.02,-0.01,1.01
3148,1782566061720,0.02,-0.01,1.01
3149,1782566061771,0.02,-0.01,1.01
3150,1782566061870,0.01,-0.01,1.01
3151,1782566062020,0.01,-0.01,1.01
3152,1782566062054,0.01,-0.01,1.01
3153,1782566062120,0.01,-0.01,1.01
3154,1782566062237,0.02,-0,1.02
3155,1782566062286,0.02,-0.01,1.01
3156,1782566062336,0.02,-0.01,1.01
3157,1782566062353,0.02,-0.01,1.01
3158,1782566062386,0.02,-0.01,1.01
3159,1782566062403,0.02,-0.01,1.01
3160,1782566062420,0.02,-0.01,1.01
3161,1782566062470,0.02,-0.01,1.01
3162,1782566062520,0.01,-0.01,1.01
3163,1782566062603,0.01,-0.01,1.01
3164,1782566062703,0.01,-0.01,1.01
3165,1782566062720,0.01,-0.01,1.01
3166,1782566062736,0.01,-0.01,1.02
3167,1782566062770,0.01,-0.01,1.02
3168,1782566062803,0.01,-0.01,1.02
3169,1782566062902,0.01,-0.01,1.02
3170,1782566062936,0.01,-0.01,1.02
3171,1782566063053,0.01,-0.01,1.01
3172,1782566063103,0.01,-0.01,1.01
3173,1782566063185,0.02,-0.01,1.01
3174,1782566063219,0.02,-0.01,1.01
3175,1782566063269,0.02,-0.01,1.01
3176,1782566063303,0.02,-0.01,1.01
3177,1782566063386,0.02,-0.01,1.01
3178,1782566063452,0.02,-0.01,1.01
3179,1782566063485,0.02,-0.01,1.02
3180,1782566063535,0.02,-0.01,1.02
3181,1782566063586,0.01,-0.01,1.02
3182,1782566063652,0.01,-0.01,1.02
3183,1782566063685,0.01,-0.01,1.02
3184,1782566063736,0.01,-0.01,1.01
3185,1782566063769,0.01,-0.01,1.01
3186,1782566063802,0.02,-0.01,1.01
3187,1782566063869,0.02,-0.01,1.01
3188,1782566063953,0.02,-0.01,1.01
3189,1782566064002,0.02,-0.01,1.01
3190,1782566064068,0.01,-0.01,1.02
3191,1782566064135,0.01,-0.01,1.02
3192,1782566064185,0.01,-0.01,1.02
3193,1782566064269,0.01,-0.01,1.02
3194,1782566064285,0.01,-0.01,1.02
3195,1782566064452,0.02,-0.01,1.01
3196,1782566064502,0.02,-0.01,1.01
3197,1782566064568,0.02,-0.01,1.01
3198,1782566064601,0.02,-0.01,1.01
3199,1782566064652,0.01,-0.01,1.02
3200,1782566064718,0.01,-0.01,1.02
3201,1782566064785,0.01,-0.01,1.02
3202,1782566064785,0.01,-0.01,1.01
3203,1782566064818,0.01,-0.01,1.01
3204,1782566064834,0.01,-0.01,1.01
3205,1782566064884,0.01,-0.01,1.01
3206,1782566064935,0.02,-0,1.01
3207,1782566065018,0.02,-0,1.02
3208,1782566065051,0.02,-0,1.02
3209,1782566065101,0.02,-0,1.02
3210,1782566065167,0.02,-0.01,1.02
3211,1782566065184,0.01,-0.01,1.01
3212,1782566065251,0.01,-0.01,1.01
3213,1782566065284,0.01,-0.01,1.01
3214,1782566065367,0.01,-0.01,1.01
3215,1782566065434,0.01,-0.01,1.02
3216,1782566065450,0.01,-0.01,1.01
3217,1782566065534,0.02,-0.01,1.01
3218,1782566065568,0.02,-0.01,1.01
3219,1782566065617,0.02,-0.01,1.01
3220,1782566065684,0.02,-0.01,1.01
3221,1782566065851,0.01,-0.01,1.01
3222,1782566065900,0.01,-0.01,1.01
3223,1782566065951,0.02,-0.01,1.01
3224,1782566065983,0.01,-0.01,1.02
3225,1782566066034,0.01,-0.01,1.02
3226,1782566066083,0.01,-0.01,1.02
3227,1782566066133,0.01,-0.01,1.02
3228,1782566066200,0.02,-0.01,1.01
3229,1782566066267,0.02,-0.01,1.02
3230,1782566066284,0.02,-0.01,1.01
3231,1782566066367,0.02,-0.01,1.01
3232,1782566066383,0.02,-0.01,1.01
3233,1782566066483,0.01,-0.01,1.01
3234,1782566066499,0.01,-0.01,1.01
3235,1782566066549,0.01,-0.01,1.01
3236,1782566066599,0.01,-0.01,1.01
3237,1782566066666,0.01,-0.01,1.01
3238,1782566066700,0.01,-0.01,1.01
3239,1782566066734,0.01,-0.01,1.01
3240,1782566066983,0.02,-0.01,1.02
3241,1782566067033,0.02,-0.01,1.02
3242,1782566067082,0.02,-0.01,1.02
3243,1782566067082,0.02,-0.01,1.02
3244,1782566067116,0.02,-0.01,1.02
3245,1782566067149,0.02,-0.01,1.02
3246,1782566067200,0.01,-0.01,1.02
3247,1782566067216,0.01,-0.01,1.01
3248,1782566067266,0.01,-0.01,1.01
3249,1782566067316,0.01,-0.01,1.01
3250,1782566067399,0.02,-0,1.01
3251,1782566067482,0.01,-0,1.01
3252,1782566067499,0.01,-0,1.02
3253,1782566067532,0.01,-0.01,1.02
3254,1782566067549,0.01,-0.01,1.02
3255,1782566067649,0.01,-0.01,1.02
3256,1782566067716,0.01,-0.01,1.02
3257,1782566067749,0.01,-0.01,1.02
3258,1782566067865,0.01,-0.01,1.02
3259,1782566067865,0.01,-0.01,1.01
3260,1782566067899,0.01,-0.01,1.01
3261,1782566067965,0.01,-0,1.01
3262,1782566068015,0.01,-0,1.01
3263,1782566068098,0.01,-0,1.01
3264,1782566068149,0.01,-0,1.01
3265,1782566068215,0.01,-0,1.02
3266,1782566068282,0.02,-0,1.02
3267,1782566068315,0.02,-0,1.02
3268,1782566068365,0.02,-0.01,1.02
3269,1782566068481,0.02,-0,1.01
3270,1782566068532,0.02,-0,1.01
3271,1782566068581,0.01,-0.01,1.01
3272,1782566068648,0.03,-0,1.01
3273,1782566068699,0.03,-0,1.02
3274,1782566068731,0.03,0,1.02
3275,1782566068815,0.03,0.01,1.02
3276,1782566068831,0.03,0.01,1.02
3277,1782566068931,0,0.01,1.02
3278,1782566069015,0,0.02,1.02
3279,1782566069065,0.01,0.02,1.02
3280,1782566069098,0.01,0.02,1.01
3281,1782566069131,0.01,0.02,1.01
3282,1782566069248,0.01,0.01,1.02
3283,1782566069331,0.01,0,1.01
3284,1782566069381,0.01,0,1.01
3285,1782566069448,0.01,-0,1.01
3286,1782566069497,0.02,-0.01,1.02
3287,1782566069548,0.02,-0.01,1.02
3288,1782566069614,0.02,-0.01,1.02
3289,1782566069664,0.02,-0.01,1.02
3290,1782566069697,0.02,-0.01,1.01
3291,1782566069713,0.02,-0.01,1.01
3292,1782566069747,0.02,-0,1
3293,1782566069830,0.01,-0.01,1.01
3294,1782566069847,0.01,-0.01,1.01
3295,1782566069898,0.01,-0,1.01
3296,1782566069947,0.02,-0,1.01
3297,1782566069964,0.02,-0,1.01
3298,1782566069997,0.02,-0,1.02
3299,1782566070097,0.01,-0,1.01
3300,1782566070197,0.01,-0,1.01
3301,1782566070230,0.01,-0,1.01
3302,1782566070297,0.01,-0.01,1.02
3303,1782566070551,0.01,-0.01,1.02
3304,1782566070557,0.01,-0.01,1.01
3305,1782566070563,0.01,-0.01,1.01
3306,1782566070563,0.01,-0.01,1.01
3307,1782566070579,0.01,-0.01,1.01
3308,1782566070596,0.01,-0.01,1.01
3309,1782566070613,0.01,-0.01,1.01
3310,1782566070679,0.01,-0.01,1.01
3311,1782566070730,0.01,-0.01,1.01
3312,1782566070809,0.02,-0.01,1.01
3313,1782566070913,0.02,-0.01,1.01
3314,1782566070946,0.02,-0.01,1.01
3315,1782566070964,0.02,-0.01,1.01
3316,1782566070979,0.02,-0.01,1.01
3317,1782566071062,0.02,-0.01,1.01
3318,1782566071162,0.02,-0.01,1.01
3319,1782566071230,0.02,-0.01,1.02
3320,1782566071263,0.02,-0,1.02
3321,1782566071279,0.02,-0.01,1.02
3322,1782566071312,0.01,-0.01,1.01
3323,1782566071396,0.01,-0.01,1.01
3324,1782566071495,0.01,-0.01,1.01
3325,1782566071530,0.02,-0.01,1.01
3326,1782566071562,0.02,-0.01,1.01
3327,1782566071595,0.02,-0.01,1.01
3328,1782566071646,0.01,-0.01,1.01
3329,1782566071696,0.01,-0.01,1.01
3330,1782566071746,0.01,-0.01,1.01
3331,1782566071863,0.02,-0,1.02
3332,1782566071912,0.02,-0,1.02
3333,1782566071978,0.02,-0,1.02
3334,1782566072012,0.02,-0.01,1.01
3335,1782566072079,0.01,-0.01,1.01
3336,1782566072145,0.02,-0.01,1.01
3337,1782566072178,0.02,-0.01,1.01
3338,1782566072244,0.02,-0.01,1.01
3339,1782566072312,0.02,-0.01,1.01
3340,1782566072412,0.01,-0.01,1.01
3341,1782566072445,0.01,-0.01,1.02
3342,1782566072495,0.01,-0.01,1.02
3343,1782566072561,0.01,-0.01,1.02
3344,1782566072628,0.01,-0.01,1.02
3345,1782566072694,0.01,-0.01,1.01
3346,1782566072711,0.01,-0.01,1.02
3347,1782566072728,0.01,-0.01,1.02
3348,1782566072761,0.01,-0.01,1.02
3349,1782566072845,0.01,-0.01,1.02
3350,1782566072978,0.01,-0.01,1.01
3351,1782566073078,0.01,-0.01,1.01
3352,1782566073111,0.01,-0.01,1.01
3353,1782566073144,0.01,-0.01,1.02
3354,1782566073211,0.01,-0.01,1.02
3355,1782566073278,0.01,-0.01,1.02
3356,1782566073344,0.01,-0,1.02
3357,1782566073427,0.01,-0,1.02
3358,1782566073477,0.01,-0,1.02
3359,1782566073527,0.01,-0.01,1.01
3360,1782566073577,0.01,-0.01,1.01
3361,1782566073644,0.01,-0.01,1.01
3362,1782566073661,0.02,-0.01,1.01
3363,1782566073744,0.02,-0.01,1.01
3364,1782566073827,0.02,-0.01,1.01
3365,1782566073894,0.02,-0.01,1.01
3366,1782566073944,0.01,-0.01,1.01
3367,1782566073977,0.01,-0.01,1.02
3368,1782566074027,0.01,-0.01,1.02
3369,1782566074093,0.02,-0.01,1.02
3370,1782566074111,0.02,-0.01,1.02
3371,1782566074160,0.02,-0.01,1.02
3372,1782566074193,0.02,-0.01,1.01
3373,1782566074211,0.01,-0.01,1.01
3374,1782566074243,0.01,-0.01,1.01
3375,1782566074260,0.01,-0.01,1.01
3376,1782566074276,0.01,-0.01,1.02
3377,1782566074310,0.01,-0.01,1.02
3378,1782566074376,0.01,-0.01,1.02
3379,1782566074427,0.01,-0.01,1.02
3380,1782566074476,0.01,-0.01,1.01
3381,1782566074576,0.02,-0.01,1.01
3382,1782566074609,0.02,-0.01,1.01
3383,1782566074660,0.02,-0.01,1.01
