index,GYRO_X,GYRO_Y,GYRO_Z,1,2,3,4,5
0,0,-7,-1,0,0,0,0,0
1,11,-4,-2,0,0,0,0,0
2,3,-8,-2,0,0,0,0,0
3,2,-8,1,0,0,0,0,0
4,3,-8,1,0,0,0,0,0
5,1,-8,-1,0,0,0,0,0
6,3,-7,-1,0,0,0,0,0
7,4,-7,-2,0,0,0,0,0
8,1,-8,0,0,0,0,0,0
9,3,-8,0,0,0,0,0,0
10,2,-9,-1,0,0,0,0,0
11,3,-6,0,0,0,0,0,0
12,4,-7,0,0,0,0,0,0
13,3,-7,-1,0,0,0,0,0
14,2,-7,0,0,0,0,0,0
15,3,-7,0,0,0,0,0,0
16,2,-7,0,0,0,0,0,0
17,2,-6,-1,0,0,0,0,0
18,2,-7,0,0,0,0,0,0
19,1,-8,-2,0,0,0,0,0
20,1,-7,-1,0,0,0,0,0
21,5,-8,-1,0,0,0,0,0
22,2,-9,-1,0,0,0,0,0
23,1,-8,-1,0,0,0,0,0
24,3,-8,-1,0,0,0,0,0
25,3,-8,0,0,0,0,0,0
26,3,-7,0,0,0,0,0,0
27,0,-7,1,0,0,0,0,0
28,4,-7,-1,0,0,0,0,0
29,4,-7,0,0,0,0,0,0
30,2,-7,0,0,0,0,0,0
31,2,-8,-1,0,0,0,0,0
32,2,-9,0,0,0,0,0,0
33,2,-7,-1,0,0,0,0,0
34,2,-7,0,0,0,0,0,0
35,4,-7,-1,0,0,0,0,0
36,4,-6,-1,0,0,0,0,0
37,4,-7,0,0,0,0,0,0
38,0,-10,-1,0,0,0,0,0
39,3,-7,-1,0,0,0,0,0
40,2,-6,0,0,0,0,0,0
41,2,-8,0,0,0,0,0,0
42,4,-6,0,0,0,0,0,0
43,2,-6,0,0,0,0,0,0
44,3,-8,-1,0,0,0,0,0
45,2,-7,0,0,0,0,0,0
46,3,-8,1,0,0,0,0,0
47,3,-7,0,0,0,0,0,0
48,4,-9,-1,0,0,0,0,0
49,2,-8,-1,0,0,0,0,0
50,3,-8,0,0,0,0,0,0
51,4,-7,-1,0,0,0,0,0
52,3,-8,-1,0,0,0,0,0
53,3,-7,0,0,0,0,0,0
54,3,-7,0,0,0,0,0,0
55,3,-7,-1,0,0,0,0,0
56,2,-7,0,0,0,0,0,0
57,1,-7,0,0,0,0,0,0
58,-5,-11,-3,0,0,0,0,0
59,-6,-8,0,0,0,0,0,0
60,252,-9,0,0,0,0,0,0
61,3,-6,-3,0,0,0,0,0
62,3,-8,0,0,0,0,0,0
63,3,-8,-2,0,0,0,0,0
64,2,-8,0,0,0,0,0,0
65,4,-6,0,0,0,0,0,0
66,1,-7,-1,0,0,0,0,0
67,2,-7,0,0,0,0,0,0
68,4,-7,1,0,0,0,0,0
69,3,-7,1,0,0,0,0,0
70,4,-9,0,0,0,0,0,0
71,3,-6,-256,0,0,0,0,0
72,4,-8,0,0,0,0,0,0
73,3,-7,-1,0,0,0,0,0
74,2,-8,-1,0,0,0,0,0
75,3,-7,0,0,0,0,0,0
76,3,-8,-1,0,0,0,0,0
77,4,-8,-1,0,0,0,0,0
78,2,-10,-1,0,0,0,0,0
79,3,-8,-1,0,0,0,0,0
80,1,-7,-1,0,0,0,0,0
81,2,-8,0,0,0,0,0,0
82,3,-8,1,0,0,0,0,0
83,1,-7,-1,0,0,0,0,0
84,1,-7,-1,0,0,0,0,0
85,1,-8,-1,0,0,0,0,0
86,3,-9,0,0,0,0,0,0
87,3,-8,0,0,0,0,0,0
88,3,-8,-1,0,0,0,0,0
89,1,-9,-1,0,0,0,0,0
90,2,-7,-1,0,0,0,0,0
91,3,-6,0,0,0,0,0,0
92,2,-6,0,0,0,0,0,0
93,5,-8,0,0,0,0,0,0
94,1,-8,0,0,0,0,0,0
95,3,-7,-1,0,0,0,0,0
96,3,-7,0,0,0,0,0,0
97,2,-7,0,0,0,0,0,0
98,3,-7,-1,0,0,0,0,0
99,3,-7,0,0,0,0,0,0
100,2,-6,-1,0,0,0,0,0
101,4,-7,0,0,0,0,0,0
102,4,-8,1,0,0,0,0,0
103,6,-7,0,0,0,0,0,0
104,0,-7,0,0,0,0,0,0
105,3,-7,-1,0,0,0,0,0
106,4,-8,0,0,0,0,0,0
107,2,-7,-1,0,0,0,0,0
108,0,-9,0,0,0,0,0,0
109,3,-7,0,0,0,0,0,0
110,4,-6,-1,0,0,0,0,0
111,3,-6,-1,0,0,0,0,0
112,1,-8,-1,0,0,0,0,0
113,3,-7,0,0,0,0,0,0
114,3,-7,0,0,0,0,0,0
115,3,-8,-1,0,0,0,0,0
116,3,-7,-1,0,0,0,0,0
117,3,-8,-1,0,0,0,0,0
118,3,-6,-1,0,0,0,0,0
119,3,-7,-1,0,0,0,0,0
120,2,-8,0,0,0,0,0,0
121,2,-7,-1,0,0,0,0,0
122,2,-8,0,0,0,0,0,0
123,3,-8,0,0,0,0,0,0
124,1,-9,0,0,0,0,0,0
125,3,-8,0,0,0,0,0,0
126,2,-7,-1,0,0,0,0,0
127,4,-7,0,0,0,0,0,0
128,2,-8,-1,0,0,0,0,0
129,3,-6,-1,0,0,0,0,0
130,2,-8,-1,0,0,0,0,0
131,2,-9,-1,0,0,0,0,0
132,2,-9,1,0,0,0,0,0
133,5,-6,0,0,0,0,0,0
134,2,-8,-1,0,0,0,0,0
135,2,-8,0,0,0,0,0,0
136,2,-6,-1,0,0,0,0,0
137,3,-8,0,0,0,0,0,0
138,3,-8,0,0,0,0,0,0
139,3,-7,-1,0,0,0,0,0
140,2,-8,-1,0,0,0,0,0
141,2,-8,-1,0,0,0,0,0
142,4,-8,-1,0,0,0,0,0
143,2,-8,-1,0,0,0,0,0
144,1,-9,-1,0,0,0,0,0
145,2,-7,0,0,0,0,0,0
146,3,-7,0,0,0,0,0,0
147,3,-7,-1,0,0,0,0,0
148,4,-8,0,0,0,0,0,0
149,2,-7,-1,0,0,0,0,0
150,0,-7,0,0,0,0,0,0
151,2,-7,0,0,0,0,0,0
152,3,-9,1,0,0,0,0,0
153,3,-7,-1,0,0,0,0,0
154,3,-8,-1,0,0,0,0,0
155,3,-8,0,0,0,0,0,0
156,3,-7,0,0,0,0,0,0
157,3,-6,-1,0,0,0,0,0
158,2,-8,0,0,0,0,0,0
159,3,-8,0,0,0,0,0,0
160,4,-7,1,0,0,0,0,0
161,3,-8,0,0,0,0,0,0
162,2,-7,-1,0,0,0,0,0
163,2,-7,1,0,0,0,0,0
164,2,-8,-1,0,0,0,0,0
165,2,-8,0,0,0,0,0,0
166,2,-8,0,0,0,0,0,0
167,2,-8,0,0,0,0,0,0
168,3,-7,-1,0,0,0,0,0
169,1,-8,0,0,0,0,0,0
170,1,-8,0,0,0,0,0,0
171,3,-8,-1,0,0,0,0,0
172,2,-7,-1,0,0,0,0,0
173,3,-8,1,0,0,0,0,0
174,1,-7,-1,0,0,0,0,0
175,4,-7,0,0,0,0,0,0
176,3,-7,0,0,0,0,0,0
177,2,-7,0,0,0,0,0,0
178,2,-8,0,0,0,0,0,0
179,1,-7,0,0,0,0,0,0
180,3,-8,-1,0,0,0,0,0
181,4,-6,0,0,0,0,0,0
182,2,-7,0,0,0,0,0,0
183,2,-8,1,0,0,0,0,0
184,3,-7,-1,0,0,0,0,0
185,2,-7,0,0,0,0,0,0
186,2,-8,-1,0,0,0,0,0
187,3,-6,-1,0,0,0,0,0
188,3,-8,0,0,0,0,0,0
189,5,-7,-1,0,0,0,0,0
190,4,-8,-1,0,0,0,0,0
191,2,-8,0,0,0,0,0,0
192,2,-7,-1,0,0,0,0,0
193,3,-7,-1,0,0,0,0,0
194,2,-8,0,0,0,0,0,0
195,2,-7,0,0,0,0,0,0
196,3,-8,-1,0,0,0,0,0
197,3,-8,0,0,0,0,0,0
198,3,-7,-1,0,0,0,0,0
199,2,-8,-1,0,0,0,0,0
200,4,-7,0,0,0,0,0,0
201,3,-8,1,0,0,0,0,0
202,1,-6,-1,0,0,0,0,0
203,4,-7,-1,0,0,0,0,0
204,2,-7,0,0,0,0,0,0
205,3,-7,0,0,0,0,0,0
206,2,-8,-1,0,0,0,0,0
207,1,-8,1,0,0,0,0,0
208,4,-7,0,0,0,0,0,0
209,3,-7,-1,0,0,0,0,0
210,2,-8,-1,0,0,0,0,0
211,3,-7,0,0,0,0,0,0
212,2,-7,-1,0,0,0,0,0
213,1,-8,0,0,0,0,0,0
214,3,-7,-1,0,0,0,0,0
215,4,-7,-1,0,0,0,0,0
216,2,-9,0,0,0,0,0,0
217,2,-6,-1,0,0,0,0,0
218,4,-8,0,0,0,0,0,0
219,1,-7,0,0,0,0,0,0
220,2,-7,0,0,0,0,0,0
221,4,-7,0,0,0,0,0,0
222,3,-7,0,0,0,0,0,0
223,2,-7,0,0,0,0,0,0
224,3,-7,-1,0,0,0,0,0
225,3,-7,-1,0,0,0,0,0
226,3,-8,-1,0,0,0,0,0
227,3,-7,-1,0,0,0,0,0
228,2,-8,-1,0,0,0,0,0
229,2,-7,1,0,0,0,0,0
230,2,-7,-1,0,0,0,0,0
231,1,-7,-1,0,0,0,0,0
232,3,-7,0,0,0,0,0,0
233,2,-7,-1,0,0,0,0,0
234,2,-8,-1,0,0,0,0,0
235,2,-7,-1,0,0,0,0,0
236,5,-8,1,0,0,0,0,0
237,9,-7,-1,0,0,0,0,0
238,3,-6,-1,0,0,0,0,0
239,2,-6,-1,0,0,0,0,0
240,1,-7,-1,0,0,0,0,0
241,0,-7,1,0,0,0,0,0
242,2,-8,-1,0,0,0,0,0
243,-1,-6,0,0,0,0,0,0
244,4,-7,0,0,0,0,0,0
245,5,-7,-1,0,0,0,0,0
246,3,-6,-1,0,0,0,0,0
247,3,-8,-1,0,0,0,0,0
248,0,-7,-1,0,0,0,0,0
249,3,-6,0,0,0,0,0,0
250,4,-7,-1,0,0,0,0,0
251,2,-6,-1,0,0,0,0,0
252,1,-8,0,0,0,0,0,0
253,2,-7,1,0,0,0,0,0
254,3,-7,0,0,0,0,0,0
255,3,-9,0,0,0,0,0,0
256,2,-8,-1,0,0,0,0,0
257,1,-9,0,0,0,0,0,0
258,2,-6,-1,0,0,0,0,0
259,3,-8,-1,0,0,0,0,0
260,3,-7,-1,0,0,0,0,0
261,2,-9,-1,0,0,0,0,0
262,1,-7,-1,0,0,0,0,0
263,3,-8,0,0,0,0,0,0
264,3,-7,0,0,0,0,0,0
265,3,-8,-1,0,0,0,0,0
266,2,-7,0,0,0,0,0,0
267,2,-7,0,0,0,0,0,0
268,2,-8,0,0,0,0,0,0
269,3,-7,-1,0,0,0,0,0
270,2,-7,-1,0,0,0,0,0
271,2,-9,-1,0,0,0,0,0
272,5,-6,0,0,0,0,0,0
273,0,-9,1,0,0,0,0,0
274,-4,-9,0,0,0,0,0,0
275,4,-7,1,0,0,0,0,0
276,2,-6,0,0,0,0,0,0
277,4,-7,0,0,0,0,0,0
278,4,-6,-1,0,0,0,0,0
279,-2,-9,-1,0,0,0,0,0
280,2,-7,-1,0,0,0,0,0
281,4,-6,0,0,0,0,0,0
282,0,-8,0,0,0,0,0,0
283,0,-7,0,0,0,0,0,0
284,3,-8,0,0,0,0,0,0
285,2,-8,-2,0,0,0,0,0
286,3,-6,0,0,0,0,0,0
287,1,-6,0,0,0,0,0,0
288,1,-7,-1,0,0,0,0,0
289,3,-7,-1,0,0,0,0,0
290,3,-7,-2,0,0,0,0,0
291,2,-8,0,0,0,0,0,0
292,1,-7,-1,0,0,0,0,0
293,3,-9,-1,0,0,0,0,0
294,2,-6,0,0,0,0,0,0
295,2,-8,-1,0,0,0,0,0
296,3,-8,0,0,0,0,0,0
297,1,-7,0,0,0,0,0,0
298,4,-9,0,0,0,0,0,0
299,3,-5,0,0,0,0,0,0
300,3,-6,-1,0,0,0,0,0
301,4,-7,-1,0,0,0,0,0
302,3,-8,0,0,0,0,0,0
303,2,-6,-2,0,0,0,0,0
304,3,-7,0,0,0,0,0,0
305,1,-8,0,0,0,0,0,0
306,1,-8,-1,0,0,0,0,0
307,6,-6,-1,0,0,0,0,0
308,2,-8,0,0,0,0,0,0
309,1,-8,0,0,0,0,0,0
310,4,-6,-2,0,0,0,0,0
311,2,-7,0,0,0,0,0,0
312,2,-8,-1,0,0,0,0,0
313,2,-8,-1,0,0,0,0,0
314,3,-7,0,0,0,0,0,0
315,2,-8,-1,0,0,0,0,0
316,0,-7,-1,0,0,0,0,0
317,1,-7,0,0,0,0,0,0
318,3,-7,0,0,0,0,0,0
319,2,-8,-1,0,0,0,0,0
320,5,-9,0,0,0,0,0,0
321,4,-6,0,0,0,0,0,0
322,3,-8,-2,0,0,0,0,0
323,6,-6,-1,0,0,0,0,0
324,3,-7,0,0,0,0,0,0
325,4,-8,0,0,0,0,0,0
326,3,-7,-1,0,0,0,0,0
327,2,-7,-2,0,0,0,0,0
328,3,-7,0,0,0,0,0,0
329,2,-7,-1,0,0,0,0,0
330,1,-8,-1,0,0,0,0,0
331,3,-7,0,0,0,0,0,0
332,2,-7,-1,0,0,0,0,0
333,2,-8,-1,0,0,0,0,0
334,3,-7,0,0,0,0,0,0
335,4,-8,-1,0,0,0,0,0
336,2,-7,0,0,0,0,0,0
337,3,-7,0,0,0,0,0,0
338,2,-8,-1,0,0,0,0,0
339,2,-7,-1,0,0,0,0,0
340,2,-8,0,0,0,0,0,0
341,1,-6,0,0,0,0,0,0
342,3,-6,-1,0,0,0,0,0
343,3,-8,0,0,0,0,0,0
344,4,-8,0,0,0,0,0,0
345,2,-8,-1,0,0,0,0,0
346,3,-7,-1,0,0,0,0,0
347,4,-7,0,0,0,0,0,0
348,2,-7,-2,0,0,0,0,0
349,1,-7,-2,0,0,0,0,0
350,2,-7,-1,0,0,0,0,0
351,4,-7,0,0,0,0,0,0
352,2,-7,1,0,0,0,0,0
353,2,-7,-1,0,0,0,0,0
354,2,-7,-1,0,0,0,0,0
355,2,-8,-1,0,0,0,0,0
356,3,-8,-1,0,0,0,0,0
357,3,-6,-1,0,0,0,0,0
358,1,-8,0,0,0,0,0,0
359,2,-6,0,0,0,0,0,0
360,1,-7,-1,0,0,0,0,0
361,2,-9,0,0,0,0,0,0
362,2,-9,-1,0,0,0,0,0
363,3,-8,0,0,0,0,0,0
364,0,-8,0,0,0,0,0,0
365,2,-8,0,0,0,0,0,0
366,5,-7,0,0,0,0,0,0
367,3,-7,0,0,0,0,0,0
368,3,-8,-2,0,0,0,0,0
369,4,-7,0,0,0,0,0,0
370,3,-7,1,0,0,0,0,0
371,2,-6,1,0,0,0,0,0
372,3,-7,-1,0,0,0,0,0
373,1,-7,0,0,0,0,0,0
374,3,-7,0,0,0,0,0,0
375,2,-8,0,0,0,0,0,0
376,4,-7,0,0,0,0,0,0
377,1,-7,0,0,0,0,0,0
378,2,-7,-1,0,0,0,0,0
379,1,-6,0,0,0,0,0,0
380,2,-8,0,0,0,0,0,0
381,2,-8,0,0,0,0,0,0
382,2,-8,1,0,0,0,0,0
383,2,-8,-1,0,0,0,0,0
384,3,-8,0,0,0,0,0,0
385,2,-7,0,0,0,0,0,0
386,3,-7,0,0,0,0,0,0
387,2,-7,0,0,0,0,0,0
388,3,-9,-1,0,0,0,0,0
389,2,-8,0,0,0,0,0,0
390,3,-7,0,0,0,0,0,0
391,2,-7,0,0,0,0,0,0
392,24,-28,19,0,0,0,0,0
393,42,2,12,0,0,0,0,0
394,-12,0,-13,0,0,0,0,0
395,8,-8,-2,0,0,0,0,0
396,12,-7,5,0,0,0,0,0
397,96,-13,11,0,0,0,0,0
398,-68,-32,-6,0,0,0,0,0
399,-1,1,-5,0,0,0,0,0
400,9,-6,5,0,0,0,0,0
401,-9,-8,4,0,0,0,0,0
402,-6,-8,-3,0,0,0,0,0
403,0,-5,0,0,0,0,0,0
404,5,-7,3,0,0,0,0,0
405,5,-7,-1,0,0,0,0,0
406,2,-7,-2,0,0,0,0,0
407,0,-7,-1,0,0,0,0,0
408,3,-6,0,0,0,0,0,0
409,3,-8,-2,0,0,0,0,0
410,1,-7,1,0,0,0,0,0
411,2,-8,-1,0,0,0,0,0
412,5,-7,-2,0,0,0,0,0
413,4,-8,1,0,0,0,0,0
414,0,-8,0,0,0,0,0,0
415,0,-8,0,0,0,0,0,0
416,0,-7,-1,0,0,0,0,0
417,2,-7,1,0,0,0,0,0
418,6,-7,0,0,0,0,0,0
419,2,-8,0,0,0,0,0,0
420,2,-7,0,0,0,0,0,0
421,2,-7,-1,0,0,0,0,0
422,2,-8,-1,0,0,0,0,0
423,4,-8,-1,0,0,0,0,0
424,3,-6,0,0,0,0,0,0
425,1,-7,-1,0,0,0,0,0
426,4,-8,-1,0,0,0,0,0
427,5,-6,0,0,0,0,0,0
428,4,-7,-1,0,0,0,0,0
429,0,-8,-1,0,0,0,0,0
430,0,-8,-1,0,0,0,0,0
431,2,-7,0,0,0,0,0,0
432,4,-7,-1,0,0,0,0,0
433,2,-8,0,0,0,0,0,0
434,0,-8,0,0,0,0,0,0
435,2,-7,-1,0,0,0,0,0
436,3,-8,-1,0,0,0,0,0
437,4,-7,0,0,0,0,0,0
438,3,-8,0,0,0,0,0,0
439,3,-7,-1,0,0,0,0,0
440,1,-7,0,0,0,0,0,0
441,4,-8,-1,0,0,0,0,0
442,5,-6,0,0,0,0,0,0
443,1,-8,-1,0,0,0,0,0
444,3,-8,-1,0,0,0,0,0
445,4,-6,-2,0,0,0,0,0
446,2,-7,-1,0,0,0,0,0
447,1,-6,0,0,0,0,0,0
448,0,-8,0,0,0,0,0,0
449,1,-8,-1,0,0,0,0,0
450,4,-6,1,0,0,0,0,0
451,0,-7,0,0,0,0,0,0
452,3,-8,0,0,0,0,0,0
453,1,-7,0,0,0,0,0,0
454,0,-8,-1,0,0,0,0,0
455,4,-8,-1,0,0,0,0,0
456,2,-7,0,0,0,0,0,0
457,1,-7,0,0,0,0,0,0
458,3,-9,-1,0,0,0,0,0
459,4,-8,-1,0,0,0,0,0
460,0,-8,0,0,0,0,0,0
461,1,-8,0,0,0,0,0,0
462,4,-7,-1,0,0,0,0,0
463,4,-8,0,0,0,0,0,0
464,2,-8,0,0,0,0,0,0
465,2,-8,0,0,0,0,0,0
466,3,-7,1,0,0,0,0,0
467,4,-8,-1,0,0,0,0,0
468,2,-9,0,0,0,0,0,0
469,1,-7,0,0,0,0,0,0
470,3,-7,0,0,0,0,0,0
471,2,-8,-1,0,0,0,0,0
472,2,-7,-1,0,0,0,0,0
473,4,-7,0,0,0,0,0,0
474,5,-7,-1,0,0,0,0,0
475,2,-7,-1,0,0,0,0,0
476,2,-8,0,0,0,0,0,0
477,2,-8,0,0,0,0,0,0
478,2,-7,0,0,0,0,0,0
479,3,-8,-1,0,0,0,0,0
480,4,-9,0,0,0,0,0,0
481,1,-7,0,0,0,0,0,0
482,2,-6,-1,0,0,0,0,0
483,1,-8,0,0,0,0,0,0
484,3,-8,-1,0,0,0,0,0
485,3,-7,-1,0,0,0,0,0
486,2,-8,0,0,0,0,0,0
487,4,-6,1,0,0,0,0,0
488,3,-7,0,0,0,0,0,0
489,2,-7,0,0,0,0,0,0
490,3,-7,1,0,0,0,0,0
491,2,-7,0,0,0,0,0,0
492,3,-7,0,0,0,0,0,0
493,2,-7,-1,0,0,0,0,0
494,4,-6,-1,0,0,0,0,0
495,2,-6,-1,0,0,0,0,0
496,2,-8,0,0,0,0,0,0
497,3,-6,-1,0,0,0,0,0
498,3,-7,-2,0,0,0,0,0
499,2,-8,0,0,0,0,0,0
500,3,-7,-1,0,0,0,0,0
501,1,-7,-1,0,0,0,0,0
502,2,-7,-1,0,0,0,0,0
503,4,-8,0,0,0,0,0,0
504,3,-7,0,0,0,0,0,0
505,3,-8,-1,0,0,0,0,0
506,4,-7,0,0,0,0,0,0
507,1,-9,-1,0,0,0,0,0
508,2,-8,1,0,0,0,0,0
509,4,-8,-1,0,0,0,0,0
510,3,-8,0,0,0,0,0,0
511,4,-8,0,0,0,0,0,0
512,2,-6,-1,0,0,0,0,0
513,3,-6,0,0,0,0,0,0
514,2,-6,0,0,0,0,0,0
515,4,-8,0,0,0,0,0,0
516,2,-7,0,0,0,0,0,0
517,3,-8,1,0,0,0,0,0
518,1,-9,0,0,0,0,0,0
519,2,-7,0,0,0,0,0,0
520,4,-7,0,0,0,0,0,0
521,3,-7,0,0,0,0,0,0
522,2,-7,-1,0,0,0,0,0
523,3,-8,-2,0,0,0,0,0
524,2,-8,0,0,0,0,0,0
525,3,-7,1,0,0,0,0,0
526,3,-7,0,0,0,0,0,0
527,0,-7,-1,0,0,0,0,0
528,1,-8,-1,0,0,0,0,0
529,2,-8,0,0,0,0,0,0
530,3,-8,0,0,0,0,0,0
531,2,-7,0,0,0,0,0,0
532,1,-8,-1,0,0,0,0,0
533,4,-8,0,0,0,0,0,0
534,2,-7,0,0,0,0,0,0
535,3,-8,-1,0,0,0,0,0
536,2,-7,-1,0,0,0,0,0
537,3,-7,-1,0,0,0,0,0
538,2,-8,0,0,0,0,0,0
539,2,-8,255,0,0,0,0,0
540,4,-6,-1,0,0,0,0,0
541,2,-7,-1,0,0,0,0,0
542,1,-7,0,0,0,0,0,0
543,2,-8,-1,0,0,0,0,0
544,3,-8,-2,0,0,0,0,0
545,2,-6,-1,0,0,0,0,0
546,3,-8,0,0,0,0,0,0
547,3,-8,0,0,0,0,0,0
548,3,-7,0,0,0,0,0,0
549,2,-6,0,0,0,0,0,0
550,2,-7,-1,0,0,0,0,0
551,3,-8,-2,0,0,0,0,0
552,3,-7,0,0,0,0,0,0
553,1,-7,0,0,0,0,0,0
554,3,-7,0,0,0,0,0,0
555,3,-6,-1,0,0,0,0,0
556,2,-8,-1,0,0,0,0,0
557,4,-7,0,0,0,0,0,0
558,3,-7,0,0,0,0,0,0
559,0,-7,-1,0,0,0,0,0
560,5,-9,0,0,0,0,0,0
561,1,-8,0,0,0,0,0,0
562,3,-10,1,0,0,0,0,0
563,0,-9,-1,0,0,0,0,0
564,3,-8,0,0,0,0,0,0
565,5,-6,0,0,0,0,0,0
566,3,-8,-1,0,0,0,0,0
567,3,-7,255,0,0,0,0,0
568,1,-7,0,0,0,0,0,0
569,3,-8,0,0,0,0,0,0
570,3,-9,-1,0,0,0,0,0
571,1,-6,0,0,0,0,0,0
572,2,-7,0,0,0,0,0,0
573,4,-7,1,0,0,0,0,0
574,2,-7,0,0,0,0,0,0
575,2,-8,0,0,0,0,0,0
576,3,-8,-1,0,0,0,0,0
577,0,-7,-1,0,0,0,0,0
578,3,-7,0,0,0,0,0,0
579,2,-8,0,0,0,0,0,0
580,3,-8,0,0,0,0,0,0
581,2,-8,0,0,0,0,0,0
582,3,-7,-1,0,0,0,0,0
583,3,-7,0,0,0,0,0,0
584,4,-6,-1,0,0,0,0,0
585,2,-9,1,0,0,0,0,0
586,3,-6,0,0,0,0,0,0
587,1,-7,-1,0,0,0,0,0
588,2,-6,0,0,0,0,0,0
589,4,-7,-1,0,0,0,0,0
590,2,-7,0,0,0,0,0,0
591,1,-8,-1,0,0,0,0,0
592,4,-8,0,0,0,0,0,0
593,4,-6,0,0,0,0,0,0
594,4,-8,0,0,0,0,0,0
595,3,-7,-1,0,0,0,0,0
596,2,-7,-2,0,0,0,0,0
597,4,-8,0,0,0,0,0,0
598,3,-7,-1,0,0,0,0,0
599,6,-8,0,0,0,0,0,0
600,1,-7,-1,0,0,0,0,0
601,1,-7,-1,0,0,0,0,0
602,1,-7,1,0,0,0,0,0
603,1,-7,0,0,0,0,0,0
604,4,-7,0,0,0,0,0,0
605,3,-7,-1,0,0,0,0,0
606,2,-8,-1,0,0,0,0,0
607,3,-8,0,0,0,0,0,0
608,3,-9,1,0,0,0,0,0
609,3,-7,0,0,0,0,0,0
610,2,-8,-1,0,0,0,0,0
611,1,-6,0,0,0,0,0,0
612,3,-8,0,0,0,0,0,0
613,3,-8,0,0,0,0,0,0
614,3,-7,-1,0,0,0,0,0
615,4,-7,0,0,0,0,0,0
616,4,-6,-1,0,0,0,0,0
617,4,-8,-1,0,0,0,0,0
618,3,-7,0,0,0,0,0,0
619,3,-7,-1,513,0,0,0,0
620,4,-8,-1,0,0,0,0,0
621,3,-5,1,0,0,0,0,0
622,1,-6,-1,0,0,0,0,0
623,2,-8,-1,0,0,0,0,0
624,3,-8,-1,0,0,0,0,0
625,3,-9,0,0,0,0,0,0
626,11,-4,-1,0,0,0,0,0
627,1,-10,-1,0,0,0,0,0
628,0,24,10,0,0,0,0,0
629,-55,-14,12,754,0,0,0,0
630,80,-13,-4,0,0,0,0,0
631,26,12,-15,0,0,0,0,0
632,-12,-19,9,0,0,0,0,0
633,-4,-12,-2,926,0,0,0,0
634,4,0,2,0,0,0,0,0
635,11,-1,-3,159,0,0,0,0
636,-6,-9,-3,0,0,0,0,0
637,5,-3,-2,675,0,0,0,0
638,7,1,0,0,0,0,0,0
639,14,2,5,770,0,0,0,0
640,4,-4,3,0,0,0,0,0
641,9,0,-2,0,0,0,0,0
642,13,0,255,0,0,0,0,0
643,19,6,3,0,0,0,0,0
644,12,-10,-1,0,0,0,0,0
645,-2,23,0,0,0,0,0,0
646,-31,12,6,0,0,0,0,0
647,-17,-30,4,0,0,0,0,0
648,-34,249,-14,0,0,0,0,0
649,60,13,2,0,0,0,0,0
650,-34,-31,-7,0,0,0,0,0
651,-59,-23,-17,0,0,0,0,0
652,-29,-24,16,0,0,0,0,0
653,5,-21,-10,236,0,0,0,0
654,8,-22,-11,0,0,0,0,0
655,22,-19,-22,263,0,0,0,0
656,-27,-37,-13,0,0,0,0,0
657,-1,-29,-10,291,0,0,0,0
658,-9,-41,34,0,0,0,0,0
659,-27,-48,25,0,0,0,0,0
660,166,4,19,0,0,0,0,0
661,11,-31,-11,0,0,0,0,0
662,-34,-29,-7,0,0,0,0,0
663,67,-29,13,0,0,0,0,0
664,115,-3,-6,0,0,0,0,0
665,-77,-40,-12,0,0,0,0,0
666,-7,-16,12,0,0,0,0,0
667,44,-14,13,0,0,0,0,0
668,-5,-30,8,0,0,0,0,0
669,-86,-56,-29,0,0,0,0,0
670,54,-24,32,1084,0,0,0,0
671,1,-42,45,0,0,0,0,0
672,-150,28,-123,0,0,0,0,0
673,149,17,69,0,0,0,0,0
674,-59,-39,15,0,0,0,0,0
675,-31,-2,9,1053,0,0,0,0
676,94,19,19,0,0,0,0,0
677,-189,2,1,477,0,0,0,0
678,46,38,-24,0,0,0,0,0
679,21,38,-3,482,0,0,0,0
680,9,49,8,0,0,0,0,0
681,55,35,15,0,0,0,0,0
682,-98,0,-19,0,0,0,0,0
683,106,42,16,0,0,0,0,0
684,-147,13,-11,0,0,0,0,0
685,108,67,83,0,0,0,0,0
686,-43,-20,-16,0,0,0,0,0
687,105,58,11,0,0,0,0,0
688,112,24,-29,0,0,0,0,0
689,22,-4,2,0,0,0,0,0
690,-33,-14,-23,0,0,0,0,0
691,-68,-26,30,0,0,0,0,0
692,-28,253,18,0,0,0,0,0
693,96,27,-3,0,0,0,0,0
694,-99,-30,35,0,0,0,0,0
695,32,-10,-7,0,0,0,0,0
696,-4,-9,-28,0,0,0,0,0
697,-164,-43,10,0,0,0,0,0
698,-32,-16,24,0,0,0,0,0
699,21,-9,22,0,0,0,0,0
700,-76,-22,251,857,0,0,0,0
701,-31,-17,33,0,0,0,0,0
702,-96,-30,-9,882,0,0,0,0
703,277,72,45,0,0,0,0,0
704,-89,5,28,0,0,0,0,0
705,-16,2,-17,0,0,0,0,0
706,-5,12,4,0,0,0,0,0
707,-45,15,2,954,0,0,0,0
708,7,26,20,937,0,0,0,0
709,-28,9,3,0,0,0,0,0
710,-87,-15,-24,0,0,0,0,0
711,-100,30,3,0,0,0,0,0
712,-110,-32,-46,0,0,0,0,0
713,3,-22,17,0,0,0,0,0
714,48,-32,-31,0,0,0,0,0
715,-4,406,18,0,0,0,0,0
716,69,422,1,0,0,0,0,0
717,143,431,12,0,0,0,0,0
718,65,452,-29,0,0,0,0,0
719,38,446,-23,0,0,0,0,0
720,26,475,-19,0,0,0,0,0
721,17,442,49,0,0,0,0,0
722,43,459,3,0,0,0,0,0
723,12,458,31,0,0,0,0,0
724,41,489,62,0,0,0,0,0
725,121,474,-6,0,0,0,0,0
726,122,461,8,0,0,0,0,0
727,31,485,-17,0,0,0,0,0
728,128,481,-10,0,0,0,0,0
729,88,489,16,0,0,0,0,0
730,13,479,19,0,0,0,0,0
731,-50,455,-29,0,0,0,0,0
732,63,480,-5,0,0,0,0,0
733,148,501,8,0,0,0,0,0
734,28,490,-2,0,0,0,0,0
735,114,489,37,0,0,0,0,0
736,-7,486,-10,0,0,0,0,0
737,177,520,48,0,0,0,0,0
738,106,504,43,0,0,0,0,0
739,69,497,11,0,0,0,0,0
740,113,513,21,0,0,0,0,0
741,97,476,17,0,0,0,0,0
742,155,480,-25,0,0,0,0,0
743,3,498,-11,0,0,0,0,0
744,42,491,-12,659,0,0,0,0
745,110,519,19,0,0,0,0,0
746,131,495,7,0,0,0,0,0
747,79,492,25,1014,0,0,0,0
748,41,510,23,0,0,0,0,0
749,133,526,12,1017,0,0,0,0
750,72,499,23,0,0,0,0,0
751,69,480,9,1145,0,0,0,0
752,101,491,-1,0,0,0,0,0
753,-58,469,7,1140,0,0,0,0
754,-62,458,-3,0,0,0,0,0
755,91,455,-16,1138,0,0,0,0
756,107,442,8,0,0,0,0,0
757,70,450,-11,1018,0,0,0,0
758,109,397,-1,0,0,0,0,0
759,63,341,3,1016,0,0,0,0
760,33,316,0,0,0,0,0,0
761,55,261,-7,1010,0,0,0,0
762,121,222,4,0,0,0,0,0
763,71,182,-1,1004,0,0,0,0
764,-10,154,14,0,0,0,0,0
765,145,165,54,987,0,0,0,0
766,-58,156,6,0,0,0,0,0
767,41,163,-1,976,0,0,0,0
768,-47,175,-8,0,0,0,0,0
769,195,172,42,0,0,0,0,0
770,21,161,24,0,0,0,0,0
771,-77,129,4,0,0,0,0,0
772,16,134,3,0,0,0,0,0
773,0,169,3,0,0,0,0,0
774,12,148,10,0,0,0,0,0
775,32,154,19,0,0,0,0,0
776,-4,154,-5,0,0,0,0,0
777,100,167,17,1103,0,0,0,0
778,75,162,9,0,0,0,0,0
779,-37,152,-36,0,0,0,0,0
780,35,153,4,0,0,0,0,0
781,78,181,9,1103,0,0,0,0
782,-7,159,-25,0,0,0,0,0
783,9,143,12,0,0,0,0,0
784,48,164,6,0,0,0,0,0
785,52,150,8,0,0,0,0,0
786,96,158,21,0,0,0,0,0
787,-23,163,10,0,0,0,0,0
788,38,151,27,0,0,0,0,0
789,30,147,5,0,0,0,0,0
790,-35,135,-30,0,0,0,0,0
791,42,133,-14,0,0,0,0,0
792,-12,121,14,0,0,0,0,0
793,-5,78,2,0,0,0,0,0
794,41,116,4,0,0,0,0,0
795,89,100,-7,0,0,0,0,0
796,-46,51,11,0,0,0,0,0
797,17,49,-31,0,0,0,0,0
798,1,95,19,0,0,0,0,0
799,86,101,-10,0,0,0,0,0
800,-138,65,-15,0,0,0,0,0
801,-119,67,-21,0,0,0,0,0
802,0,93,20,0,0,0,0,0
803,29,109,-41,0,0,0,0,0
804,-105,78,-29,0,0,0,0,0
805,-13,91,-23,0,0,0,0,0
806,26,103,-18,0,0,0,0,0
807,147,91,26,631,0,0,0,0
808,-72,74,-18,0,0,0,0,0
809,15,88,10,630,0,0,0,0
810,-32,68,-16,0,0,0,0,0
811,126,86,-9,629,0,0,0,0
812,1,93,-22,0,0,0,0,0
813,98,105,-12,936,0,0,0,0
814,70,96,-23,0,0,0,0,0
815,38,102,6,0,0,0,0,0
816,18,85,-23,0,0,0,0,0
817,41,90,-3,0,0,0,0,0
818,-46,75,3,0,0,0,0,0
819,-214,80,3,0,0,0,0,0
820,-19,73,27,0,0,0,0,0
821,55,84,-6,0,0,0,0,0
822,57,83,3,0,0,0,0,0
823,49,88,7,0,0,0,0,0
824,25,80,-18,0,0,0,0,0
825,4,84,10,0,0,0,0,0
826,9,105,-35,0,0,0,0,0
827,97,98,25,0,0,0,0,0
828,35,94,24,0,0,0,0,0
829,64,80,32,0,0,0,0,0
830,44,101,1,0,0,0,0,0
831,-56,61,-3,0,0,0,0,0
832,-60,39,-34,0,0,0,0,0
833,-29,17,-22,0,0,0,0,0
834,71,17,-7,0,0,0,0,0
835,-61,-48,17,0,0,0,0,0
836,-21,-69,-31,0,0,0,0,0
837,1,-68,46,1095,0,0,0,0
838,-42,-65,11,0,0,0,0,0
839,-69,-83,14,0,0,0,0,0
840,-11,-111,-8,0,0,0,0,0
841,-76,-79,-41,1097,0,0,0,0
842,-17,-110,-6,0,0,0,0,0
843,15,-94,-18,0,0,0,0,0
844,-92,-117,-6,0,0,0,0,0
845,-5,-153,29,0,0,0,0,0
846,25,-116,-25,0,0,0,0,0
847,122,-128,24,0,0,0,0,0
848,-112,-143,-9,0,0,0,0,0
849,-69,-147,-67,0,0,0,0,0
850,-67,-142,1,0,0,0,0,0
851,17,-136,-25,0,0,0,0,0
852,-64,-138,-1,0,0,0,0,0
853,41,-153,13,0,0,0,0,0
854,4,-140,-11,0,0,0,0,0
855,-4,-181,24,0,0,0,0,0
856,-63,-155,13,0,0,0,0,0
857,-141,-168,44,0,0,0,0,0
858,-36,-166,-39,0,0,0,0,0
859,-36,-165,-14,0,0,0,0,0
860,6,-177,13,0,0,0,0,0
861,28,-163,14,0,0,0,0,0
862,-18,-186,-36,0,0,0,0,0
863,40,-195,3,0,0,0,0,0
864,-36,-219,5,0,0,0,0,0
865,-80,-229,-8,0,0,0,0,0
866,88,-210,3,0,0,0,0,0
867,47,-204,-1,0,0,0,0,0
868,-69,-217,-28,0,0,0,0,0
869,19,-196,-8,0,0,0,0,0
870,-57,-218,-10,515,0,0,0,0
871,-55,-210,-25,0,0,0,0,0
872,125,-153,3,542,0,0,0,0
873,42,-187,17,0,0,0,0,0
874,40,-176,-15,170,0,0,0,0
875,-62,-160,-21,0,0,0,0,0
876,-84,-178,5,139,0,0,0,0
877,-105,-172,-21,0,0,0,0,0
878,-8,-165,-11,774,0,0,0,0
879,19,-134,-11,0,0,0,0,0
880,-34,-162,4,774,0,0,0,0
881,41,-148,-5,0,0,0,0,0
882,-90,-163,-8,788,0,0,0,0
883,2,-134,-20,0,0,0,0,0
884,-51,-143,-7,786,0,0,0,0
885,-73,-160,-3,0,0,0,0,0
886,-22,-173,7,272,0,0,0,0
887,-182,-44,-11,0,0,0,0,0
888,78,-162,4,1032,0,0,0,0
889,124,-206,-6,0,0,0,0,0
890,27,3,11,1095,0,0,0,0
891,-2,-44,16,0,0,0,0,0
892,-122,-34,28,0,0,0,0,0
893,162,-45,45,0,0,0,0,0
894,-55,-59,-20,0,0,0,0,0
895,-2,-10,1,0,0,0,0,0
896,227,-21,-8,1068,0,0,0,0
897,6,-20,-6,0,0,0,0,0
898,-4,-17,0,0,0,0,0,0
899,18,-3,-2,0,0,0,0,0
900,-22,-10,1,0,0,0,0,0
901,-9,-1,-3,0,0,0,0,0
902,5,-1,0,0,0,0,0,0
903,11,-10,-4,0,0,0,0,0
904,-6,-8,-1,0,0,0,0,0
905,0,-14,0,0,0,0,0,0
906,6,-5,-3,0,0,0,0,0
907,5,-13,-1,0,0,0,0,0
908,1,-1,-2,0,0,0,0,0
909,-7,-9,-2,0,0,0,0,0
910,0,-6,-2,0,0,0,0,0
911,-9,-9,2,0,0,0,0,0
912,13,-4,-1,0,0,0,0,0
913,5,-9,-1,0,0,0,0,0
914,-1,-8,-1,0,0,0,0,0
915,6,-6,-1,0,0,0,0,0
916,-253,-9,0,0,0,0,0,0
917,3,-8,1,0,0,0,0,0
918,3,-8,0,0,0,0,0,0
919,2,-9,0,0,0,0,0,0
920,5,-6,-2,0,0,0,0,0
921,3,-8,-1,0,0,0,0,0
922,2,-9,0,0,0,0,0,0
923,4,-7,-1,0,0,0,0,0
924,2,-8,-1,0,0,0,0,0
925,2,-8,-1,0,0,0,0,0
926,4,-6,1,0,0,0,0,0
927,1,-8,0,0,0,0,0,0
928,2,-8,0,0,0,0,0,0
929,4,-8,-1,0,0,0,0,0
930,2,-9,-1,0,0,0,0,0
931,3,-7,0,0,0,0,0,0
932,4,-4,0,0,0,0,0,0
933,2,-6,1,0,0,0,0,0
934,3,-6,1,0,0,0,0,0
935,1,-8,-1,0,0,0,0,0
936,1,-6,-1,0,0,0,0,0
937,6,-7,-1,0,0,0,0,0
938,3,-8,-2,0,0,0,0,0
939,-1,-5,-2,0,0,0,0,0
940,3,-8,0,0,0,0,0,0
941,2,-7,2,0,0,0,0,0
942,2,-8,0,0,0,0,0,0
943,2,-8,0,0,0,0,0,0
944,3,-7,-1,0,0,0,0,0
945,3,-7,1,0,0,0,0,0
946,0,-5,-2,0,0,0,0,0
947,6,-7,-1,0,0,0,0,0
948,2,-7,0,0,0,0,0,0
949,3,-8,0,384,0,0,0,0
950,9,-4,-2,0,0,0,0,0
951,-1,-8,0,291,0,0,0,0
952,3,-8,-2,0,0,0,0,0
953,1,-8,0,2,0,0,0,0
954,1,-9,0,0,0,0,0,0
955,-2,-9,0,0,0,0,0,0
956,3,-7,-1,0,0,0,0,0
957,2,-8,0,0,0,0,0,0
958,1,-7,0,0,0,0,0,0
959,5,-8,-1,0,0,0,0,0
960,2,-8,0,0,0,0,0,0
961,4,-7,0,0,0,0,0,0
962,4,-8,-1,0,0,0,0,0
963,3,-8,0,0,0,0,0,0
964,3,-8,1,0,0,0,0,0
965,3,-8,-1,0,0,0,0,0
966,5,-7,0,0,0,0,0,0
967,-3,-2,-2,0,0,0,0,0
968,3,-12,0,0,0,0,0,0
969,2,-7,0,0,0,0,0,0
970,6,-7,0,0,0,0,0,0
971,4,-7,0,0,0,0,0,0
972,-1,-8,-1,0,0,0,0,0
973,5,-8,-1,0,0,0,0,0
974,-7,-9,0,0,0,0,0,0
975,-2,-13,0,0,0,0,0,0
976,12,3,-3,0,0,0,0,0
977,-31,9,-2,0,0,0,0,0
978,9,-17,-1,0,0,0,0,0
979,-21,-29,-6,0,0,0,0,0
980,-4,-6,0,0,0,0,0,0
981,10,-27,2,-865,0,0,0,0
982,-11,-20,-6,0,0,0,0,0
983,5,-29,-2,-845,0,0,0,0
984,5,-32,-1,0,0,0,0,0
985,3,-27,-2,826,0,0,0,0
986,-4,-31,-1,0,0,0,0,0
987,6,-29,2,0,0,0,0,0
988,-9,-28,-3,0,0,0,0,0
989,-5,-33,-2,0,0,0,0,0
990,6,-45,-2,0,0,0,0,0
991,-11,-20,3,0,0,0,0,0
992,5,-33,-1,985,0,0,0,0
993,-8,-59,-3,0,0,0,0,0
994,2,-49,-4,0,0,0,0,0
995,3,-47,-4,0,0,0,0,0
996,-2,-52,11,0,0,0,0,0
997,-9,-68,-6,0,0,0,0,0
998,-6,-72,5,0,0,0,0,0
999,-12,-64,6,0,0,0,0,0
1000,14,-64,10,0,0,0,0,0
1001,-14,-81,-6,0,0,0,0,0
1002,-17,-83,3,0,0,0,0,0
1003,-20,-82,-1,0,0,0,0,0
1004,-26,-109,5,0,0,0,0,0
1005,-56,-95,-14,0,0,0,0,0
1006,11,-97,4,0,0,0,0,0
1007,-8,-113,-6,0,0,0,0,0
1008,25,-111,-7,0,0,0,0,0
1009,28,-119,-1,0,0,0,0,0
1010,-83,-157,6,0,0,0,0,0
1011,-246,-163,10,0,0,0,0,0
1012,-84,-181,-5,0,0,0,0,0
1013,-75,-197,-4,0,0,0,0,0
1014,7,-190,-4,0,0,0,0,0
1015,-79,-248,5,0,0,0,0,0
1016,2,-254,-2,0,0,0,0,0
1017,-32,-268,22,0,0,0,0,0
1018,70,-258,1,0,0,0,0,0
1019,10,-278,-1,0,0,0,0,0
1020,-16,-285,-16,1231,0,0,0,0
1021,251,-282,2,0,0,0,0,0
1022,-18,-285,-14,0,0,0,0,0
1023,-68,-329,8,0,0,0,0,0
1024,57,-324,23,0,0,0,0,0
1025,-28,-336,1,0,0,0,0,0
1026,-38,-335,20,0,0,0,0,0
1027,33,-304,-17,0,0,0,0,0
1028,-75,-312,15,0,0,0,0,0
1029,-45,-290,9,0,0,0,0,0
1030,-50,-282,28,0,0,0,0,0
1031,-52,-276,18,0,0,0,0,0
1032,-80,-243,3,0,0,0,0,0
1033,-82,-192,-2,0,0,0,0,0
1034,114,-158,-18,0,0,0,0,0
1035,-77,-164,-13,0,0,0,0,0
1036,-118,-154,-49,1256,0,0,0,0
1037,117,-109,21,1267,0,0,0,0
1038,-80,-125,10,0,0,0,0,0
1039,16,-100,4,1271,0,0,0,0
1040,114,-94,29,0,0,0,0,0
1041,-43,-78,-22,578,0,0,0,0
1042,-176,-88,34,0,0,0,0,0
1043,55,-68,21,617,0,0,0,0
1044,-84,-88,-5,0,0,0,0,0
1045,55,-64,-13,787,0,0,0,0
1046,74,-86,8,0,0,0,0,0
1047,-31,-103,-30,0,0,0,0,0
1048,-2,-94,-27,0,0,0,0,0
1049,10,-106,-50,0,0,0,0,0
1050,-27,-146,14,0,0,0,0,0
1051,-21,-149,2,0,0,0,0,0
1052,8,-160,-2,0,0,0,0,0
1053,-38,-179,45,0,0,0,0,0
1054,227,-149,-37,0,0,0,0,0
1055,-24,-183,-7,0,0,0,0,0
1056,37,-176,28,0,0,0,0,0
1057,36,-140,-52,0,0,0,0,0
1058,-37,-194,-6,0,0,0,0,0
1059,-184,-210,-36,0,0,0,0,0
1060,4,-183,11,0,0,0,0,0
1061,-179,-239,5,0,0,0,0,0
1062,27,-224,8,0,0,0,0,0
1063,-140,-254,-53,0,0,0,0,0
1064,53,-205,21,0,0,0,0,0
1065,-75,-245,-25,0,0,0,0,0
1066,22,-253,4,0,0,0,0,0
1067,33,-235,4,0,0,0,0,0
1068,36,-251,-2,0,0,0,0,0
1069,17,-273,8,0,0,0,0,0
1070,38,-262,-32,0,0,0,0,0
1071,-97,-250,9,0,0,0,0,0
1072,97,-246,9,0,0,0,0,0
1073,0,-270,13,0,0,0,0,0
1074,131,-255,5,1058,0,0,0,0
1075,32,-265,-9,0,0,0,0,0
1076,117,-274,42,1057,0,0,0,0
1077,-20,-271,-21,0,0,0,0,0
1078,4,-320,-8,863,0,0,0,0
1079,55,-307,-17,0,0,0,0,0
1080,32,-322,-10,862,0,0,0,0
1081,-149,-332,7,0,0,0,0,0
1082,-133,-349,5,0,0,0,0,0
1083,-42,-322,39,0,0,0,0,0
1084,109,-326,6,389,0,0,0,0
1085,34,-333,55,0,0,0,0,0
1086,-103,-328,-21,853,0,0,0,0
1087,-82,-291,11,972,0,0,0,0
1088,55,-296,-2,0,0,0,0,0
1089,-69,-295,-22,0,0,0,0,0
1090,-92,-291,-37,0,0,0,0,0
1091,12,-282,26,0,0,0,0,0
1092,-114,-291,-9,0,0,0,0,0
1093,-100,-290,8,1015,0,0,0,0
1094,75,-306,-30,0,0,0,0,0
1095,-31,-338,-9,1032,0,0,0,0
1096,-196,-343,-26,0,0,0,0,0
1097,-15,-304,-3,987,0,0,0,0
1098,20,-337,-31,0,0,0,0,0
1099,-21,-313,6,992,0,0,0,0
1100,44,-328,-3,0,0,0,0,0
1101,35,-342,-24,380,0,0,0,0
1102,-56,-351,-51,0,0,0,0,0
1103,40,-331,4,0,0,0,0,0
1104,-139,-347,-2,0,0,0,0,0
1105,15,-305,-1,0,0,0,0,0
1106,-205,-329,-10,1022,0,0,0,0
1107,-120,-341,-5,0,0,0,0,0
1108,-75,-354,-1,0,0,0,0,0
1109,-30,-330,-11,0,0,0,0,0
1110,-43,-331,58,0,0,0,0,0
1111,-49,-312,-12,0,0,0,0,0
1112,-43,-316,36,0,0,0,0,0
1113,-29,-300,-45,0,0,0,0,0
1114,-104,-289,26,1083,0,0,0,0
1115,84,-264,32,0,0,0,0,0
1116,-91,-258,-13,0,0,0,0,0
1117,-133,-226,25,0,0,0,0,0
1118,55,-191,9,0,0,0,0,0
1119,-87,-207,-3,0,0,0,0,0
1120,-60,-173,-4,0,0,0,0,0
1121,85,-167,-2,0,0,0,0,0
1122,-92,-128,4,0,0,0,0,0
1123,-7,-115,8,0,0,0,0,0
1124,10,-85,12,0,0,0,0,0
1125,53,-52,5,0,0,0,0,0
1126,-5,-59,-1,3,0,0,0,0
1127,9,-56,0,0,0,0,0,0
1128,-99,-71,5,0,0,0,0,0
1129,-17,-47,12,0,0,0,0,0
1130,-3,-51,-33,0,0,0,0,0
1131,-94,-84,-23,0,0,0,0,0
1132,-7,-49,23,0,0,0,0,0
1133,29,-59,-19,0,0,0,0,0
1134,-82,-81,27,0,0,0,0,0
1135,29,-6,18,0,0,0,0,0
1136,-58,-28,27,0,0,0,0,0
1137,-87,-32,-11,0,0,0,0,0
1138,7,-28,44,0,0,0,0,0
1139,-76,-2,-34,0,0,0,0,0
1140,-8,-18,-24,1,0,0,0,0
1141,-51,3,-65,0,0,0,0,0
1142,-46,-4,-31,0,0,0,0,0
1143,-23,60,9,0,0,0,0,0
1144,-105,62,40,0,0,0,0,0
1145,-45,102,-17,0,0,0,0,0
1146,-14,111,13,0,0,0,0,0
1147,-74,140,-19,0,0,0,0,0
1148,9,142,-5,0,0,0,0,0
1149,7,105,14,0,0,0,0,0
1150,55,114,4,657,0,0,0,0
1151,62,131,15,0,0,0,0,0
1152,64,124,-9,0,0,0,0,0
1153,24,113,22,0,0,0,0,0
1154,53,141,2,768,0,0,0,0
1155,33,119,2,0,0,0,0,0
1156,-68,102,-17,55,0,0,0,0
1157,102,141,-7,0,0,0,0,0
1158,5,109,42,38,0,0,0,0
1159,42,135,2,0,0,0,0,0
1160,10,92,27,-863,0,0,0,0
1161,83,98,17,0,0,0,0,0
1162,113,143,8,21,0,0,0,0
1163,-73,109,22,0,0,0,0,0
1164,4,125,-3,0,0,0,0,0
1165,-29,90,10,0,0,0,0,0
1166,119,118,-18,0,0,0,0,0
1167,31,131,-12,0,0,0,0,0
1168,67,101,24,0,0,0,0,0
1169,8,123,7,0,0,0,0,0
1170,16,94,1,0,0,0,0,0
1171,20,109,-10,0,0,0,0,0
1172,17,103,-5,0,0,0,0,0
1173,-112,92,-50,0,0,0,0,0
1174,24,128,-16,0,0,0,0,0
1175,-38,98,10,0,0,0,0,0
1176,-76,89,12,0,0,0,0,0
1177,-35,66,-34,0,0,0,0,0
1178,7,82,-3,0,0,0,0,0
1179,-4,78,-8,0,0,0,0,0
1180,30,72,-22,0,0,0,0,0
1181,6,81,-32,792,0,0,0,0
1182,-18,24,-18,0,0,0,0,0
1183,47,39,-17,13,0,0,0,0
1184,25,33,-22,0,0,0,0,0
1185,-1,20,-21,0,0,0,0,0
1186,48,8,-7,0,0,0,0,0
1187,7,-16,-16,-909,0,0,0,0
1188,52,2,-3,0,0,0,0,0
1189,6,-20,11,0,0,0,0,0
1190,47,0,-13,0,0,0,0,0
1191,57,-9,9,0,0,0,0,0
1192,118,-2,0,0,0,0,0,0
1193,43,-10,-16,0,0,0,0,0
1194,-66,-37,0,0,0,0,0,0
1195,-22,-39,-8,0,0,0,0,0
1196,86,-11,-8,791,0,0,0,0
1197,46,-40,8,0,0,0,0,0
1198,35,-32,-4,18,0,0,0,0
1199,-63,-67,-1,0,0,0,0,0
1200,-44,-46,1,-922,0,0,0,0
1201,7,-66,-1,0,0,0,0,0
1202,-21,-58,-16,-915,0,0,0,0
1203,-71,-42,-14,0,0,0,0,0
1204,-10,-80,6,-927,0,0,0,0
1205,15,-47,13,0,0,0,0,0
1206,-20,-56,4,-936,0,0,0,0
1207,-20,-47,-6,0,0,0,0,0
1208,-1,-66,-4,0,0,0,0,0
1209,22,-46,-6,0,0,0,0,0
1210,25,-16,-7,0,0,0,0,0
1211,-37,-94,-10,0,0,0,0,0
1212,7,-39,9,0,0,0,0,0
1213,-8,-40,-1,0,0,0,0,0
1214,7,-101,5,0,0,0,0,0
1215,35,-29,-2,0,0,0,0,0
1216,-54,-49,-15,-940,0,0,0,0
1217,-56,-80,-26,0,0,0,0,0
1218,14,-36,-1,-927,0,0,0,0
1219,-29,-26,-3,0,0,0,0,0
1220,-1,-24,17,0,0,0,0,0
1221,-22,-84,14,0,0,0,0,0
1222,31,-31,5,978,0,0,0,0
1223,13,-20,-2,0,0,0,0,0
1224,3,-25,8,0,0,0,0,0
1225,-20,-12,-3,0,0,0,0,0
1226,45,-34,14,0,0,0,0,0
1227,2,-12,-4,0,0,0,0,0
1228,-2,-11,255,0,0,0,0,0
1229,-17,-24,2,0,0,0,0,0
1230,-33,-100,38,0,0,0,0,0
1231,-5,65,-49,0,0,0,0,0
1232,-97,124,43,1174,0,0,0,0
1233,233,-80,-3,0,0,0,0,0
1234,85,-23,-40,0,0,0,0,0
1235,-84,29,-21,0,0,0,0,0
1236,-33,-36,11,0,0,0,0,0
1237,2,-106,-2,0,0,0,0,0
1238,-57,-31,-1,0,0,0,0,0
1239,6,6,7,0,0,0,0,0
1240,49,-92,6,0,0,0,0,0
1241,0,-80,-6,0,0,0,0,0
1242,-43,-45,10,0,0,0,0,0
1243,-56,-95,2,0,0,0,0,0
1244,-4,-59,-6,0,0,0,0,0
1245,-58,-66,-5,0,0,0,0,0
1246,-33,-90,-1,0,0,0,0,0
1247,19,-74,9,793,0,0,0,0
1248,-24,-99,-2,0,0,0,0,0
1249,-31,-83,0,791,0,0,0,0
1250,-16,-75,0,0,0,0,0,0
1251,14,-72,10,375,0,0,0,0
1252,-75,-61,-5,0,0,0,0,0
1253,-43,-41,15,416,0,0,0,0
1254,-94,-1,-3,0,0,0,0,0
1255,40,46,-14,791,0,0,0,0
1256,4,58,-3,0,0,0,0,0
1257,16,41,-27,1312,0,0,0,0
1258,26,93,-20,0,0,0,0,0
1259,-35,96,-5,0,0,0,0,0
1260,-8,169,-22,0,0,0,0,0
1261,77,168,-11,0,0,0,0,0
1262,8,176,25,0,0,0,0,0
1263,63,190,-18,0,0,0,0,0
1264,42,201,-3,0,0,0,0,0
1265,62,153,10,0,0,0,0,0
1266,-97,131,-21,0,0,0,0,0
1267,151,165,-1,0,0,0,0,0
1268,29,117,1,0,0,0,0,0
1269,-16,89,-39,0,0,0,0,0
1270,-14,13,-29,0,0,0,0,0
1271,-48,-28,-16,0,0,0,0,0
1272,-74,-62,-51,0,0,0,0,0
1273,-60,-163,-22,0,0,0,0,0
1274,66,-193,26,0,0,0,0,0
1275,1,-263,-17,0,0,0,0,0
1276,-60,-382,7,0,0,0,0,0
1277,-116,-407,-38,0,0,0,0,0
1278,-33,-471,-13,0,0,0,0,0
1279,214,-541,-4,0,0,0,0,0
1280,-140,-610,-29,0,0,0,0,0
1281,-51,-578,0,0,0,0,0,0
1282,-116,-631,-9,0,0,0,0,0
1283,-85,-685,17,0,0,0,0,0
1284,-283,-740,45,0,0,0,0,0
1285,-13,-702,44,0,0,0,0,0
1286,-118,-778,26,0,0,0,0,0
1287,20,-702,11,0,0,0,0,0
1288,-138,-704,-23,0,0,0,0,0
1289,-24,-689,-8,0,0,0,0,0
1290,-70,-677,-4,0,0,0,0,0
1291,25,-665,-7,0,0,0,0,0
1292,-70,-685,-9,0,0,0,0,0
1293,-35,-668,-2,0,0,0,0,0
1294,-146,-661,-2,0,0,0,0,0
1295,-40,-640,-27,788,0,0,0,0
1296,-40,-655,4,0,0,0,0,0
1297,-112,-609,-18,789,0,0,0,0
1298,-411,-657,-65,0,0,0,0,0
1299,-79,-626,-27,3,0,0,0,0
1300,-116,-592,-5,0,0,0,0,0
1301,-2,-595,74,0,0,0,0,0
1302,-196,-596,26,0,0,0,0,0
1303,108,-562,30,486,0,0,0,0
1304,36,-591,1,0,0,0,0,0
1305,54,-581,-24,639,0,0,0,0
1306,46,-532,-38,0,0,0,0,0
1307,-58,-577,-63,721,0,0,0,0
1308,-94,-560,-11,0,0,0,0,0
1309,-76,-534,-14,0,0,0,0,0
1310,41,-510,33,0,0,0,0,0
1311,-38,-528,28,0,0,0,0,0
1312,-70,-500,9,0,0,0,0,0
1313,-65,-477,6,0,0,0,0,0
1314,-9,-460,8,0,0,0,0,0
1315,39,-458,3,0,0,0,0,0
1316,-184,-462,3,0,0,0,0,0
1317,33,-412,-5,0,0,0,0,0
1318,-161,-463,-3,0,0,0,0,0
1319,104,-430,21,0,0,0,0,0
1320,-351,-411,-4,-972,0,0,0,0
1321,-149,-377,-19,0,0,0,0,0
1322,-3,-41,-12,0,0,0,0,0
1323,61,244,28,0,0,0,0,0
1324,3,297,-17,1056,0,0,0,0
1325,70,288,-247,0,0,0,0,0
1326,58,269,-7,1074,0,0,0,0
1327,97,278,-8,0,0,0,0,0
1328,-35,292,-38,1246,0,0,0,0
1329,-119,260,2,0,0,0,0,0
1330,106,304,-10,0,0,0,0,0
1331,-75,276,1,0,0,0,0,0
1332,24,312,-54,0,0,0,0,0
1333,-72,296,-34,0,0,0,0,0
1334,13,267,23,0,0,0,0,0
1335,129,300,13,0,0,0,0,0
1336,-34,262,-31,0,0,0,0,0
1337,28,275,9,0,0,0,0,0
1338,-42,230,-2,0,0,0,0,0
1339,-189,192,-27,0,0,0,0,0
1340,114,219,-11,0,0,0,0,0
1341,133,142,-7,0,0,0,0,0
1342,-16,101,-35,1226,0,0,0,0
1343,-49,33,0,0,0,0,0,0
1344,238,35,-14,0,0,0,0,0
1345,37,-36,-48,0,0,0,0,0
1346,-15,-40,22,0,0,0,0,0
1347,-90,-46,-40,0,0,0,0,0
1348,-42,-9,13,0,0,0,0,0
1349,149,-16,89,0,0,0,0,0
1350,-123,-15,-24,0,0,0,0,0
1351,-26,-29,-7,0,0,0,0,0
1352,-14,-34,65,0,0,0,0,0
1353,15,-21,28,0,0,0,0,0
1354,86,6,-54,0,0,0,0,0
1355,-176,-37,28,0,0,0,0,0
1356,13,34,39,0,0,0,0,0
1357,-20,40,13,0,0,0,0,0
1358,-123,78,12,0,0,0,0,0
1359,21,127,-22,0,0,0,0,0
1360,-99,159,42,0,0,0,0,0
1361,42,189,5,0,0,0,0,0
1362,-33,213,-1,0,0,0,0,0
1363,68,231,10,0,0,0,0,0
1364,161,267,-23,0,0,0,0,0
1365,-8,216,-37,0,0,0,0,0
1366,14,209,-44,0,0,0,0,0
1367,-2,221,-16,0,0,0,0,0
1368,28,237,50,0,0,0,0,0
1369,21,254,3,631,0,0,0,0
1370,-34,241,-34,0,0,0,0,0
1371,6,232,27,1184,0,0,0,0
1372,20,269,-29,0,0,0,0,0
1373,44,261,0,1324,0,0,0,0
1374,109,245,0,0,0,0,0,0
1375,-4,238,7,1150,0,0,0,0
1376,11,246,-20,0,0,0,0,0
1377,-46,232,-23,1139,0,0,0,0
1378,98,244,-6,0,0,0,0,0
1379,-89,234,-38,1141,0,0,0,0
1380,-4,234,1,0,0,0,0,0
1381,60,239,0,1145,0,0,0,0
1382,-6,226,19,0,0,0,0,0
1383,71,236,6,1142,0,0,0,0
1384,119,220,30,0,0,0,0,0
1385,-54,178,-5,1135,0,0,0,0
1386,-18,192,-12,0,0,0,0,0
1387,31,195,-24,1127,0,0,0,0
1388,-5,162,18,0,0,0,0,0
1389,29,167,50,1124,0,0,0,0
1390,84,188,-23,0,0,0,0,0
1391,116,212,-21,1127,0,0,0,0
1392,6,176,-4,0,0,0,0,0
1393,97,184,13,1126,0,0,0,0
1394,44,152,-18,0,0,0,0,0
1395,21,184,0,1127,0,0,0,0
1396,64,213,1,0,0,0,0,0
1397,-8,157,-4,1125,0,0,0,0
1398,128,171,2,0,0,0,0,0
1399,83,160,-18,1112,0,0,0,0
1400,-59,157,2,0,0,0,0,0
1401,42,158,6,0,0,0,0,0
1402,97,148,-13,0,0,0,0,0
1403,-76,138,6,0,0,0,0,0
1404,62,166,16,0,0,0,0,0
1405,9,139,13,1063,0,0,0,0
1406,-23,166,44,0,0,0,0,0
1407,102,137,-18,0,0,0,0,0
1408,-7,134,24,0,0,0,0,0
1409,-146,126,-49,1062,0,0,0,0
1410,89,173,7,0,0,0,0,0
1411,73,169,-45,1061,0,0,0,0
1412,19,135,1,0,0,0,0,0
1413,-41,138,42,0,0,0,0,0
1414,16,185,6,0,0,0,0,0
1415,54,148,50,0,0,0,0,0
1416,74,151,29,0,0,0,0,0
1417,81,157,-2,0,0,0,0,0
1418,-10,166,47,0,0,0,0,0
1419,-12,165,-22,0,0,0,0,0
1420,218,199,95,1083,0,0,0,0
1421,130,214,-31,0,0,0,0,0
1422,-14,223,-12,0,0,0,0,0
1423,94,228,-51,0,0,0,0,0
1424,-34,247,-46,0,0,0,0,0
1425,182,285,29,0,0,0,0,0
1426,-35,293,-25,0,0,0,0,0
1427,71,289,-34,0,0,0,0,0
1428,-19,261,-18,0,0,0,0,0
1429,113,290,-92,0,0,0,0,0
1430,78,257,26,0,0,0,0,0
1431,-31,273,-12,0,0,0,0,0
1432,64,254,-6,0,0,0,0,0
1433,-34,235,15,0,0,0,0,0
1434,-54,242,-14,0,0,0,0,0
1435,-107,202,-27,0,0,0,0,0
1436,-13,217,9,0,0,0,0,0
1437,85,191,-25,0,0,0,0,0
1438,-243,180,-6,0,0,0,0,0
1439,73,188,0,0,0,0,0,0
1440,-1,223,41,0,0,0,0,0
1441,137,210,30,0,0,0,0,0
1442,125,205,75,1111,0,0,0,0
1443,36,196,11,0,0,0,0,0
1444,65,180,6,0,0,0,0,0
1445,-74,161,-10,0,0,0,0,0
1446,-3,167,4,1152,0,0,0,0
1447,-6,165,-40,0,0,0,0,0
1448,6,163,39,1117,0,0,0,0
1449,-12,164,-3,0,0,0,0,0
1450,17,153,25,1148,0,0,0,0
1451,208,167,41,0,0,0,0,0
1452,-34,139,40,1115,0,0,0,0
1453,-85,133,4,0,0,0,0,0
1454,140,163,-13,0,0,0,0,0
1455,0,144,-4,0,0,0,0,0
1456,21,184,11,0,0,0,0,0
1457,269,185,14,0,0,0,0,0
1458,89,162,-28,0,0,0,0,0
1459,-107,149,22,0,0,0,0,0
1460,156,169,37,1113,0,0,0,0
1461,12,159,-49,0,0,0,0,0
1462,52,152,-33,1141,0,0,0,0
1463,-80,156,40,0,0,0,0,0
1464,90,158,16,1142,0,0,0,0
1465,-105,159,50,0,0,0,0,0
1466,65,176,-29,463,0,0,0,0
1467,110,179,25,0,0,0,0,0
1468,-16,157,2,1144,0,0,0,0
1469,56,157,11,0,0,0,0,0
1470,151,173,-6,0,0,0,0,0
1471,68,157,16,0,0,0,0,0
1472,-183,161,2,0,0,0,0,0
1473,78,151,49,0,0,0,0,0
1474,42,185,-3,0,0,0,0,0
1475,-103,146,10,0,0,0,0,0
1476,5,200,3,0,0,0,0,0
1477,108,206,35,0,0,0,0,0
1478,-223,169,-5,0,0,0,0,0
1479,25,205,60,0,0,0,0,0
1480,24,212,10,0,0,0,0,0
1481,-112,213,47,0,0,0,0,0
1482,15,236,22,0,0,0,0,0
1483,10,201,19,0,0,0,0,0
1484,-54,198,-35,0,0,0,0,0
1485,-124,213,-51,0,0,0,0,0
1486,75,213,36,0,0,0,0,0
1487,96,223,46,0,0,0,0,0
1488,105,273,-15,0,0,0,0,0
1489,148,268,57,0,0,0,0,0
1490,-90,272,-37,0,0,0,0,0
1491,2,263,-11,0,0,0,0,0
1492,143,279,-13,0,0,0,0,0
1493,62,281,-27,1012,0,0,0,0
1494,62,291,21,0,0,0,0,0
1495,-65,287,-29,1018,0,0,0,0
1496,90,285,54,0,0,0,0,0
1497,236,313,72,1024,0,0,0,0
1498,-29,272,-2,0,0,0,0,0
1499,-74,280,-17,0,0,0,0,0
1500,-29,260,7,0,0,0,0,0
1501,0,288,-17,1078,0,0,0,0
1502,212,335,-29,0,0,0,0,0
1503,35,265,17,1075,0,0,0,0
1504,275,322,18,0,0,0,0,0
1505,-6,283,-4,1130,0,0,0,0
1506,93,286,-4,0,0,0,0,0
1507,-85,292,-28,1137,0,0,0,0
1508,205,286,17,0,0,0,0,0
1509,-54,272,-51,1141,0,0,0,0
1510,-41,282,8,0,0,0,0,0
1511,62,270,-1,1145,0,0,0,0
1512,76,277,10,0,0,0,0,0
1513,42,297,-54,362,0,0,0,0
1514,-37,273,230,0,0,0,0,0
1515,-201,263,-12,1159,0,0,0,0
1516,-33,254,-6,0,0,0,0,0
1517,99,289,14,369,0,0,0,0
1518,139,303,46,0,0,0,0,0
1519,39,297,85,1169,0,0,0,0
1520,47,307,10,0,0,0,0,0
1521,15,277,59,1064,0,0,0,0
1522,119,312,2,0,0,0,0,0
1523,18,296,14,1062,0,0,0,0
1524,-73,284,-10,0,0,0,0,0
1525,-126,283,0,1187,0,0,0,0
1526,-44,290,-5,1195,0,0,0,0
1527,185,328,8,0,0,0,0,0
1528,23,296,6,0,0,0,0,0
1529,51,308,32,0,0,0,0,0
1530,44,280,0,0,0,0,0,0
1531,81,293,-9,0,0,0,0,0
1532,81,230,7,0,0,0,0,0
1533,-86,222,-45,0,0,0,0,0
1534,174,214,23,0,0,0,0,0
1535,33,214,-32,0,0,0,0,0
1536,36,227,-65,0,0,0,0,0
1537,31,194,-19,0,0,0,0,0
1538,60,169,-31,0,0,0,0,0
1539,-103,113,-62,1039,0,0,0,0
1540,40,115,24,0,0,0,0,0
1541,-21,123,-42,0,0,0,0,0
1542,106,104,35,0,0,0,0,0
1543,65,100,-50,0,0,0,0,0
1544,-7,102,24,0,0,0,0,0
1545,58,120,-13,0,0,0,0,0
1546,60,106,-28,0,0,0,0,0
1547,168,127,35,0,0,0,0,0
1548,89,74,42,0,0,0,0,0
1549,-119,106,-99,0,0,0,0,0
1550,-47,88,15,0,0,0,0,0
1551,6,82,-28,0,0,0,0,0
1552,144,105,34,0,0,0,0,0
1553,93,86,0,0,0,0,0,0
1554,68,92,35,0,0,0,0,0
1555,-4,119,6,1061,0,0,0,0
1556,1,114,-23,0,0,0,0,0
1557,75,111,34,1341,0,0,0,0
1558,-172,93,-8,0,0,0,0,0
1559,-41,103,7,360,0,0,0,0
1560,-59,52,-3,0,0,0,0,0
1561,-123,78,-71,374,0,0,0,0
1562,67,53,-17,0,0,0,0,0
1563,-57,65,-25,0,0,0,0,0
1564,2,74,-9,0,0,0,0,0
1565,8,81,35,0,0,0,0,0
1566,-27,30,-20,0,0,0,0,0
1567,-3,57,-12,0,0,0,0,0
1568,-5,46,50,0,0,0,0,0
1569,223,72,-32,0,0,0,0,0
1570,54,32,-12,0,0,0,0,0
1571,-216,-3,-2,0,0,0,0,0
1572,72,49,6,1018,0,0,0,0
1573,-16,34,29,0,0,0,0,0
1574,-57,12,29,0,0,0,0,0
1575,-103,7,7,0,0,0,0,0
1576,139,68,-55,0,0,0,0,0
1577,56,6,-7,0,0,0,0,0
1578,103,-30,2,0,0,0,0,0
1579,-47,-37,-23,0,0,0,0,0
1580,49,-11,5,0,0,0,0,0
1581,-300,22,-86,0,0,0,0,0
1582,160,-6,-9,0,0,0,0,0
1583,-25,-34,5,0,0,0,0,0
1584,-34,-15,16,0,0,0,0,0
1585,6,12,-1,1003,0,0,0,0
1586,-137,-47,-56,0,0,0,0,0
1587,12,50,1,1100,0,0,0,0
1588,26,56,-1,0,0,0,0,0
1589,13,61,2,0,0,0,0,0
1590,8,67,0,0,0,0,0,0
1591,7,75,5,0,0,0,0,0
1592,-14,67,-1,0,0,0,0,0
1593,5,87,-4,0,0,0,0,0
1594,9,85,-5,0,0,0,0,0
1595,0,94,-6,0,0,0,0,0
1596,-11,90,2,0,0,0,0,0
1597,-1,99,3,792,0,0,0,0
1598,6,99,1,0,0,0,0,0
1599,-3,107,-4,184,0,0,0,0
1600,30,118,6,0,0,0,0,0
1601,-2,104,5,0,0,0,0,0
1602,12,113,9,0,0,0,0,0
1603,14,123,-2,1198,0,0,0,0
1604,27,120,4,0,0,0,0,0
1605,16,127,-2,1215,0,0,0,0
1606,34,147,10,0,0,0,0,0
1607,19,135,7,0,0,0,0,0
1608,-1,140,6,0,0,0,0,0
1609,60,168,6,0,0,0,0,0
1610,30,150,20,0,0,0,0,0
1611,10,147,13,0,0,0,0,0
1612,72,174,4,0,0,0,0,0
1613,29,150,11,1176,0,0,0,0
1614,33,171,4,0,0,0,0,0
1615,22,174,2,0,0,0,0,0
1616,46,174,-7,0,0,0,0,0
1617,36,186,1,0,0,0,0,0
1618,-22,181,13,0,0,0,0,0
1619,5,188,4,0,0,0,0,0
1620,68,209,5,0,0,0,0,0
1621,88,213,-16,0,0,0,0,0
1622,72,215,-12,0,0,0,0,0
1623,20,217,9,0,0,0,0,0
1624,60,227,-29,0,0,0,0,0
1625,49,232,-11,789,0,0,0,0
1626,26,229,23,0,0,0,0,0
1627,60,228,4,789,0,0,0,0
1628,70,264,-5,0,0,0,0,0
1629,35,238,7,469,0,0,0,0
1630,36,255,6,0,0,0,0,0
1631,84,274,8,486,0,0,0,0
1632,29,251,42,0,0,0,0,0
1633,42,272,4,503,0,0,0,0
1634,18,261,7,0,0,0,0,0
1635,22,277,2,0,0,0,0,0
1636,-53,274,14,0,0,0,0,0
1637,33,276,8,0,0,0,0,0
1638,4,284,18,0,0,0,0,0
1639,24,276,-10,1213,0,0,0,0
1640,51,279,12,0,0,0,0,0
1641,9,285,-1,1217,0,0,0,0
1642,-47,284,-1,0,0,0,0,0
1643,36,290,4,0,0,0,0,0
1644,69,292,-1,0,0,0,0,0
1645,92,297,12,0,0,0,0,0
1646,112,304,32,0,0,0,0,0
1647,21,271,-11,0,0,0,0,0
1648,51,290,19,0,0,0,0,0
1649,14,278,-24,0,0,0,0,0
1650,65,276,2,0,0,0,0,0
1651,2,256,23,0,0,0,0,0
1652,-28,254,-16,0,0,0,0,0
1653,9,244,-1,0,0,0,0,0
1654,49,253,-2,0,0,0,0,0
1655,155,245,-3,0,0,0,0,0
1656,115,248,-21,0,0,0,0,0
1657,63,227,-8,0,0,0,0,0
1658,96,222,13,0,0,0,0,0
1659,69,225,6,0,0,0,0,0
1660,115,230,-21,0,0,0,0,0
1661,35,220,-23,0,0,0,0,0
1662,-30,206,-26,0,0,0,0,0
1663,123,223,27,0,0,0,0,0
1664,-15,214,-20,0,0,0,0,0
1665,30,211,-15,0,0,0,0,0
1666,84,220,-8,0,0,0,0,0
1667,-16,190,-14,0,0,0,0,0
1668,-20,204,-3,0,0,0,0,0
1669,59,199,-6,0,0,0,0,0
1670,15,199,-28,0,0,0,0,0
1671,-29,198,9,0,0,0,0,0
1672,35,179,3,0,0,0,0,0
1673,24,195,-22,0,0,0,0,0
1674,40,181,3,0,0,0,0,0
1675,-65,171,6,0,0,0,0,0
1676,-15,156,16,0,0,0,0,0
1677,-17,141,-3,0,0,0,0,0
1678,137,160,5,1241,0,0,0,0
1679,-12,133,-2,0,0,0,0,0
1680,-1,138,-7,1207,0,0,0,0
1681,-51,122,-4,0,0,0,0,0
1682,-31,122,1,1183,0,0,0,0
1683,63,128,40,0,0,0,0,0
1684,46,145,-8,0,0,0,0,0
1685,-91,124,-43,0,0,0,0,0
1686,46,127,23,0,0,0,0,0
1687,-17,132,-15,0,0,0,0,0
1688,27,133,-2,0,0,0,0,0
1689,-94,108,-5,0,0,0,0,0
1690,-45,119,10,1123,0,0,0,0
1691,127,135,5,0,0,0,0,0
1692,-7,142,-47,1109,0,0,0,0
1693,61,156,-4,0,0,0,0,0
1694,92,156,25,1079,0,0,0,0
1695,1,142,-6,0,0,0,0,0
1696,-96,148,-2,0,0,0,0,0
1697,-34,170,-8,0,0,0,0,0
1698,127,159,12,0,0,0,0,0
1699,-65,140,81,0,0,0,0,0
1700,-10,185,-28,0,0,0,0,0
1701,22,180,-9,0,0,0,0,0
1702,39,173,-18,0,0,0,0,0
1703,106,190,22,0,0,0,0,0
1704,46,167,-2,0,0,0,0,0
1705,122,167,-15,0,0,0,0,0
1706,22,167,51,0,0,0,0,0
1707,-17,173,47,0,0,0,0,0
1708,46,165,41,0,0,0,0,0
1709,-21,163,0,0,0,0,0,0
1710,-68,158,4,0,0,0,0,0
1711,-17,144,38,455,0,0,0,0
1712,13,164,-5,0,0,0,0,0
1713,60,175,3,845,0,0,0,0
1714,6,154,-23,0,0,0,0,0
1715,-147,141,-27,837,0,0,0,0
1716,16,141,-19,0,0,0,0,0
1717,-59,128,22,1054,0,0,0,0
1718,64,178,30,0,0,0,0,0
1719,81,157,-11,0,0,0,0,0
1720,-20,141,7,0,0,0,0,0
1721,85,159,13,1001,0,0,0,0
1722,-54,130,-15,0,0,0,0,0
1723,6,152,2,0,0,0,0,0
1724,71,163,-21,0,0,0,0,0
1725,49,154,-25,0,0,0,0,0
1726,-42,139,-8,0,0,0,0,0
1727,120,160,34,0,0,0,0,0
1728,74,160,0,0,0,0,0,0
1729,2,148,7,0,0,0,0,0
1730,138,153,35,0,0,0,0,0
1731,9,145,-17,0,0,0,0,0
1732,95,154,-17,582,0,0,0,0
1733,51,160,-35,0,0,0,0,0
1734,61,157,-27,770,0,0,0,0
1735,2,148,-1,0,0,0,0,0
1736,61,151,4,769,0,0,0,0
1737,27,162,-19,0,0,0,0,0
1738,86,151,30,1101,0,0,0,0
1739,56,146,-9,0,0,0,0,0
1740,74,156,-15,0,0,0,0,0
1741,30,159,-4,0,0,0,0,0
1742,-71,141,-4,1057,0,0,0,0
1743,51,144,-20,0,0,0,0,0
1744,93,132,0,1059,0,0,0,0
1745,5,112,-11,0,0,0,0,0
1746,65,131,1,1069,0,0,0,0
1747,27,114,7,0,0,0,0,0
1748,107,119,-6,1084,0,0,0,0
1749,-31,84,2,0,0,0,0,0
1750,34,69,34,0,0,0,0,0
1751,-64,58,-19,0,0,0,0,0
1752,29,56,-7,0,0,0,0,0
1753,28,29,-9,0,0,0,0,0
1754,-119,-3,3,0,0,0,0,0
1755,-22,23,16,0,0,0,0,0
1756,-100,33,-15,0,0,0,0,0
1757,-42,6,-9,0,0,0,0,0
1758,-54,2,34,0,0,0,0,0
1759,-89,18,-50,0,0,0,0,0
1760,-71,-12,10,0,0,0,0,0
1761,27,9,40,799,0,0,0,0
1762,57,4,-54,0,0,0,0,0
1763,-5,-5,-13,610,0,0,0,0
1764,-45,-9,-22,0,0,0,0,0
1765,84,-17,-14,809,0,0,0,0
1766,-26,-66,33,611,0,0,0,0
1767,-31,-49,-55,0,0,0,0,0
1768,-56,-57,-8,609,0,0,0,0
1769,79,-57,41,0,0,0,0,0
1770,-51,-64,19,610,0,0,0,0
1771,11,-73,4,0,0,0,0,0
1772,-60,-94,-16,823,0,0,0,0
1773,-8,-97,-13,0,0,0,0,0
1774,18,-141,4,1126,0,0,0,0
1775,1,-132,15,0,0,0,0,0
1776,-33,-151,32,0,0,0,0,0
1777,-37,-146,-29,0,0,0,0,0
1778,-224,-168,8,0,0,0,0,0
1779,-20,-175,-24,0,0,0,0,0
1780,67,-173,39,1102,0,0,0,0
1781,92,-162,11,0,0,0,0,0
1782,24,-195,8,0,0,0,0,0
1783,9,-204,-25,0,0,0,0,0
1784,-41,-198,-33,1101,0,0,0,0
1785,-4,-202,17,0,0,0,0,0
1786,-108,-256,-12,0,0,0,0,0
1787,41,-217,22,0,0,0,0,0
1788,-122,-241,15,0,0,0,0,0
1789,-2,-221,32,0,0,0,0,0
1790,-78,-244,-19,0,0,0,0,0
1791,-78,-236,-31,0,0,0,0,0
1792,20,-236,-14,0,0,0,0,0
1793,-109,-227,-31,0,0,0,0,0
1794,4,-233,-8,0,0,0,0,0
1795,85,-211,0,0,0,0,0,0
1796,123,-211,20,0,0,0,0,0
1797,-238,-268,-37,0,0,0,0,0
1798,-9,-227,1,0,0,0,0,0
1799,12,-218,7,0,0,0,0,0
1800,31,-194,8,0,0,0,0,0
1801,17,-210,20,0,0,0,0,0
1802,49,-193,-19,0,0,0,0,0
1803,-59,-204,-22,0,0,0,0,0
1804,-2,-189,10,0,0,0,0,0
1805,-82,-173,-53,0,0,0,0,0
1806,20,-190,13,0,0,0,0,0
1807,-11,-157,-8,0,0,0,0,0
1808,-20,-159,-9,0,0,0,0,0
1809,4,-141,7,0,0,0,0,0
1810,37,-138,-12,0,0,0,0,0
1811,-96,-131,2,0,0,0,0,0
1812,-55,-133,-15,0,0,0,0,0
1813,-27,-118,-49,0,0,0,0,0
1814,-14,-110,-2,0,0,0,0,0
1815,15,-106,-15,0,0,0,0,0
1816,43,-100,11,0,0,0,0,0
1817,55,-70,23,0,0,0,0,0
1818,42,-85,-8,0,0,0,0,0
1819,-7,-62,-7,0,0,0,0,0
1820,2,-50,0,0,0,0,0,0
1821,-11,-47,6,0,0,0,0,0
1822,-7,-33,-6,0,0,0,0,0
1823,18,-18,5,0,0,0,0,0
1824,1,-13,3,0,0,0,0,0
1825,1,-4,-5,0,0,0,0,0
1826,-73,-14,-22,0,0,0,0,0
1827,-108,-15,-4,0,0,0,0,0
1828,5,-17,5,0,0,0,0,0
1829,3,-4,-1,0,0,0,0,0
1830,-4,-5,6,0,0,0,0,0
1831,-9,-4,0,0,0,0,0,0
1832,-11,-16,0,0,0,0,0,0
1833,-8,-9,1,0,0,0,0,0
1834,-9,-9,0,0,0,0,0,0
1835,0,-5,-1,0,0,0,0,0
1836,7,-8,1,0,0,0,0,0
1837,0,-7,0,0,0,0,0,0
1838,4,-8,0,0,0,0,0,0
1839,-2,-6,0,0,0,0,0,0
1840,3,-9,0,0,0,0,0,0
1841,5,-5,1,0,0,0,0,0
1842,6,-7,-1,0,0,0,0,0
1843,-2,-7,-1,0,0,0,0,0
1844,1,-8,1,0,0,0,0,0
1845,2,-7,-1,0,0,0,0,0
1846,4,-8,0,0,0,0,0,0
1847,1,-8,1,0,0,0,0,0
1848,2,-8,-2,0,0,0,0,0
1849,1,-6,-1,0,0,0,0,0
1850,6,-8,0,0,0,0,0,0
1851,5,-7,0,0,0,0,0,0
1852,4,-7,0,0,0,0,0,0
1853,2,-8,-1,0,0,0,0,0
1854,1,-7,0,0,0,0,0,0
1855,3,-7,-2,0,0,0,0,0
1856,5,-7,0,0,0,0,0,0
1857,5,-6,0,0,0,0,0,0
1858,5,-8,0,0,0,0,0,0
1859,3,-7,-1,0,0,0,0,0
1860,2,-7,-1,0,0,0,0,0
1861,1,-7,0,0,0,0,0,0
1862,4,-8,-1,0,0,0,0,0
1863,2,-9,1,0,0,0,0,0
1864,1,-9,0,0,0,0,0,0
1865,2,-8,0,0,0,0,0,0
1866,3,-7,-1,0,0,0,0,0
1867,4,-9,0,0,0,0,0,0
1868,1,-8,-1,0,0,0,0,0
1869,1,-7,0,0,0,0,0,0
1870,6,-8,0,0,0,0,0,0
1871,4,-6,0,0,0,0,0,0
1872,0,-7,0,0,0,0,0,0
1873,3,-7,1,0,0,0,0,0
1874,3,-7,0,0,0,0,0,0
1875,2,-8,1,0,0,0,0,0
1876,5,-7,0,0,0,0,0,0
1877,3,-7,0,0,0,0,0,0
1878,2,-8,0,0,0,0,0,0
1879,2,-6,0,0,0,0,0,0
1880,4,-8,-1,0,0,0,0,0
1881,3,-8,-1,0,0,0,0,0
1882,2,-8,-1,0,0,0,0,0
1883,2,-7,-1,0,0,0,0,0
1884,4,-7,-1,0,0,0,0,0
1885,1,-8,0,0,0,0,0,0
1886,3,-7,0,0,0,0,0,0
1887,3,-6,-1,0,0,0,0,0
1888,1,-7,-1,0,0,0,0,0
1889,4,-6,-1,0,0,0,0,0
1890,3,-7,-1,0,0,0,0,0
1891,2,-7,-1,0,0,0,0,0
1892,3,-7,1,0,0,0,0,0
1893,2,-8,0,0,0,0,0,0
1894,1,-7,0,0,0,0,0,0
1895,2,-7,0,0,0,0,0,0
1896,2,-7,-1,0,0,0,0,0
1897,3,-6,0,0,0,0,0,0
1898,4,-6,0,0,0,0,0,0
1899,4,-8,1,0,0,0,0,0
1900,3,-8,1,0,0,0,0,0
1901,0,-8,-1,0,0,0,0,0
1902,3,-7,0,0,0,0,0,0
1903,3,-7,0,0,0,0,0,0
1904,4,-8,1,0,0,0,0,0
1905,4,-8,0,0,0,0,0,0
1906,2,-9,-1,0,0,0,0,0
1907,1,-7,-1,0,0,0,0,0
1908,3,-7,-1,0,0,0,0,0
1909,3,-9,1,0,0,0,0,0
1910,2,-7,0,0,0,0,0,0
1911,2,-8,0,0,0,0,0,0
1912,2,-8,1,0,0,0,0,0
1913,3,-8,-1,0,0,0,0,0
1914,3,-6,0,0,0,0,0,0
1915,1,-7,1,0,0,0,0,0
1916,1,-8,0,0,0,0,0,0
1917,1,-7,0,0,0,0,0,0
1918,2,-7,1,0,0,0,0,0
1919,3,-8,0,0,0,0,0,0
1920,2,-8,-1,0,0,0,0,0
1921,3,-8,-1,0,0,0,0,0
1922,3,-7,-1,0,0,0,0,0
1923,3,-8,0,0,0,0,0,0
1924,1,-7,0,0,0,0,0,0
1925,3,-9,-2,0,0,0,0,0
1926,4,-7,-2,0,0,0,0,0
1927,4,-6,1,0,0,0,0,0
1928,1,-8,-1,0,0,0,0,0
1929,4,-7,-1,0,0,0,0,0
1930,2,-7,-1,0,0,0,0,0
1931,2,-8,-1,0,0,0,0,0
1932,2,-6,-2,0,0,0,0,0
1933,1,-7,0,0,0,0,0,0
1934,3,-9,0,0,0,0,0,0
1935,3,-7,-1,0,0,0,0,0
1936,3,-8,-2,0,0,0,0,0
1937,4,-9,0,0,0,0,0,0
1938,2,-8,-1,0,0,0,0,0
1939,3,-7,0,0,0,0,0,0
1940,1,-6,-1,0,0,0,0,0
1941,4,-6,0,0,0,0,0,0
1942,1,-7,1,0,0,0,0,0
1943,3,-7,0,0,0,0,0,0
1944,2,-6,0,0,0,0,0,0
1945,2,-8,-2,0,0,0,0,0
1946,4,-7,-1,0,0,0,0,0
1947,3,-8,1,0,0,0,0,0
1948,3,-8,0,0,0,0,0,0
1949,3,-7,-1,0,0,0,0,0
1950,2,-7,-1,0,0,0,0,0
1951,3,-7,0,0,0,0,0,0
1952,2,-8,0,0,0,0,0,0
1953,3,-6,0,0,0,0,0,0
1954,3,-7,-1,0,0,0,0,0
1955,1,-8,-1,0,0,0,0,0
1956,1,-8,0,0,0,0,0,0
1957,3,-7,1,0,0,0,0,0
1958,3,-7,-1,0,0,0,0,0
1959,2,-7,0,0,0,0,0,0
1960,4,-7,-1,0,0,0,0,0
1961,3,-7,1,0,0,0,0,0
1962,3,-7,-1,0,0,0,0,0
1963,3,-7,0,0,0,0,0,0
1964,3,-6,0,0,0,0,0,0
1965,3,-7,0,0,0,0,0,0
1966,2,-8,0,0,0,0,0,0
1967,3,-6,-1,0,0,0,0,0
1968,3,-7,1,0,0,0,0,0
1969,3,-7,-1,0,0,0,0,0
1970,1,-7,1,0,0,0,0,0
1971,3,-9,-1,0,0,0,0,0
1972,3,-8,1,0,0,0,0,0
1973,2,-7,-1,0,0,0,0,0
1974,2,-8,0,0,0,0,0,0
1975,1,-7,-1,0,0,0,0,0
1976,3,-8,0,0,0,0,0,0
1977,3,-8,0,0,0,0,0,0
1978,3,-7,-2,0,0,0,0,0
1979,1,-7,0,0,0,0,0,0
1980,2,-8,1,0,0,0,0,0
1981,3,-8,0,0,0,0,0,0
1982,2,-7,0,0,0,0,0,0
1983,3,-7,0,0,0,0,0,0
1984,1,-6,1,0,0,0,0,0
1985,2,-7,0,0,0,0,0,0
1986,4,-9,0,0,0,0,0,0
1987,1,-8,-1,0,0,0,0,0
1988,2,-7,-1,0,0,0,0,0
1989,3,-8,-2,0,0,0,0,0
1990,3,-7,255,0,0,0,0,0
1991,3,-7,0,0,0,0,0,0
1992,2,-7,0,0,0,0,0,0
1993,2,-6,-1,0,0,0,0,0
1994,2,-7,1,0,0,0,0,0
1995,3,-6,0,0,0,0,0,0
1996,2,-9,-1,0,0,0,0,0
1997,2,-9,-1,0,0,0,0,0
1998,4,-5,2,0,0,0,0,0
1999,2,-8,0,0,0,0,0,0
2000,4,-8,-1,0,0,0,0,0
2001,2,-5,-2,0,0,0,0,0
2002,3,-7,0,0,0,0,0,0
2003,3,-7,0,0,0,0,0,0
2004,3,-7,0,0,0,0,0,0
2005,1,-9,-2,0,0,0,0,0
2006,4,-8,-1,0,0,0,0,0
2007,2,-7,0,0,0,0,0,0
2008,2,-7,0,0,0,0,0,0
2009,2,-7,0,0,0,0,0,0
2010,3,-8,0,0,0,0,0,0
2011,3,-7,-1,0,0,0,0,0
2012,2,-9,0,0,0,0,0,0
2013,4,-6,0,0,0,0,0,0
2014,5,-7,0,0,0,0,0,0
2015,3,-6,0,0,0,0,0,0
2016,3,-7,-1,0,0,0,0,0
2017,4,-7,0,0,0,0,0,0
2018,4,-6,0,0,0,0,0,0
2019,4,-7,1,0,0,0,0,0
2020,2,-7,-1,0,0,0,0,0
2021,1,-7,0,0,0,0,0,0
2022,3,-7,0,0,0,0,0,0
2023,3,-8,-1,0,0,0,0,0
2024,3,-7,0,0,0,0,0,0
2025,3,-8,0,0,0,0,0,0
2026,2,-8,-1,0,0,0,0,0
2027,4,-7,0,0,0,0,0,0
2028,3,-7,0,0,0,0,0,0
2029,3,-7,-1,0,0,0,0,0
2030,3,-7,-1,0,0,0,0,0
2031,2,-8,0,0,0,0,0,0
2032,2,-9,-1,0,0,0,0,0
2033,2,-7,1,0,0,0,0,0
2034,3,-8,-1,0,0,0,0,0
2035,3,-8,0,0,0,0,0,0
2036,3,-8,-1,0,0,0,0,0
2037,2,-6,0,0,0,0,0,0
2038,3,-7,-1,0,0,0,0,0
2039,3,-6,0,0,0,0,0,0
2040,1,-7,0,0,0,0,0,0
2041,3,-7,0,0,0,0,0,0
2042,2,-8,-1,0,0,0,0,0
2043,3,-8,-1,0,0,0,0,0
2044,4,-7,0,0,0,0,0,0
2045,2,-7,0,0,0,0,0,0
2046,2,-7,0,0,0,0,0,0
2047,2,-7,-1,0,0,0,0,0
2048,3,-8,0,0,0,0,0,0
2049,3,-8,-1,0,0,0,0,0
2050,3,-8,0,0,0,0,0,0
2051,4,-7,0,0,0,0,0,0
2052,3,-7,-1,0,0,0,0,0
2053,3,-7,-1,0,0,0,0,0
2054,2,-6,-1,0,0,0,0,0
2055,4,-7,-1,0,0,0,0,0
2056,3,-8,1,0,0,0,0,0
2057,2,-7,0,0,0,0,0,0
2058,1,-8,0,0,0,0,0,0
2059,4,-8,0,0,0,0,0,0
2060,2,-7,-1,0,0,0,0,0
2061,2,-8,-2,0,0,0,0,0
2062,3,-8,1,0,0,0,0,0
2063,1,-7,0,0,0,0,0,0
2064,1,-7,-1,0,0,0,0,0
2065,2,-8,-1,0,0,0,0,0
2066,4,-7,0,0,0,0,0,0
2067,5,-7,-1,0,0,0,0,0
2068,3,-7,1,0,0,0,0,0
2069,3,-6,1,0,0,0,0,0
2070,2,-7,0,0,0,0,0,0
2071,3,-9,-1,0,0,0,0,0
2072,2,-8,0,0,0,0,0,0
2073,5,-7,0,0,0,0,0,0
2074,3,-7,-1,0,0,0,0,0
2075,0,-6,-1,0,0,0,0,0
2076,3,-8,0,0,0,0,0,0
2077,4,-6,0,0,0,0,0,0
2078,4,-7,-2,0,0,0,0,0
2079,2,-7,-1,0,0,0,0,0
2080,3,-8,1,0,0,0,0,0
2081,3,-7,0,0,0,0,0,0
2082,1,-7,0,0,0,0,0,0
2083,3,-5,-1,0,0,0,0,0
2084,2,-8,-1,0,0,0,0,0
2085,3,-7,0,0,0,0,0,0
2086,2,-7,0,0,0,0,0,0
2087,2,-7,-1,0,0,0,0,0
2088,3,-7,0,0,0,0,0,0
2089,2,-7,-2,0,0,0,0,0
2090,2,-7,-1,0,0,0,0,0
2091,3,-7,0,0,0,0,0,0
2092,3,-6,0,0,0,0,0,0
2093,3,-8,0,0,0,0,0,0
2094,4,-8,-1,0,0,0,0,0
2095,4,-7,1,0,0,0,0,0
2096,2,-6,-1,0,0,0,0,0
2097,3,-6,0,0,0,0,0,0
2098,2,-8,1,0,0,0,0,0
2099,4,-8,0,0,0,0,0,0
2100,3,-7,0,0,0,0,0,0
2101,1,-7,-1,0,0,0,0,0
2102,1,-7,0,0,0,0,0,0
2103,2,-8,1,0,0,0,0,0
2104,1,-8,0,0,0,0,0,0
2105,3,-6,0,0,0,0,0,0
2106,4,-8,0,0,0,0,0,0
2107,4,-7,0,0,0,0,0,0
2108,2,-7,1,0,0,0,0,0
2109,2,-7,0,0,0,0,0,0
2110,2,-8,0,0,0,0,0,0
2111,3,-7,-1,0,0,0,0,0
2112,2,-8,0,0,0,0,0,0
2113,4,-7,-1,0,0,0,0,0
2114,2,-8,-1,0,0,0,0,0
2115,3,-9,0,0,0,0,0,0
2116,2,-7,1,0,0,0,0,0
2117,3,-8,0,0,0,0,0,0
2118,4,-8,-1,0,0,0,0,0
2119,3,-7,0,0,0,0,0,0
2120,2,-8,-1,0,0,0,0,0
2121,2,-8,-1,0,0,0,0,0
2122,2,-7,-1,0,0,0,0,0
2123,2,-8,-2,0,0,0,0,0
2124,3,-7,0,0,0,0,0,0
2125,3,-8,-1,0,0,0,0,0
2126,2,-6,0,0,0,0,0,0
2127,1,-8,0,0,0,0,0,0
2128,2,-6,0,0,0,0,0,0
2129,3,-7,0,0,0,0,0,0
2130,3,-8,0,0,0,0,0,0
2131,2,-9,0,0,0,0,0,0
2132,1,-7,0,0,0,0,0,0
2133,3,-8,0,0,0,0,0,0
2134,1,-7,-1,0,0,0,0,0
2135,3,-7,0,0,0,0,0,0
2136,4,-9,0,0,0,0,0,0
2137,4,-8,0,0,0,0,0,0
2138,0,-7,-1,0,0,0,0,0
2139,2,-7,0,0,0,0,0,0
2140,3,-6,0,0,0,0,0,0
2141,3,-8,1,0,0,0,0,0
2142,4,-7,0,0,0,0,0,0
2143,2,-8,0,0,0,0,0,0
2144,1,-7,0,0,0,0,0,0
2145,3,-7,-1,0,0,0,0,0
2146,3,-8,-2,0,0,0,0,0
2147,3,-6,0,0,0,0,0,0
2148,3,-6,0,0,0,0,0,0
2149,2,-7,-1,0,0,0,0,0
2150,3,-8,0,0,0,0,0,0
2151,1,-7,-2,0,0,0,0,0
2152,4,-7,0,0,0,0,0,0
2153,3,-9,1,0,0,0,0,0
2154,1,-8,-1,0,0,0,0,0
2155,1,-7,-1,0,0,0,0,0
2156,2,-6,0,0,0,0,0,0
2157,1,-8,-1,0,0,0,0,0
2158,3,-7,0,0,0,0,0,0
2159,4,-7,2,0,0,0,0,0
2160,3,-8,-1,0,0,0,0,0
2161,3,-8,0,0,0,0,0,0
2162,2,-7,0,0,0,0,0,0
2163,2,-6,-1,0,0,0,0,0
2164,2,-7,-2,0,0,0,0,0
2165,3,-8,0,0,0,0,0,0
2166,1,-6,-1,0,0,0,0,0
2167,5,-7,0,0,0,0,0,0
2168,2,-7,1,0,0,0,0,0
2169,3,-7,0,0,0,0,0,0
2170,3,-7,0,0,0,0,0,0
2171,1,-8,-1,0,0,0,0,0
2172,3,-6,0,0,0,0,0,0
2173,3,-8,1,0,0,0,0,0
2174,5,-7,-1,0,0,0,0,0
2175,3,-8,-1,0,0,0,0,0
2176,1,-7,0,0,0,0,0,0
2177,5,-6,0,0,0,0,0,0
2178,4,-8,-1,0,0,0,0,0
2179,3,-9,-1,0,0,0,0,0
2180,2,-7,0,0,0,0,0,0
2181,2,-7,1,0,0,0,0,0
2182,1,-8,0,0,0,0,0,0
2183,2,-8,-1,0,0,0,0,0
2184,2,-7,-1,0,0,0,0,0
2185,2,-7,0,0,0,0,0,0
2186,3,-6,0,0,0,0,0,0
2187,3,-7,-1,0,0,0,0,0
2188,2,-8,-1,0,0,0,0,0
2189,3,-9,-1,0,0,0,0,0
2190,2,-7,0,0,0,0,0,0
2191,4,-8,0,0,0,0,0,0
2192,2,-8,-1,0,0,0,0,0
2193,4,-8,0,0,0,0,0,0
2194,2,-7,-1,0,0,0,0,0
2195,2,-8,0,0,0,0,0,0
2196,2,-7,1,0,0,0,0,0
2197,3,-7,0,0,0,0,0,0
2198,3,-7,-1,0,0,0,0,0
2199,1,-8,0,0,0,0,0,0
2200,2,-7,1,0,0,0,0,0
2201,1,-7,-1,0,0,0,0,0
2202,3,-5,0,0,0,0,0,0
2203,5,-7,0,0,0,0,0,0
2204,2,-6,0,0,0,0,0,0
2205,3,-7,1,0,0,0,0,0
2206,2,-8,0,0,0,0,0,0
2207,3,-8,0,0,0,0,0,0
2208,2,-7,0,0,0,0,0,0
2209,3,-7,0,0,0,0,0,0
2210,3,-7,0,0,0,0,0,0
2211,3,-8,-1,0,0,0,0,0
2212,3,-7,-1,0,0,0,0,0
2213,2,-8,0,0,0,0,0,0
2214,4,-7,-1,0,0,0,0,0
2215,4,-8,-1,0,0,0,0,0
2216,1,-9,0,0,0,0,0,0
2217,1,-6,0,0,0,0,0,0
2218,3,-7,-1,0,0,0,0,0
2219,2,-7,-1,0,0,0,0,0
2220,2,-8,0,0,0,0,0,0
2221,5,-7,0,0,0,0,0,0
2222,5,-7,-1,0,0,0,0,0
2223,2,-8,0,0,0,0,0,0
2224,3,-7,0,0,0,0,0,0
2225,2,-7,0,0,0,0,0,0
2226,3,-6,-1,0,0,0,0,0
2227,3,-7,0,0,0,0,0,0
2228,4,-7,0,0,0,0,0,0
2229,3,-6,-1,0,0,0,0,0
2230,3,-8,1,0,0,0,0,0
2231,3,-7,-1,0,0,0,0,0
2232,2,-8,0,0,0,0,0,0
2233,2,-6,0,0,0,0,0,0
2234,3,-8,-1,0,0,0,0,0
2235,2,-8,-1,0,0,0,0,0
2236,3,-6,0,0,0,0,0,0
2237,4,-7,0,0,0,0,0,0
2238,3,-7,-1,0,0,0,0,0
2239,3,-6,0,0,0,0,0,0
2240,1,-8,0,0,0,0,0,0
2241,1,-8,0,0,0,0,0,0
2242,5,-8,-1,0,0,0,0,0
2243,1,-6,-1,0,0,0,0,0
2244,1,-6,1,0,0,0,0,0
2245,4,-6,2,0,0,0,0,0
2246,7,-11,1,0,0,0,0,0
2247,-1,-5,-5,0,0,0,0,0
2248,1,-8,0,0,0,0,0,0
2249,2,-8,3,0,0,0,0,0
2250,3,-7,0,0,0,0,0,0
2251,6,-5,0,0,0,0,0,0
2252,-4,-8,0,0,0,0,0,0
2253,4,-8,0,0,0,0,0,0
2254,6,-7,-2,0,0,0,0,0
2255,1,-8,254,0,0,0,0,0
2256,5,-7,1,0,0,0,0,0
2257,2,-9,0,0,0,0,0,0
2258,2,-8,-1,0,0,0,0,0
2259,4,-6,1,0,0,0,0,0
2260,4,-7,-1,0,0,0,0,0
2261,2,-7,-2,0,0,0,0,0
2262,5,-6,0,0,0,0,0,0
2263,2,-7,1,0,0,0,0,0
2264,2,-8,-1,0,0,0,0,0
2265,3,-8,-1,0,0,0,0,0
2266,2,-7,0,0,0,0,0,0
2267,3,-9,1,0,0,0,0,0
2268,3,-7,-1,0,0,0,0,0
2269,2,-8,0,0,0,0,0,0
2270,3,-8,0,0,0,0,0,0
2271,3,-8,-1,0,0,0,0,0
2272,3,-7,0,0,0,0,0,0
2273,3,-8,0,0,0,0,0,0
2274,5,-8,0,0,0,0,0,0
2275,5,-6,-1,0,0,0,0,0
2276,2,-7,0,0,0,0,0,0
2277,4,-8,1,0,0,0,0,0
2278,2,-7,-1,0,0,0,0,0
2279,3,-9,0,0,0,0,0,0
2280,3,-8,1,0,0,0,0,0
2281,3,-7,-1,0,0,0,0,0
2282,2,-7,-1,0,0,0,0,0
2283,3,-6,-1,0,0,0,0,0
2284,2,-8,0,0,0,0,0,0
2285,2,-6,0,0,0,0,0,0
2286,2,-7,0,0,0,0,0,0
2287,2,-7,0,0,0,0,0,0
2288,3,-8,0,0,0,0,0,0
2289,2,-5,0,0,0,0,0,0
2290,2,-8,0,0,0,0,0,0
2291,3,-8,0,0,0,0,0,0
2292,4,-7,0,0,0,0,0,0
2293,2,-7,0,0,0,0,0,0
2294,3,-7,-1,0,0,0,0,0
2295,3,-8,0,0,0,0,0,0
2296,1,-7,-1,0,0,0,0,0
2297,2,-8,0,0,0,0,0,0
2298,2,-7,0,0,0,0,0,0
2299,2,-7,-1,0,0,0,0,0
2300,2,-8,0,0,0,0,0,0
2301,2,-8,1,0,0,0,0,0
2302,1,-8,0,0,0,0,0,0
2303,2,-7,0,0,0,0,0,0
2304,3,-8,0,0,0,0,0,0
2305,2,-8,0,0,0,0,0,0
2306,3,-7,-1,0,0,0,0,0
2307,2,-7,0,0,0,0,0,0
2308,2,-8,-1,0,0,0,0,0
2309,3,-6,0,0,0,0,0,0
2310,3,-7,0,0,0,0,0,0
2311,2,-8,0,0,0,0,0,0
2312,4,-7,0,0,0,0,0,0
2313,3,-8,-1,0,0,0,0,0
2314,3,-7,0,0,0,0,0,0
2315,2,-9,0,0,0,0,0,0
2316,1,-7,0,0,0,0,0,0
2317,2,-7,1,0,0,0,0,0
2318,3,-8,0,0,0,0,0,0
2319,3,-7,0,0,0,0,0,0
2320,3,-6,-1,0,0,0,0,0
2321,3,-7,0,0,0,0,0,0
2322,2,-7,0,0,0,0,0,0
2323,3,-7,0,0,0,0,0,0
2324,3,-6,0,0,0,0,0,0
2325,2,-8,-1,0,0,0,0,0
2326,4,-8,0,0,0,0,0,0
2327,1,-8,-1,0,0,0,0,0
2328,3,-7,0,0,0,0,0,0
2329,2,-8,0,0,0,0,0,0
2330,3,-6,1,0,0,0,0,0
2331,3,-6,0,0,0,0,0,0
2332,3,-8,0,0,0,0,0,0
2333,3,-7,0,0,0,0,0,0
2334,5,-7,-1,0,0,0,0,0
2335,3,-7,0,0,0,0,0,0
2336,2,-7,0,0,0,0,0,0
2337,4,-9,-1,0,0,0,0,0
2338,3,-7,0,0,0,0,0,0
2339,3,-8,-2,0,0,0,0,0
2340,3,-7,0,0,0,0,0,0
2341,2,-7,1,0,0,0,0,0
2342,3,-8,-1,0,0,0,0,0
2343,4,-8,-1,0,0,0,0,0
2344,4,-9,0,0,0,0,0,0
2345,2,-7,1,0,0,0,0,0
2346,2,-7,-1,0,0,0,0,0
2347,3,-7,0,0,0,0,0,0
2348,1,-8,0,0,0,0,0,0
2349,3,-8,0,0,0,0,0,0
2350,4,-7,0,0,0,0,0,0
2351,4,-7,-1,0,0,0,0,0
2352,2,-7,-1,0,0,0,0,0
2353,3,-8,-1,0,0,0,0,0
2354,3,-7,-1,0,0,0,0,0
2355,3,-8,-1,0,0,0,0,0
2356,4,-8,0,0,0,0,0,0
2357,3,-7,0,0,0,0,0,0
2358,3,-8,0,0,0,0,0,0
2359,3,-8,-1,0,0,0,0,0
2360,4,-7,0,0,0,0,0,0
2361,5,-7,0,0,0,0,0,0
2362,3,-7,0,0,0,0,0,0
2363,2,-7,-1,0,0,0,0,0
2364,3,-7,1,0,0,0,0,0
2365,2,-8,0,0,0,0,0,0
2366,3,-8,-1,0,0,0,0,0
2367,2,-5,-1,0,0,0,0,0
2368,4,-7,0,0,0,0,0,0
2369,1,-7,1,0,0,0,0,0
2370,2,-9,-1,0,0,0,0,0
2371,3,-5,1,0,0,0,0,0
2372,3,-8,0,0,0,0,0,0
2373,2,-6,-1,0,0,0,0,0
2374,4,-6,0,0,0,0,0,0
2375,3,-7,1,0,0,0,0,0
2376,1,-7,0,0,0,0,0,0
2377,4,-7,0,0,0,0,0,0
2378,2,-7,-1,0,0,0,0,0
2379,2,-7,-1,0,0,0,0,0
2380,2,-9,-1,0,0,0,0,0
2381,4,-6,0,0,0,0,0,0
2382,3,-7,0,0,0,0,0,0
2383,2,-7,0,0,0,0,0,0
2384,4,-6,0,0,0,0,0,0
2385,3,-6,0,0,0,0,0,0
2386,2,-8,0,0,0,0,0,0
2387,3,-6,0,0,0,0,0,0
2388,3,-7,0,0,0,0,0,0
2389,3,-7,1,0,0,0,0,0
2390,4,-7,1,0,0,0,0,0
2391,3,-7,2,0,0,0,0,0
2392,3,-8,0,0,0,0,0,0
2393,4,-8,0,0,0,0,0,0
2394,4,-7,1,0,0,0,0,0
2395,3,-7,0,0,0,0,0,0
2396,2,-8,0,0,0,0,0,0
2397,1,-7,0,0,0,0,0,0
2398,4,-7,0,0,0,0,0,0
2399,1,-6,-1,0,0,0,0,0
2400,5,-6,-1,0,0,0,0,0
2401,2,-8,0,0,0,0,0,0
2402,2,-7,-1,0,0,0,0,0
2403,1,-7,0,0,0,0,0,0
2404,6,-6,-2,0,0,0,0,0
2405,3,-7,-1,0,0,0,0,0
2406,1,-7,-1,1,0,0,0,0
2407,1,-7,0,0,0,0,0,0
2408,3,-6,0,1,0,0,0,0
2409,1,-6,-1,0,0,0,0,0
2410,2,-7,0,0,0,0,0,0
2411,4,-6,1,0,0,0,0,0
2412,3,-8,-1,0,0,0,0,0
2413,0,-9,-1,0,0,0,0,0
2414,6,-8,0,0,0,0,0,0
2415,2,-9,0,0,0,0,0,0
2416,4,-9,0,0,0,0,0,0
2417,6,-8,0,0,0,0,0,0
2418,1,-7,0,0,0,0,0,0
2419,2,-7,1,0,0,0,0,0
2420,3,-6,-1,0,0,0,0,0
2421,2,-7,0,0,0,0,0,0
2422,3,-7,0,0,0,0,0,0
2423,2,-8,0,0,0,0,0,0
2424,4,-8,1,0,0,0,0,0
2425,3,-7,0,0,0,0,0,0
2426,2,-8,0,0,0,0,0,0
2427,1,-7,0,0,0,0,0,0
2428,3,-8,0,0,0,0,0,0
2429,1,-7,-1,0,0,0,0,0
2430,3,-8,0,0,0,0,0,0
2431,3,-8,1,0,0,0,0,0
2432,2,-7,0,0,0,0,0,0
2433,2,-8,-1,0,0,0,0,0
2434,2,-7,0,0,0,0,0,0
2435,3,-7,0,0,0,0,0,0
2436,4,-8,-1,0,0,0,0,0
2437,3,-9,0,0,0,0,0,0
2438,2,-8,-1,0,0,0,0,0
2439,3,-7,0,0,0,0,0,0
2440,2,-8,0,0,0,0,0,0
2441,5,-8,0,0,0,0,0,0
2442,3,-7,0,0,0,0,0,0
2443,2,-8,0,0,0,0,0,0
2444,2,-9,-1,0,0,0,0,0
2445,4,-7,-1,0,0,0,0,0
2446,1,-7,0,0,0,0,0,0
2447,2,-7,0,0,0,0,0,0
2448,4,-7,0,0,0,0,0,0
2449,3,-8,1,0,0,0,0,0
2450,3,-8,0,0,0,0,0,0
2451,3,-7,1,0,0,0,0,0
2452,1,-8,0,0,0,0,0,0
2453,1,-7,-1,0,0,0,0,0
2454,0,-8,0,0,0,0,0,0
2455,1,-8,-1,0,0,0,0,0
2456,1,-6,0,0,0,0,0,0
2457,3,-7,1,0,0,0,0,0
2458,1,-7,0,0,0,0,0,0
2459,4,-7,0,0,0,0,0,0
2460,3,-6,-1,0,0,0,0,0
2461,4,-7,0,0,0,0,0,0
2462,1,-8,0,0,0,0,0,0
2463,5,-7,-1,0,0,0,0,0
2464,2,-7,1,0,0,0,0,0
2465,1,-7,0,0,0,0,0,0
2466,3,-6,0,0,0,0,0,0
2467,3,-7,0,0,0,0,0,0
2468,2,-9,0,0,0,0,0,0
2469,3,-8,1,0,0,0,0,0
2470,15,1,-8,0,0,0,0,0
2471,-14,-10,4,0,0,0,0,0
2472,10,-8,-1,0,0,0,0,0
2473,5,-4,-2,0,0,0,0,0
2474,2,-7,2,0,0,0,0,0
2475,3,-6,1,0,0,0,0,0
2476,5,-7,-2,0,0,0,0,0
2477,2,-8,0,0,0,0,0,0
2478,6,-7,0,0,0,0,0,0
2479,3,-6,0,0,0,0,0,0
2480,2,-6,-2,0,0,0,0,0
2481,-254,-6,0,0,0,0,0,0
2482,1,-7,1,1,0,0,0,0
2483,5,-8,-1,0,0,0,0,0
2484,5,-7,1,0,0,0,0,0
2485,2,-7,0,1,0,0,0,0
2486,1,-9,1,0,0,0,0,0
2487,4,-8,0,1,0,0,0,0
2488,4,-7,0,0,0,0,0,0
2489,1,-8,-1,0,0,0,0,0
2490,1,-6,-2,0,0,0,0,0
2491,3,-8,0,0,0,0,0,0
2492,4,-8,0,0,0,0,0,0
2493,3,-7,1,0,0,0,0,0
2494,4,-6,-1,0,0,0,0,0
2495,-2,-10,-1,0,0,0,0,0
2496,5,-8,0,0,0,0,0,0
2497,3,-8,0,0,0,0,0,0
2498,4,-9,0,0,0,0,0,0
2499,2,-9,-2,0,0,0,0,0
2500,5,-8,-1,0,0,0,0,0
2501,3,-8,-1,0,0,0,0,0
2502,4,-7,-1,0,0,0,0,0
2503,2,-7,0,0,0,0,0,0
2504,3,-8,0,0,0,0,0,0
2505,2,-7,0,0,0,0,0,0
2506,3,-8,0,0,0,0,0,0
2507,3,-8,0,0,0,0,0,0
2508,2,-7,-1,0,0,0,0,0
2509,2,-7,0,0,0,0,0,0
2510,2,-7,0,0,0,0,0,0
2511,2,-8,0,0,0,0,0,0
2512,4,-8,0,0,0,0,0,0
2513,3,-7,0,0,0,0,0,0
2514,3,-6,0,0,0,0,0,0
2515,2,-7,0,0,0,0,0,0
2516,2,-6,0,0,0,0,0,0
2517,2,-8,0,0,0,0,0,0
2518,2,-8,0,1,0,0,0,0
2519,3,-8,-1,0,0,0,0,0
2520,3,-7,-1,0,0,0,0,0
2521,2,-8,-1,0,0,0,0,0
2522,1,-8,-1,1,0,0,0,0
2523,3,-7,0,0,0,0,0,0
2524,4,-7,0,0,0,0,0,0
2525,2,-6,0,0,0,0,0,0
2526,2,-8,1,0,0,0,0,0
2527,1,-8,-1,0,0,0,0,0
2528,1,-8,0,0,0,0,0,0
2529,2,-9,-1,0,0,0,0,0
2530,4,-6,-1,0,0,0,0,0
2531,3,-7,-1,0,0,0,0,0
2532,2,-7,0,0,0,0,0,0
2533,4,-8,0,0,0,0,0,0
2534,0,-6,-1,0,0,0,0,0
2535,2,-7,-1,0,0,0,0,0
2536,2,-7,0,0,0,0,0,0
2537,4,-7,0,0,0,0,0,0
2538,4,-7,-1,0,0,0,0,0
2539,1,-8,0,0,0,0,0,0
2540,5,-7,0,0,0,0,0,0
2541,0,-9,0,0,0,0,0,0
2542,3,-7,-1,0,0,0,0,0
2543,3,-7,-1,1,0,0,0,0
2544,4,-8,0,0,0,0,0,0
2545,0,-8,0,0,0,0,0,0
2546,3,-7,-1,0,0,0,0,0
2547,1,-6,0,0,0,0,0,0
2548,1,-6,-1,0,0,0,0,0
2549,3,-7,-1,0,0,0,0,0
2550,2,-6,0,0,0,0,0,0
2551,3,-7,1,0,0,0,0,0
2552,2,-7,-1,0,0,0,0,0
2553,2,-8,0,0,0,0,0,0
2554,3,-7,0,0,0,0,0,0
2555,3,-8,-1,0,0,0,0,0
2556,3,-7,1,0,0,0,0,0
2557,2,-9,0,0,0,0,0,0
2558,3,-8,0,0,0,0,0,0
2559,3,-7,1,0,0,0,0,0
2560,3,-8,0,0,0,0,0,0
2561,3,-8,0,0,0,0,0,0
2562,4,-7,0,0,0,0,0,0
2563,2,-7,0,0,0,0,0,0
2564,3,-7,-1,0,0,0,0,0
2565,5,-7,0,0,0,0,0,0
2566,2,-7,0,0,0,0,0,0
2567,3,-7,0,0,0,0,0,0
2568,4,-8,-1,0,0,0,0,0
2569,4,-8,-1,0,0,0,0,0
2570,1,-7,0,0,0,0,0,0
2571,3,-8,0,0,0,0,0,0
2572,5,-7,1,0,0,0,0,0
2573,0,-7,0,0,0,0,0,0
2574,4,-8,0,0,0,0,0,0
2575,4,-6,0,0,0,0,0,0
2576,3,-7,0,0,0,0,0,0
2577,4,-8,-1,0,0,0,0,0
2578,3,-8,-1,0,0,0,0,0
2579,3,-9,255,0,0,0,0,0
2580,2,-8,0,0,0,0,0,0
2581,2,-8,0,0,0,0,0,0
2582,2,-7,-1,0,0,0,0,0
2583,4,-6,-1,0,0,0,0,0
2584,1,-9,-1,0,0,0,0,0
2585,3,-6,0,1,0,0,0,0
2586,3,-7,-1,0,0,0,0,0
2587,2,-7,0,0,0,0,0,0
2588,3,-8,1,0,0,0,0,0
2589,2,-6,0,0,0,0,0,0
2590,2,-7,-1,0,0,0,0,0
2591,2,-8,-1,0,0,0,0,0
2592,3,-7,0,0,0,0,0,0
2593,2,-8,0,0,0,0,0,0
2594,3,-7,1,0,0,0,0,0
2595,2,-8,-1,0,0,0,0,0
2596,4,-8,-1,0,0,0,0,0
2597,2,-6,0,0,0,0,0,0
2598,4,-7,0,0,0,0,0,0
2599,4,-7,0,0,0,0,0,0
2600,2,-8,-1,0,0,0,0,0
2601,2,-8,-2,0,0,0,0,0
2602,3,-8,-1,0,0,0,0,0
2603,3,-8,0,0,0,0,0,0
2604,3,-7,0,0,0,0,0,0
2605,2,-7,0,0,0,0,0,0
2606,0,-10,-1,0,0,0,0,0
2607,2,-8,-1,0,0,0,0,0
2608,5,-7,1,0,0,0,0,0
2609,3,-8,1,0,0,0,0,0
2610,3,-7,0,0,0,0,0,0
2611,3,-8,-1,0,0,0,0,0
2612,1,-9,0,0,0,0,0,0
2613,4,-8,-1,0,0,0,0,0
2614,1,-7,0,0,0,0,0,0
2615,3,-7,-1,0,0,0,0,0
2616,2,-8,0,0,0,0,0,0
2617,5,-8,0,1,0,0,0,0
2618,1,-7,0,0,0,0,0,0
2619,2,-7,0,1,0,0,0,0
2620,3,-8,0,0,0,0,0,0
2621,1,-8,-1,0,0,0,0,0
2622,1,-7,0,0,0,0,0,0
2623,3,-8,0,0,0,0,0,0
2624,3,-7,0,0,0,0,0,0
2625,3,-7,-1,0,0,0,0,0
2626,5,-6,-1,0,0,0,0,0
2627,5,-7,-1,0,0,0,0,0
2628,4,-8,-1,0,0,0,0,0
2629,4,-7,-1,0,0,0,0,0
2630,3,-7,-1,0,0,0,0,0
2631,2,-7,0,0,0,0,0,0
2632,2,-7,0,0,0,0,0,0
2633,2,-8,0,0,0,0,0,0
2634,3,-7,0,0,0,0,0,0
2635,3,-7,0,0,0,0,0,0
2636,1,-7,0,0,0,0,0,0
2637,3,-7,0,0,0,0,0,0
2638,1,-8,0,0,0,0,0,0
2639,3,-7,0,0,0,0,0,0
2640,2,-8,0,0,0,0,0,0
2641,2,-8,-1,0,0,0,0,0
2642,3,-6,0,0,0,0,0,0
2643,1,-7,0,1,0,0,0,0
2644,2,-8,-1,0,0,0,0,0
2645,4,-7,-1,0,0,0,0,0
2646,0,-8,0,0,0,0,0,0
2647,4,-7,0,0,0,0,0,0
2648,3,-7,0,0,0,0,0,0
2649,3,-7,0,0,0,0,0,0
2650,2,-7,-1,0,0,0,0,0
2651,1,-8,0,0,0,0,0,0
2652,2,-7,0,0,0,0,0,0
2653,3,-8,-1,0,0,0,0,0
2654,3,-7,0,0,0,0,0,0
2655,3,-6,0,0,0,0,0,0
2656,-1,-9,0,0,0,0,0,0
2657,4,-7,-1,0,0,0,0,0
2658,1,-8,2,0,0,0,0,0
2659,2,-8,1,0,0,0,0,0
2660,1,-10,-1,0,0,0,0,0
2661,1,-7,0,0,0,0,0,0
2662,1,-7,-1,0,0,0,0,0
2663,5,-7,1,0,0,0,0,0
2664,3,-7,1,0,0,0,0,0
2665,3,-7,0,0,0,0,0,0
2666,2,-8,0,0,0,0,0,0
2667,1,-8,0,0,0,0,0,0
2668,2,-7,-1,0,0,0,0,0
2669,2,-9,-1,0,0,0,0,0
2670,2,-7,-2,0,0,0,0,0
2671,2,-7,0,0,0,0,0,0
2672,3,-8,-1,0,0,0,0,0
2673,2,-7,-1,0,0,0,0,0
2674,4,-8,0,0,0,0,0,0
2675,3,-7,1,0,0,0,0,0
2676,2,-7,0,0,0,0,0,0
2677,2,-7,-1,0,0,0,0,0
2678,3,-8,0,1,0,0,0,0
2679,15,-4,0,0,0,0,0,0
2680,-7,-11,6,0,0,0,0,0
2681,2,-7,4,0,0,0,0,0
2682,-1,-7,-2,0,0,0,0,0
2683,4,-7,-5,0,0,0,0,0
2684,2,-6,1,0,0,0,0,0
2685,1,-7,2,0,0,0,0,0
2686,3,-7,-1,0,0,0,0,0
2687,1,-8,-1,0,0,0,0,0
2688,5,-7,1,0,0,0,0,0
2689,1,-7,0,0,0,0,0,0
2690,2,-7,-256,0,0,0,0,0
2691,3,-7,-1,0,0,0,0,0
2692,2,-7,1,0,0,0,0,0
2693,4,-9,1,0,0,0,0,0
2694,4,-7,-1,0,0,0,0,0
2695,1,-9,-1,0,0,0,0,0
2696,2,-7,2,0,0,0,0,0
2697,4,-7,1,0,0,0,0,0
2698,4,-7,-1,0,0,0,0,0
2699,3,-6,0,0,0,0,0,0
2700,2,-7,0,0,0,0,0,0
2701,1,-7,-1,0,0,0,0,0
2702,4,-7,-2,0,0,0,0,0
2703,5,-5,0,0,0,0,0,0
2704,0,-8,1,0,0,0,0,0
2705,4,-6,-1,0,0,0,0,0
2706,2,-8,-1,0,0,0,0,0
2707,4,-6,-2,0,0,0,0,0
2708,0,-8,0,0,0,0,0,0
2709,3,-8,1,0,0,0,0,0
2710,1,-7,0,0,0,0,0,0
2711,3,-9,-1,0,0,0,0,0
2712,2,-8,0,0,0,0,0,0
2713,2,-9,0,0,0,0,0,0
2714,2,-7,-1,0,0,0,0,0
2715,4,-8,0,0,0,0,0,0
2716,2,-7,1,0,0,0,0,0
2717,1,-7,-1,0,0,0,0,0
2718,1,-7,-1,0,0,0,0,0
2719,2,-7,-1,0,0,0,0,0
2720,2,-8,-1,0,0,0,0,0
2721,6,-8,-1,0,0,0,0,0
2722,2,-7,0,0,0,0,0,0
2723,4,-9,-2,0,0,0,0,0
2724,0,-7,-1,0,0,0,0,0
2725,3,-8,0,0,0,0,0,0
2726,4,-8,-1,0,0,0,0,0
2727,1,-7,0,0,0,0,0,0
2728,2,-7,0,0,0,0,0,0
2729,2,-6,1,0,0,0,0,0
2730,4,-6,0,0,0,0,0,0
2731,4,-8,1,0,0,0,0,0
2732,3,-7,1,0,0,0,0,0
2733,3,-8,-1,0,0,0,0,0
2734,4,-8,0,0,0,0,0,0
2735,3,-7,1,0,0,0,0,0
2736,1,-8,0,0,0,0,0,0
2737,2,-7,-1,0,0,0,0,0
2738,3,-8,0,0,0,0,0,0
2739,4,-7,0,0,0,0,0,0
2740,3,-8,1,0,0,0,0,0
2741,2,-7,1,0,0,0,0,0
2742,2,-7,0,0,0,0,0,0
2743,4,-8,0,0,0,0,0,0
2744,0,-8,-1,0,0,0,0,0
2745,4,-7,0,0,0,0,0,0
2746,2,-9,-2,0,0,0,0,0
2747,3,-8,0,0,0,0,0,0
2748,2,-8,1,0,0,0,0,0
2749,1,-9,0,0,0,0,0,0
2750,1,-8,-1,0,0,0,0,0
2751,4,-6,0,1,0,0,0,0
2752,4,-6,-1,0,0,0,0,0
2753,3,-6,0,1,0,0,0,0
2754,4,-9,0,0,0,0,0,0
2755,3,-7,0,0,0,0,0,0
2756,3,-6,0,0,0,0,0,0
2757,0,-7,-1,0,0,0,0,0
2758,4,-9,0,0,0,0,0,0
2759,3,-7,0,0,0,0,0,0
2760,4,-7,0,0,0,0,0,0
2761,1,-8,0,0,0,0,0,0
2762,3,-8,0,0,0,0,0,0
2763,3,-8,-1,0,0,0,0,0
2764,4,-7,0,0,0,0,0,0
2765,4,-10,0,0,0,0,0,0
2766,2,-7,-1,0,0,0,0,0
2767,4,-7,-1,0,0,0,0,0
2768,3,-8,-1,0,0,0,0,0
2769,4,-7,0,0,0,0,0,0
2770,2,-7,-1,0,0,0,0,0
2771,3,-7,0,0,0,0,0,0
2772,2,-7,0,0,0,0,0,0
2773,3,-7,0,0,0,0,0,0
2774,3,-8,1,1,0,0,0,0
2775,0,-8,-1,0,0,0,0,0
2776,2,-6,0,1,0,0,0,0
2777,4,-6,0,0,0,0,0,0
2778,2,-7,0,0,0,0,0,0
2779,3,-7,0,0,0,0,0,0
2780,2,-6,0,0,0,0,0,0
2781,3,-7,-1,0,0,0,0,0
2782,-1,-8,-1,0,0,0,0,0
2783,2,-7,0,0,0,0,0,0
2784,3,-7,0,0,0,0,0,0
2785,5,-7,-1,0,0,0,0,0
2786,-1,-9,0,0,0,0,0,0
2787,0,-7,-1,0,0,0,0,0
2788,2,-7,0,0,0,0,0,0
2789,4,-7,0,0,0,0,0,0
2790,2,-8,-2,0,0,0,0,0
2791,3,-7,-1,0,0,0,0,0
2792,3,-8,-1,0,0,0,0,0
2793,3,-8,-1,0,0,0,0,0
2794,3,-7,-1,0,0,0,0,0
2795,2,-7,0,0,0,0,0,0
2796,2,-8,1,0,0,0,0,0
2797,0,-8,-1,0,0,0,0,0
2798,2,-8,1,0,0,0,0,0
2799,3,-7,-1,0,0,0,0,0
2800,3,-7,1,0,0,0,0,0
2801,2,-8,0,0,0,0,0,0
2802,2,-7,0,0,0,0,0,0
2803,3,-7,0,0,0,0,0,0
2804,2,-6,0,0,0,0,0,0
2805,4,-8,0,1,0,0,0,0
2806,3,-9,-1,0,0,0,0,0
2807,4,-8,-1,0,0,0,0,0
2808,3,-7,0,0,0,0,0,0
2809,2,-7,0,0,0,0,0,0
2810,2,-8,0,0,0,0,0,0
2811,-242,-7,1,0,0,0,0,0
2812,-20,-20,2,0,0,0,0,0
2813,13,0,-1,0,0,0,0,0
2814,15,-9,0,0,0,0,0,0
2815,-11,-7,-3,0,0,0,0,0
2816,2,-10,1,0,0,0,0,0
2817,1,-6,0,0,0,0,0,0
2818,0,-9,-1,0,0,0,0,0
2819,1,-7,0,0,0,0,0,0
2820,0,-10,-2,0,0,0,0,0
2821,11,-9,2,0,0,0,0,0
2822,6,-9,0,0,0,0,0,0
2823,2,-7,-1,0,0,0,0,0
2824,5,-7,1,0,0,0,0,0
2825,10,-13,0,0,0,0,0,0
2826,-1,-2,1,0,0,0,0,0
2827,8,-9,1,0,0,0,0,0
2828,-2,-4,-1,0,0,0,0,0
2829,5,-9,0,0,0,0,0,0
2830,1,-5,-2,0,0,0,0,0
2831,4,-7,0,0,0,0,0,0
2832,4,-5,0,0,0,0,0,0
2833,2,-8,-1,0,0,0,0,0
2834,2,-6,0,0,0,0,0,0
2835,3,-7,0,0,0,0,0,0
2836,5,-7,0,0,0,0,0,0
2837,2,-8,0,0,0,0,0,0
2838,4,-6,0,0,0,0,0,0
2839,3,-8,0,0,0,0,0,0
2840,4,-6,0,0,0,0,0,0
2841,3,-8,0,1,0,0,0,0
2842,2,-9,0,0,0,0,0,0
2843,2,-7,0,0,0,0,0,0
2844,4,-8,0,0,0,0,0,0
2845,2,-6,1,0,0,0,0,0
2846,3,-6,-1,0,0,0,0,0
2847,3,-8,0,0,0,0,0,0
2848,1,-8,0,0,0,0,0,0
2849,2,-7,1,0,0,0,0,0
2850,2,-8,0,0,0,0,0,0
2851,1,-7,0,0,0,0,0,0
2852,2,-9,0,0,0,0,0,0
2853,3,-8,-256,0,0,0,0,0
2854,4,-7,0,0,0,0,0,0
2855,5,-6,0,0,0,0,0,0
2856,4,-8,0,0,0,0,0,0
2857,4,-7,0,0,0,0,0,0
2858,2,-8,-1,0,0,0,0,0
2859,5,-9,0,0,0,0,0,0
2860,2,-7,1,0,0,0,0,0
2861,3,-7,-1,0,0,0,0,0
2862,2,-7,0,0,0,0,0,0
2863,4,-9,0,0,0,0,0,0
2864,2,-6,-1,0,0,0,0,0
2865,2,-7,0,0,0,0,0,0
2866,2,-8,-1,0,0,0,0,0
2867,3,-8,-1,0,0,0,0,0
2868,3,-7,0,0,0,0,0,0
2869,2,-7,0,0,0,0,0,0
2870,2,-9,0,0,0,0,0,0
2871,3,-7,-1,0,0,0,0,0
2872,3,-8,-1,0,0,0,0,0
2873,2,-7,-1,0,0,0,0,0
2874,3,-5,-2,0,0,0,0,0
2875,3,-8,0,0,0,0,0,0
2876,3,-9,0,0,0,0,0,0
2877,2,-8,-1,0,0,0,0,0
2878,4,-8,0,0,0,0,0,0
2879,3,-9,0,0,0,0,0,0
2880,2,-8,-1,0,0,0,0,0
2881,4,-8,-1,0,0,0,0,0
2882,2,-6,0,0,0,0,0,0
2883,5,-6,-1,0,0,0,0,0
2884,2,-8,0,0,0,0,0,0
2885,3,-7,-1,0,0,0,0,0
2886,3,-7,-2,0,0,0,0,0
2887,3,-8,0,0,0,0,0,0
2888,3,-7,1,0,0,0,0,0
2889,2,-7,0,0,0,0,0,0
2890,3,-7,0,0,0,0,0,0
2891,2,-8,0,0,0,0,0,0
2892,1,-9,0,0,0,0,0,0
2893,2,-7,-1,0,0,0,0,0
2894,2,-7,0,0,0,0,0,0
2895,3,-7,-1,0,0,0,0,0
2896,3,-8,-1,0,0,0,0,0
2897,1,-7,0,0,0,0,0,0
2898,3,-8,0,0,0,0,0,0
2899,2,-8,-1,0,0,0,0,0
2900,1,-8,-1,1,0,0,0,0
2901,3,-8,0,0,0,0,0,0
2902,3,-8,0,0,0,0,0,0
2903,3,-8,-1,0,0,0,0,0
2904,2,-6,0,0,0,0,0,0
2905,-1,-8,0,0,0,0,0,0
2906,1,-8,-2,0,0,0,0,0
2907,2,-8,0,0,0,0,0,0
2908,3,-7,0,0,0,0,0,0
2909,3,-6,1,0,0,0,0,0
2910,2,-8,0,0,0,0,0,0
2911,4,-8,1,0,0,0,0,0
2912,4,-7,2,0,0,0,0,0
2913,6,-7,1,0,0,0,0,0
2914,2,-6,-1,0,0,0,0,0
2915,4,-7,0,0,0,0,0,0
2916,2,-8,1,0,0,0,0,0
2917,3,-9,0,0,0,0,0,0
2918,3,-7,-2,1,0,0,0,0
2919,2,-6,1,0,0,0,0,0
2920,4,-8,1,0,0,0,0,0
2921,3,-7,-1,0,0,0,0,0
2922,2,-7,0,0,0,0,0,0
2923,2,-9,1,0,0,0,0,0
2924,2,-7,-1,0,0,0,0,0
2925,3,-8,-1,0,0,0,0,0
2926,2,-8,-1,0,0,0,0,0
2927,3,-9,0,0,0,0,0,0
2928,3,-7,1,0,0,0,0,0
2929,3,-7,0,0,0,0,0,0
2930,3,-7,0,0,0,0,0,0
2931,4,-7,0,0,0,0,0,0
2932,1,-8,-1,0,0,0,0,0
2933,4,-8,0,0,0,0,0,0
2934,2,-7,0,0,0,0,0,0
2935,4,-8,0,0,0,0,0,0
2936,4,-8,1,0,0,0,0,0
2937,3,-7,0,0,0,0,0,0
2938,2,-6,0,0,0,0,0,0
2939,1,-7,-1,1,0,0,0,0
2940,3,-7,-1,0,0,0,0,0
2941,2,-7,-1,0,0,0,0,0
2942,2,-6,-1,0,0,0,0,0
2943,2,-6,-1,0,0,0,0,0
2944,3,-8,-1,0,0,0,0,0
2945,2,-9,0,0,0,0,0,0
2946,1,-8,-1,0,0,0,0,0
2947,3,-8,-1,0,0,0,0,0
2948,2,-7,0,0,0,0,0,0
2949,3,-7,0,0,0,0,0,0
2950,3,-7,-1,0,0,0,0,0
2951,2,-9,0,0,0,0,0,0
2952,3,-8,0,0,0,0,0,0
2953,3,-7,0,0,0,0,0,0
2954,4,-8,0,0,0,0,0,0
2955,2,-7,-1,0,0,0,0,0
2956,3,-7,0,1,0,0,0,0
2957,2,-6,-1,0,0,0,0,0
2958,2,-8,1,0,0,0,0,0
2959,4,-7,0,0,0,0,0,0
2960,2,-8,-1,0,0,0,0,0
2961,8,-7,-2,0,0,0,0,0
2962,-4,-9,-1,0,0,0,0,0
2963,6,-7,-2,0,0,0,0,0
2964,0,-9,-1,0,0,0,0,0
2965,5,-8,-1,0,0,0,0,0
2966,8,-6,-1,0,0,0,0,0
2967,-4,-9,1,0,0,0,0,0
2968,8,-8,1,0,0,0,0,0
2969,4,-7,0,0,0,0,0,0
2970,2,-9,-1,0,0,0,0,0
2971,6,-7,-1,0,0,0,0,0
2972,3,-6,0,0,0,0,0,0
2973,2,-6,0,1,0,0,0,0
2974,3,-7,0,0,0,0,0,0
2975,3,-9,0,0,0,0,0,0
2976,0,-5,-1,0,0,0,0,0
2977,3,-7,-1,0,0,0,0,0
2978,2,-6,0,0,0,0,0,0
2979,3,-7,0,0,0,0,0,0
2980,1,-7,0,0,0,0,0,0
2981,4,-7,1,0,0,0,0,0
2982,3,-7,0,0,0,0,0,0
2983,3,-7,0,0,0,0,0,0
2984,3,-7,0,0,0,0,0,0
2985,2,-7,0,0,0,0,0,0
2986,1,-8,-1,0,0,0,0,0
2987,3,-6,0,0,0,0,0,0
2988,3,-7,1,0,0,0,0,0
2989,4,-7,-1,0,0,0,0,0
2990,3,-6,0,0,0,0,0,0
2991,2,-8,0,0,0,0,0,0
2992,3,-7,0,0,0,0,0,0
2993,3,-6,0,0,0,0,0,0
2994,3,-7,0,0,0,0,0,0
2995,2,-8,0,0,0,0,0,0
2996,1,-8,0,0,0,0,0,0
2997,3,-9,0,0,0,0,0,0
2998,5,-7,0,0,0,0,0,0
2999,2,-8,0,0,0,0,0,0
3000,2,-9,0,0,0,0,0,0
3001,1,-7,-1,0,0,0,0,0
3002,2,-8,-2,0,0,0,0,0
3003,4,-7,0,0,0,0,0,0
3004,2,-8,0,0,0,0,0,0
3005,3,-6,0,0,0,0,0,0
3006,3,-7,-1,0,0,0,0,0
3007,2,-8,-1,0,0,0,0,0
3008,4,-5,-1,1,0,0,0,0
3009,2,-8,-1,0,0,0,0,0
3010,2,-9,-1,0,0,0,0,0
3011,-6,-11,0,0,0,0,0,0
3012,6,-7,-1,0,0,0,0,0
3013,1,-7,0,0,0,0,0,0
3014,3,-7,-1,0,0,0,0,0
3015,5,-7,0,0,0,0,0,0
3016,3,-8,-1,0,0,0,0,0
3017,4,-6,0,0,0,0,0,0
3018,4,-5,-1,0,0,0,0,0
3019,-1,-8,-1,0,0,0,0,0
3020,5,-6,-1,0,0,0,0,0
3021,1,-9,0,0,0,0,0,0
3022,3,-9,0,0,0,0,0,0
3023,11,-8,1,1,0,0,0,0
3024,26,-1,-3,0,0,0,0,0
3025,3,-6,2,0,0,0,0,0
3026,10,-7,-1,0,0,0,0,0
3027,-2,-7,-256,0,0,0,0,0
3028,1,-9,0,0,0,0,0,0
3029,3,-7,0,0,0,0,0,0
3030,3,-8,0,0,0,0,0,0
3031,2,-8,-1,0,0,0,0,0
3032,4,-7,-2,0,0,0,0,0
3033,4,-6,0,0,0,0,0,0
3034,2,-8,1,0,0,0,0,0
3035,3,-9,-1,0,0,0,0,0
3036,3,-7,0,0,0,0,0,0
3037,4,-5,0,0,0,0,0,0
3038,4,-5,-1,0,0,0,0,0
3039,3,-9,1,0,0,0,0,0
3040,2,-5,0,0,0,0,0,0
3041,3,-7,1,0,0,0,0,0
3042,3,-5,1,1,0,0,0,0
3043,2,-9,0,0,0,0,0,0
3044,2,-6,255,0,0,0,0,0
3045,1,-8,1,0,0,0,0,0
3046,2,-6,0,0,0,0,0,0
3047,2,-8,0,0,0,0,0,0
3048,4,-7,0,0,0,0,0,0
3049,2,-8,0,0,0,0,0,0
3050,4,-6,0,0,0,0,0,0
3051,3,-8,0,0,0,0,0,0
3052,3,-7,0,0,0,0,0,0
3053,4,-8,0,0,0,0,0,0
3054,2,-8,-1,0,0,0,0,0
3055,2,-8,0,0,0,0,0,0
3056,2,-7,-1,0,0,0,0,0
3057,1,-8,0,0,0,0,0,0
3058,4,-7,0,0,0,0,0,0
3059,2,-7,-1,0,0,0,0,0
3060,2,-8,-1,0,0,0,0,0
3061,3,-7,0,0,0,0,0,0
3062,2,-7,0,0,0,0,0,0
3063,4,-7,-1,0,0,0,0,0
3064,3,-8,-1,0,0,0,0,0
3065,3,-7,0,0,0,0,0,0
3066,7,-7,0,0,0,0,0,0
3067,3,-7,0,0,0,0,0,0
3068,4,-7,0,0,0,0,0,0
3069,4,-7,-1,0,0,0,0,0
3070,3,-8,0,0,0,0,0,0
3071,2,-9,1,0,0,0,0,0
3072,1,-9,0,1,0,0,0,0
3073,3,-7,1,0,0,0,0,0
3074,3,-8,-1,0,0,0,0,0
3075,3,-7,0,0,0,0,0,0
3076,2,-8,0,0,0,0,0,0
3077,3,-7,0,0,0,0,0,0
3078,4,-8,0,0,0,0,0,0
3079,2,-8,-1,0,0,0,0,0
3080,3,-8,-1,0,0,0,0,0
3081,4,-6,0,0,0,0,0,0
3082,2,-7,0,0,0,0,0,0
3083,3,-7,0,0,0,0,0,0
3084,3,-6,0,0,0,0,0,0
3085,4,-8,1,0,0,0,0,0
3086,2,-8,0,0,0,0,0,0
3087,2,-6,1,0,0,0,0,0
3088,1,-6,0,0,0,0,0,0
3089,3,-6,1,0,0,0,0,0
3090,4,-8,-1,0,0,0,0,0
3091,2,-9,-1,0,0,0,0,0
3092,3,-7,0,0,0,0,0,0
3093,3,-8,-1,0,0,0,0,0
3094,4,-6,0,0,0,0,0,0
3095,4,-8,1,0,0,0,0,0
3096,3,-8,0,0,0,0,0,0
3097,2,-7,-1,0,0,0,0,0
3098,3,-7,-1,0,0,0,0,0
3099,2,-6,0,0,0,0,0,0
3100,2,-7,0,0,0,0,0,0
3101,3,-6,1,0,0,0,0,0
3102,4,-8,0,0,0,0,0,0
3103,3,-7,0,0,0,0,0,0
3104,4,-8,0,0,0,0,0,0
3105,3,-8,-1,0,0,0,0,0
3106,6,-7,-1,0,0,0,0,0
3107,1,-6,-1,0,0,0,0,0
3108,6,-4,-1,0,0,0,0,0
3109,1,-8,0,0,0,0,0,0
3110,4,-6,1,0,0,0,0,0
3111,1,-7,-1,0,0,0,0,0
3112,1,-6,-1,1,0,0,0,0
3113,2,-7,0,0,0,0,0,0
3114,4,-8,-1,0,0,0,0,0
3115,3,-7,0,0,0,0,0,0
3116,3,-7,-1,0,0,0,0,0
3117,3,-7,1,0,0,0,0,0
3118,4,-7,-1,0,0,0,0,0
3119,1,-7,1,0,0,0,0,0
3120,2,-8,0,0,0,0,0,0
3121,2,-8,0,0,0,0,0,0
3122,3,-7,-1,0,0,0,0,0
3123,2,-7,0,0,0,0,0,0
3124,2,-8,0,0,0,0,0,0
3125,2,-7,1,0,0,0,0,0
3126,2,-7,0,0,0,0,0,0
3127,2,-7,-1,0,0,0,0,0
3128,-11,-7,0,0,0,0,0,0
3129,2,-8,0,0,0,0,0,0
3130,-1,-6,-1,0,0,0,0,0
3131,6,-7,-2,0,0,0,0,0
3132,-2,-8,0,0,0,0,0,0
3133,4,-9,1,0,0,0,0,0
3134,4,-7,1,0,0,0,0,0
3135,5,-7,-2,0,0,0,0,0
3136,2,-6,-2,0,0,0,0,0
3137,6,-7,0,0,0,0,0,0
3138,2,-7,0,0,0,0,0,0
3139,4,-7,-1,0,0,0,0,0
3140,1,-7,0,0,0,0,0,0
3141,3,-9,-1,0,0,0,0,0
3142,3,-8,0,0,0,0,0,0
3143,1,-7,1,0,0,0,0,0
3144,3,-7,-256,1,0,0,0,0
3145,2,-5,-1,0,0,0,0,0
3146,4,-6,-1,0,0,0,0,0
3147,5,-6,-2,0,0,0,0,0
3148,2,-6,-1,0,0,0,0,0
3149,3,-7,0,0,0,0,0,0
3150,3,-6,0,0,0,0,0,0
3151,3,-8,0,0,0,0,0,0
3152,4,-8,0,0,0,0,0,0
3153,2,-7,0,0,0,0,0,0
3154,3,-7,0,0,0,0,0,0
3155,4,-6,0,0,0,0,0,0
3156,2,-8,-1,0,0,0,0,0
3157,2,-6,-1,0,0,0,0,0
3158,-3,-8,-1,0,0,0,0,0
3159,-6,-9,-2,0,0,0,0,0
3160,6,-6,0,0,0,0,0,0
3161,2,-6,1,0,0,0,0,0
3162,3,-9,1,0,0,0,0,0
3163,2,-7,1,0,0,0,0,0
3164,3,-7,0,0,0,0,0,0
3165,5,-8,0,0,0,0,0,0
3166,4,-7,0,0,0,0,0,0
3167,5,-8,-1,0,0,0,0,0
3168,2,-7,-1,0,0,0,0,0
3169,3,-8,-1,0,0,0,0,0
3170,3,-7,0,0,0,0,0,0
3171,3,-7,-1,0,0,0,0,0
3172,3,-7,-1,0,0,0,0,0
3173,2,-6,0,0,0,0,0,0
3174,5,-6,-1,0,0,0,0,0
3175,2,-5,-1,0,0,0,0,0
3176,2,-8,-1,0,0,0,0,0
3177,3,-7,0,0,0,0,0,0
3178,0,-9,0,0,0,0,0,0
3179,4,-6,0,1,0,0,0,0
3180,1,-8,1,0,0,0,0,0
3181,2,-8,-1,0,0,0,0,0
3182,2,-6,0,0,0,0,0,0
3183,3,-7,-1,0,0,0,0,0
3184,1,-8,0,0,0,0,0,0
3185,3,-9,0,0,0,0,0,0
3186,1,-7,-1,0,0,0,0,0
3187,3,-9,-1,0,0,0,0,0
3188,2,-6,0,0,0,0,0,0
3189,3,-8,0,0,0,0,0,0
3190,2,-7,-3,0,0,0,0,0
3191,2,-8,-1,0,0,0,0,0
3192,4,-8,0,0,0,0,0,0
3193,4,-7,0,0,0,0,0,0
3194,2,-7,-1,0,0,0,0,0
3195,2,-8,-1,0,0,0,0,0
3196,1,-6,0,0,0,0,0,0
3197,4,-7,1,0,0,0,0,0
3198,2,-8,0,0,0,0,0,0
3199,2,-7,0,0,0,0,0,0
3200,3,-8,-1,0,0,0,0,0
3201,1,-8,-1,0,0,0,0,0
3202,2,-8,0,0,0,0,0,0
3203,2,-8,0,0,0,0,0,0
3204,2,-8,-1,0,0,0,0,0
3205,3,-7,0,0,0,0,0,0
3206,2,-7,0,0,0,0,0,0
3207,3,-8,-1,0,0,0,0,0
3208,3,-7,-1,0,0,0,0,0
3209,4,-7,0,0,0,0,0,0
3210,1,-6,1,0,0,0,0,0
3211,1,-8,0,1,0,0,0,0
3212,2,-9,-1,0,0,0,0,0
3213,3,-8,0,1,0,0,0,0
3214,1,-8,-1,0,0,0,0,0
3215,2,-6,-1,0,0,0,0,0
3216,3,-6,-2,0,0,0,0,0
3217,2,-7,-1,0,0,0,0,0
3218,3,-7,-1,0,0,0,0,0
3219,2,-5,0,0,0,0,0,0
3220,4,-8,0,0,0,0,0,0
3221,2,-6,0,0,0,0,0,0
3222,3,-7,0,0,0,0,0,0
3223,2,-7,0,0,0,0,0,0
3224,2,-8,-1,0,0,0,0,0
3225,4,-7,-1,0,0,0,0,0
3226,3,-8,-1,0,0,0,0,0
3227,5,-7,0,0,0,0,0,0
3228,2,-7,-1,0,0,0,0,0
3229,3,-7,0,0,0,0,0,0
3230,4,-6,-1,0,0,0,0,0
3231,2,-7,0,0,0,0,0,0
3232,2,-8,-1,0,0,0,0,0
3233,2,-7,-1,0,0,0,0,0
3234,5,-7,-1,0,0,0,0,0
3235,2,-5,0,0,0,0,0,0
3236,3,-7,0,0,0,0,0,0
3237,4,-6,0,0,0,0,0,0
3238,3,-6,1,0,0,0,0,0
3239,3,-6,1,0,0,0,0,0
3240,3,-7,0,0,0,0,0,0
3241,1,-7,-2,0,0,0,0,0
3242,1,-8,-2,0,0,0,0,0
3243,3,-8,0,0,0,0,0,0
3244,3,-8,1,0,0,0,0,0
3245,2,-7,0,0,0,0,0,0
3246,3,-6,0,0,0,0,0,0
3247,2,-7,0,0,0,0,0,0
3248,2,-8,-1,0,0,0,0,0
3249,3,-8,0,0,0,0,0,0
3250,1,-8,-1,0,0,0,0,0
3251,5,-9,1,0,0,0,0,0
3252,3,-5,0,0,0,0,0,0
3253,5,-7,0,0,0,0,0,0
3254,2,-8,-1,0,0,0,0,0
3255,2,-7,0,0,0,0,0,0
3256,2,-7,0,0,0,0,0,0
3257,3,-7,0,0,0,0,0,0
3258,3,-8,-1,1,0,0,0,0
3259,2,-7,-2,0,0,0,0,0
3260,4,-7,0,0,0,0,0,0
3261,2,-8,0,0,0,0,0,0
3262,3,-8,0,0,0,0,0,0
3263,2,-7,-1,0,0,0,0,0
3264,3,-9,-1,0,0,0,0,0
3265,1,-8,1,0,0,0,0,0
3266,3,-9,0,0,0,0,0,0
3267,1,-8,0,0,0,0,0,0
3268,2,-8,0,0,0,0,0,0
3269,3,-9,-1,0,0,0,0,0
3270,3,-6,-1,0,0,0,0,0
3271,3,-7,-1,0,0,0,0,0
3272,3,-8,-1,0,0,0,0,0
3273,1,-8,1,0,0,0,0,0
3274,2,-7,-1,0,0,0,0,0
3275,3,-6,0,0,0,0,0,0
3276,6,-7,-1,0,0,0,0,0
3277,5,-7,0,0,0,0,0,0
3278,1,-7,0,0,0,0,0,0
3279,2,-6,-1,0,0,0,0,0
3280,5,-7,0,0,0,0,0,0
3281,4,-8,-1,0,0,0,0,0
3282,2,-7,0,0,0,0,0,0
3283,3,-8,1,0,0,0,0,0
3284,3,-6,0,0,0,0,0,0
3285,3,-6,0,0,0,0,0,0
3286,2,-8,-1,0,0,0,0,0
3287,3,-8,0,0,0,0,0,0
3288,3,-6,0,0,0,0,0,0
3289,4,-7,0,0,0,0,0,0
3290,1,-7,0,0,0,0,0,0
3291,3,-7,0,0,0,0,0,0
3292,3,-7,0,0,0,0,0,0
3293,3,-9,0,0,0,0,0,0
3294,3,-8,0,0,0,0,0,0
3295,3,-5,0,0,0,0,0,0
3296,2,-8,0,0,0,0,0,0
3297,2,-7,0,0,0,0,0,0
3298,2,-7,0,0,0,0,0,0
3299,3,-8,0,0,0,0,0,0
3300,1,-7,0,0,0,0,0,0
3301,3,-7,-2,0,0,0,0,0
3302,3,-7,-1,0,0,0,0,0
3303,1,-7,-1,0,0,0,0,0
3304,2,-7,0,0,0,0,0,0
3305,2,-8,0,0,0,0,0,0
3306,3,-8,-1,0,0,0,0,0
3307,4,-7,-1,0,0,0,0,0
3308,1,-8,0,0,0,0,0,0
3309,3,-7,0,0,0,0,0,0
3310,3,-6,-1,0,0,0,0,0
3311,3,-6,-1,0,0,0,0,0
3312,4,-7,0,0,0,0,0,0
3313,2,-7,0,0,0,0,0,0
3314,3,-8,0,0,0,0,0,0
3315,2,-8,0,0,0,0,0,0
3316,0,-7,0,0,0,0,0,0
3317,2,-8,0,0,0,0,0,0
3318,2,-7,-1,0,0,0,0,0
3319,4,-7,-1,0,0,0,0,0
3320,2,-7,-2,0,0,0,0,0
3321,3,-6,0,0,0,0,0,0
3322,1,-8,0,0,0,0,0,0
3323,2,-5,-2,0,0,0,0,0
3324,4,-8,0,0,0,0,0,0
3325,2,-6,0,0,0,0,0,0
3326,2,-8,0,0,0,0,0,0
3327,2,-8,0,1,0,0,0,0
3328,2,-7,0,0,0,0,0,0
3329,2,-8,1,0,0,0,0,0
3330,2,-8,0,0,0,0,0,0
3331,4,-8,0,0,0,0,0,0
3332,1,-7,0,0,0,0,0,0
3333,3,-7,1,0,0,0,0,0
3334,4,-7,-1,0,0,0,0,0
3335,3,-6,0,0,0,0,0,0
3336,1,-7,-1,0,0,0,0,0
3337,0,-8,1,0,0,0,0,0
3338,4,-7,0,0,0,0,0,0
3339,2,-6,0,0,0,0,0,0
3340,2,-6,0,0,0,0,0,0
3341,3,-6,-1,0,0,0,0,0
3342,3,-6,-1,0,0,0,0,0
3343,4,-8,-1,0,0,0,0,0
3344,3,-6,0,0,0,0,0,0
3345,3,-6,0,0,0,0,0,0
3346,1,-7,0,0,0,0,0,0
3347,3,-7,0,0,0,0,0,0
3348,3,-8,1,0,0,0,0,0
3349,3,-7,0,0,0,0,0,0
3350,4,-6,-1,0,0,0,0,0
3351,3,-7,0,0,0,0,0,0
3352,2,-7,0,0,0,0,0,0
3353,3,-8,1,0,0,0,0,0
3354,3,-6,-1,0,0,0,0,0
3355,2,-7,0,0,0,0,0,0
3356,3,-7,0,0,0,0,0,0
3357,2,-7,0,0,0,0,0,0
3358,4,-7,-1,0,0,0,0,0
3359,2,-7,-1,0,0,0,0,0
3360,3,-8,-1,0,0,0,0,0
3361,2,-8,0,0,0,0,0,0
3362,5,-8,0,0,0,0,0,0
3363,2,-9,0,0,0,0,0,0
3364,2,-7,0,0,0,0,0,0
3365,2,-7,0,0,0,0,0,0
3366,3,-7,0,1,0,0,0,0
3367,1,-8,-1,0,0,0,0,0
3368,3,-8,-1,0,0,0,0,0
3369,3,-8,0,0,0,0,0,0
3370,4,-7,0,0,0,0,0,0
3371,4,-8,0,0,0,0,0,0
3372,4,-7,1,0,0,0,0,0
3373,4,-7,-1,0,0,0,0,0
3374,3,-8,-1,0,0,0,0,0
3375,2,-8,-1,0,0,0,0,0
3376,2,-7,0,0,0,0,0,0
3377,3,-7,0,0,0,0,0,0
3378,2,-8,-1,0,0,0,0,0
3379,2,-7,-1,0,0,0,0,0
3380,2,-9,-1,0,0,0,0,0
3381,1,-8,1,0,0,0,0,0
3382,2,-9,-1,0,0,0,0,0
3383,3,-8,1,0,0,0,0,0
3384,3,-9,0,0,0,0,0,0
3385,2,-8,0,0,0,0,0,0
3386,2,-7,-1,0,0,0,0,0
3387,4,-8,0,0,0,0,0,0
3388,4,-6,0,0,0,0,0,0
3389,2,-7,-1,0,0,0,0,0
3390,3,-7,-1,0,0,0,0,0
3391,3,-8,-1,0,0,0,0,0
3392,1,-8,0,0,0,0,0,0
3393,3,-6,0,0,0,0,0,0
3394,3,-7,-2,0,0,0,0,0
3395,3,-6,0,0,0,0,0,0
3396,1,-8,0,0,0,0,0,0
3397,2,-6,-1,0,0,0,0,0
3398,4,-8,-1,0,0,0,0,0
3399,2,-7,0,0,0,0,0,0
3400,5,-8,0,1,0,0,0,0
3401,3,-7,-1,0,0,0,0,0
3402,1,-7,1,0,0,0,0,0
3403,5,-6,0,0,0,0,0,0
3404,3,-9,-1,0,0,0,0,0
3405,3,-9,-1,0,0,0,0,0
3406,4,-9,-1,0,0,0,0,0
3407,2,-10,0,0,0,0,0,0
3408,3,-8,-1,0,0,0,0,0
3409,2,-7,1,0,0,0,0,0
3410,5,-8,0,0,0,0,0,0
3411,5,-8,-1,0,0,0,0,0
3412,0,-9,-1,0,0,0,0,0
3413,2,-8,-1,0,0,0,0,0
3414,3,-6,0,0,0,0,0,0
3415,2,-8,-1,0,0,0,0,0
3416,5,-9,1,1,0,0,0,0
3417,3,-8,0,0,0,0,0,0
3418,3,-7,0,0,0,0,0,0
3419,2,-7,0,0,0,0,0,0
3420,3,-8,1,0,0,0,0,0
3421,5,-8,1,0,0,0,0,0
3422,4,-6,0,0,0,0,0,0
3423,2,-7,0,0,0,0,0,0
3424,2,-7,-1,0,0,0,0,0
3425,1,-8,0,0,0,0,0,0
3426,2,-6,0,0,0,0,0,0
3427,2,-7,1,0,0,0,0,0
3428,4,-7,0,0,0,0,0,0
3429,2,-9,-1,0,0,0,0,0
3430,1,-8,0,0,0,0,0,0
3431,2,-8,-1,0,0,0,0,0
3432,3,-7,0,0,0,0,0,0
3433,2,-7,0,0,0,0,0,0
3434,2,-8,0,0,0,0,0,0
3435,1,-7,-2,0,0,0,0,0
3436,3,-8,0,0,0,0,0,0
3437,5,-9,0,0,0,0,0,0
3438,2,-6,-1,0,0,0,0,0
3439,3,-8,-1,0,0,0,0,0
3440,4,-8,0,0,0,0,0,0
3441,2,-8,0,0,0,0,0,0
3442,3,-8,0,0,0,0,0,0
3443,3,-6,-1,0,0,0,0,0
3444,5,-8,0,1,0,0,0,0
3445,3,-9,0,0,0,0,0,0
3446,3,-9,0,0,0,0,0,0
3447,2,-9,-1,0,0,0,0,0
3448,2,-9,0,0,0,0,0,0
3449,1,-9,0,0,0,0,0,0
3450,2,-7,-1,0,0,0,0,0
3451,2,-5,-2,0,0,0,0,0
3452,3,-8,0,0,0,0,0,0
3453,1,-6,-1,0,0,0,0,0
3454,4,-6,-1,0,0,0,0,0
3455,9,-5,-1,0,0,0,0,0
3456,29,-4,-3,0,0,0,0,0
3457,-4,-10,4,0,0,0,0,0
3458,7,-6,0,0,0,0,0,0
3459,-3,-10,0,0,0,0,0,0
3460,-17,-15,0,0,0,0,0,0
3461,18,4,0,0,0,0,0,0
3462,9,-9,1,0,0,0,0,0
3463,-6,-5,-2,0,0,0,0,0
3464,-4,-5,0,0,0,0,0,0
3465,12,-6,0,0,0,0,0,0
3466,4,-3,-1,0,0,0,0,0
3467,4,-6,0,0,0,0,0,0
3468,-2,-3,-1,0,0,0,0,0
3469,4,-5,0,0,0,0,0,0
3470,0,-5,1,0,0,0,0,0
3471,3,-5,0,0,0,0,0,0
3472,2,-7,-1,0,0,0,0,0
3473,0,-9,0,0,0,0,0,0
3474,3,-7,0,0,0,0,0,0
3475,1,-7,0,0,0,0,0,0
3476,4,-6,-1,0,0,0,0,0
3477,3,-7,-1,0,0,0,0,0
3478,3,-9,-256,0,0,0,0,0
3479,4,-6,0,0,0,0,0,0
3480,2,-6,255,0,0,0,0,0
3481,3,-6,0,0,0,0,0,0
3482,2,-8,-1,0,0,0,0,0
3483,7,-6,0,0,0,0,0,0
3484,3,-7,0,0,0,0,0,0
3485,3,-8,-1,0,0,0,0,0
3486,3,-9,-1,0,0,0,0,0
3487,4,-7,0,0,0,0,0,0
3488,3,-8,0,0,0,0,0,0
3489,3,-7,-1,0,0,0,0,0
3490,3,-7,-1,0,0,0,0,0
3491,1,-7,0,0,0,0,0,0
3492,3,-8,0,0,0,0,0,0
3493,1,-7,0,0,0,0,0,0
3494,1,-9,-1,0,0,0,0,0
3495,1,-5,0,0,0,0,0,0
3496,1,-10,0,0,0,0,0,0
3497,0,-8,-1,0,0,0,0,0
3498,4,-7,-1,0,0,0,0,0
3499,3,-7,-1,0,0,0,0,0
3500,3,-8,0,0,0,0,0,0
3501,0,-7,0,0,0,0,0,0
3502,2,-6,-1,0,0,0,0,0
3503,2,-8,0,0,0,0,0,0
3504,8,-8,0,0,0,0,0,0
3505,-1,-7,-1,0,0,0,0,0
3506,5,-7,-1,0,0,0,0,0
3507,2,-7,0,0,0,0,0,0
3508,0,-8,-1,0,0,0,0,0
3509,6,-7,2,0,0,0,0,0
3510,1,-8,0,0,0,0,0,0
3511,5,-7,0,0,0,0,0,0
3512,3,-7,-2,0,0,0,0,0
3513,1,-8,1,0,0,0,0,0
3514,2,-7,-1,0,0,0,0,0
3515,3,-7,0,0,0,0,0,0
3516,2,-8,-1,0,0,0,0,0
3517,2,-7,0,0,0,0,0,0
3518,3,-7,0,0,0,0,0,0
3519,2,-6,0,0,0,0,0,0
3520,2,-7,0,0,0,0,0,0
3521,3,-8,-1,0,0,0,0,0
3522,2,-8,0,0,0,0,0,0
3523,1,-7,0,0,0,0,0,0
3524,4,-7,0,0,0,0,0,0
3525,2,-8,-1,0,0,0,0,0
3526,3,-7,-1,0,0,0,0,0
3527,2,-8,-1,0,0,0,0,0
3528,1,-8,-1,0,0,0,0,0
3529,2,-7,0,0,0,0,0,0
3530,1,-7,0,0,0,0,0,0
3531,3,-9,1,0,0,0,0,0
3532,1,-7,0,0,0,0,0,0
3533,4,-7,0,0,0,0,0,0
3534,3,-7,-1,0,0,0,0,0
3535,1,-6,0,0,0,0,0,0
3536,2,-8,0,0,0,0,0,0
3537,3,-7,0,0,0,0,0,0
3538,1,-9,-1,0,0,0,0,0
3539,2,-8,-1,0,0,0,0,0
3540,0,-8,-1,0,0,0,0,0
3541,4,-6,0,1,0,0,0,0
3542,-7,-7,-1,0,0,0,0,0
3543,9,-6,0,0,0,0,0,0
3544,2,-8,1,0,0,0,0,0
3545,4,-7,0,521,0,0,0,0
3546,-2,-8,0,0,0,0,0,0
3547,4,-5,1,0,0,0,0,0
3548,3,-9,0,0,0,0,0,0
3549,6,-6,1,0,0,0,0,0
3550,3,-8,0,0,0,0,0,0
3551,2,-7,0,0,0,0,0,0
3552,4,-8,-1,4,0,0,0,0
3553,2,-7,-1,0,0,0,0,0
3554,3,-6,-1,0,0,0,0,0
3555,2,-8,-1,0,0,0,0,0
3556,6,-8,-256,0,0,0,0,0
3557,2,-6,-1,0,0,0,0,0
3558,-1,-10,1,387,0,0,0,0
3559,7,-6,-1,0,0,0,0,0
3560,-252,-6,0,583,0,0,0,0
3561,7,-6,0,0,0,0,0,0
3562,13,-11,-3,792,0,0,0,0
3563,-18,-20,11,0,0,0,0,0
3564,-29,7,-7,0,0,0,0,0
3565,2,-47,9,0,0,0,0,0
3566,-16,-23,-5,0,0,0,0,0
3567,5,-10,-1,0,0,0,0,0
3568,-4,-26,3,0,0,0,0,0
3569,9,-15,-1,0,0,0,0,0
3570,0,-20,0,1042,0,0,0,0
3571,6,-29,2,0,0,0,0,0
3572,250,-25,-1,0,0,0,0,0
3573,0,-29,-1,0,0,0,0,0
3574,-3,-31,1,0,0,0,0,0
3575,1,-37,-1,0,0,0,0,0
3576,1,-35,2,979,0,0,0,0
3577,-1,-37,0,0,0,0,0,0
3578,-3,-46,-1,0,0,0,0,0
3579,3,-49,4,0,0,0,0,0
3580,-1,-48,3,961,0,0,0,0
3581,-1,-56,3,0,0,0,0,0
3582,1,-55,-3,1021,0,0,0,0
3583,-2,-77,0,0,0,0,0,0
3584,-2,-77,-11,0,0,0,0,0
3585,4,-79,-5,0,0,0,0,0
3586,-22,-88,7,1097,0,0,0,0
3587,-15,-106,5,0,0,0,0,0
3588,-2,-101,-8,0,0,0,0,0
3589,-9,-114,1,0,0,0,0,0
3590,-20,-114,-3,0,0,0,0,0
3591,-13,-137,-6,0,0,0,0,0
3592,-9,-140,5,0,0,0,0,0
3593,6,-140,-25,0,0,0,0,0
3594,-13,-159,-13,0,0,0,0,0
3595,-18,-166,-6,0,0,0,0,0
3596,9,-182,0,0,0,0,0,0
3597,-82,-201,-10,0,0,0,0,0
3598,-24,-198,-12,0,0,0,0,0
3599,-16,-190,-3,791,0,0,0,0
3600,-9,-212,-10,0,0,0,0,0
3601,-10,-206,-19,792,0,0,0,0
3602,-31,-212,-21,0,0,0,0,0
3603,-28,-222,-4,248,0,0,0,0
3604,-53,-223,14,0,0,0,0,0
3605,-61,-227,-26,260,0,0,0,0
3606,27,-254,8,787,0,0,0,0
3607,-13,-65,-6,832,0,0,0,0
3608,-59,-71,35,0,0,0,0,0
3609,-3,-85,-5,484,0,0,0,0
3610,33,-75,4,1077,0,0,0,0
3611,35,-78,-9,0,0,0,0,0
3612,147,-28,1,0,0,0,0,0
3613,146,-30,44,0,0,0,0,0
3614,43,9,-16,0,0,0,0,0
3615,20,29,-24,455,0,0,0,0
3616,8,29,17,0,0,0,0,0
3617,71,-10,13,921,0,0,0,0
3618,-124,-51,-48,0,0,0,0,0
3619,-69,-52,-19,1073,0,0,0,0
3620,134,-7,-30,0,0,0,0,0
3621,-25,-54,18,926,0,0,0,0
3622,-22,-59,-4,0,0,0,0,0
3623,138,-22,18,0,0,0,0,0
3624,11,-49,-16,0,0,0,0,0
3625,75,-43,-15,1031,0,0,0,0
3626,-155,-43,12,0,0,0,0,0
3627,75,-51,40,0,0,0,0,0
3628,11,-49,-2,0,0,0,0,0
3629,-58,-52,7,0,0,0,0,0
3630,-58,-58,-19,0,0,0,0,0
3631,-39,-66,-5,0,0,0,0,0
3632,-4,-34,-21,0,0,0,0,0
3633,41,-36,31,0,0,0,0,0
3634,-118,-64,-24,0,0,0,0,0
3635,105,-51,-9,0,0,0,0,0
3636,-210,-62,-5,0,0,0,0,0
3637,74,-30,8,0,0,0,0,0
3638,22,-49,-2,0,0,0,0,0
3639,-104,-58,36,0,0,0,0,0
3640,17,-46,4,0,0,0,0,0
3641,93,-53,11,0,0,0,0,0
3642,47,-54,-22,0,0,0,0,0
3643,-77,-70,16,0,0,0,0,0
3644,121,-52,9,0,0,0,0,0
3645,-50,-66,-21,0,0,0,0,0
3646,-66,-72,15,0,0,0,0,0
3647,-4,-64,20,0,0,0,0,0
3648,-91,-65,12,1037,0,0,0,0
3649,19,-73,-7,0,0,0,0,0
3650,-5,-67,5,1035,0,0,0,0
3651,0,-60,30,0,0,0,0,0
3652,68,-44,-14,1035,0,0,0,0
3653,-63,-72,11,0,0,0,0,0
3654,42,-56,-5,0,0,0,0,0
3655,-38,-44,-6,1036,0,0,0,0
3656,-46,-72,-30,0,0,0,0,0
3657,-1,-59,-8,0,0,0,0,0
3658,53,-74,29,1036,0,0,0,0
3659,-95,-67,-42,0,0,0,0,0
3660,-15,-73,-4,0,0,0,0,0
3661,-128,-62,-20,0,0,0,0,0
3662,98,-52,45,0,0,0,0,0
3663,17,-71,-22,0,0,0,0,0
3664,70,-56,-5,0,0,0,0,0
3665,91,-72,13,0,0,0,0,0
3666,116,-59,-10,0,0,0,0,0
3667,-89,-43,-15,0,0,0,0,0
3668,-27,-70,-17,965,0,0,0,0
3669,19,-41,5,0,0,0,0,0
3670,140,-35,-52,0,0,0,0,0
3671,-99,-69,-4,0,0,0,0,0
3672,-145,-62,47,965,0,0,0,0
3673,-56,-22,35,0,0,0,0,0
3674,149,-35,2,0,0,0,0,0
3675,37,-27,-11,0,0,0,0,0
3676,202,0,-5,989,0,0,0,0
3677,-18,-50,4,0,0,0,0,0
3678,-25,-32,5,0,0,0,0,0
3679,-143,9,-88,0,0,0,0,0
3680,-221,-12,13,0,0,0,0,0
3681,-111,7,6,0,0,0,0,0
3682,31,2,28,0,0,0,0,0
3683,-164,1,-62,0,0,0,0,0
3684,-16,-26,-41,0,0,0,0,0
3685,-118,11,29,0,0,0,0,0
3686,28,30,-46,0,0,0,0,0
3687,187,38,-16,0,0,0,0,0
3688,-77,9,4,0,0,0,0,0
3689,59,26,5,0,0,0,0,0
3690,142,18,-23,0,0,0,0,0
3691,-67,11,28,0,0,0,0,0
3692,20,11,-9,0,0,0,0,0
3693,-19,-6,49,0,0,0,0,0
3694,140,34,-13,0,0,0,0,0
3695,-2,-33,5,0,0,0,0,0
3696,49,-9,-5,0,0,0,0,0
3697,-82,-45,-31,0,0,0,0,0
3698,2,-48,17,0,0,0,0,0
3699,-95,-66,5,0,0,0,0,0
3700,27,-68,-32,0,0,0,0,0
3701,19,-110,44,199,0,0,0,0
3702,-166,-142,-2,0,0,0,0,0
3703,-137,-99,25,202,0,0,0,0
3704,107,-138,-16,0,0,0,0,0
3705,51,-101,-57,198,0,0,0,0
3706,-4,-101,20,0,0,0,0,0
3707,-89,-93,70,1020,0,0,0,0
3708,76,-73,20,0,0,0,0,0
3709,-277,-81,-59,1012,0,0,0,0
3710,-19,1,47,0,0,0,0,0
3711,-124,31,10,0,0,0,0,0
3712,125,52,-5,0,0,0,0,0
3713,29,77,38,0,0,0,0,0
3714,-139,61,-37,0,0,0,0,0
3715,-7,83,25,0,0,0,0,0
3716,83,153,-2,953,0,0,0,0
3717,-164,184,0,0,0,0,0,0
3718,35,195,35,0,0,0,0,0
3719,132,272,-27,0,0,0,0,0
3720,186,273,27,0,0,0,0,0
3721,-72,259,-42,0,0,0,0,0
3722,-30,302,9,0,0,0,0,0
3723,20,292,11,0,0,0,0,0
3724,-73,285,-22,0,0,0,0,0
3725,-52,291,-27,0,0,0,0,0
3726,22,299,-20,0,0,0,0,0
3727,26,298,-38,0,0,0,0,0
3728,121,299,20,0,0,0,0,0
3729,1,282,-50,0,0,0,0,0
3730,-19,294,-24,0,0,0,0,0
3731,-58,289,-5,0,0,0,0,0
3732,-10,278,4,0,0,0,0,0
3733,90,261,51,0,0,0,0,0
3734,-175,254,-14,0,0,0,0,0
3735,-22,259,27,958,0,0,0,0
3736,186,266,28,0,0,0,0,0
3737,91,252,-53,1024,0,0,0,0
3738,104,253,1,0,0,0,0,0
3739,-74,237,-62,1024,0,0,0,0
3740,-11,228,38,0,0,0,0,0
3741,178,5,17,0,0,0,0,0
3742,25,219,-17,0,0,0,0,0
3743,166,208,31,1021,0,0,0,0
3744,46,246,13,0,0,0,0,0
3745,89,230,12,0,0,0,0,0
3746,55,212,8,1021,0,0,0,0
3747,-17,224,-7,1019,0,0,0,0
3748,-84,232,3,0,0,0,0,0
3749,-36,198,10,0,0,0,0,0
3750,-54,234,-17,0,0,0,0,0
3751,26,246,-3,0,0,0,0,0
3752,32,259,-2,0,0,0,0,0
3753,105,260,30,0,0,0,0,0
3754,87,238,-16,0,0,0,0,0
3755,-80,218,-23,0,0,0,0,0
3756,45,248,-9,0,0,0,0,0
3757,36,243,-29,857,0,0,0,0
3758,-52,230,-31,0,0,0,0,0
3759,14,232,-5,0,0,0,0,0
3760,52,239,25,0,0,0,0,0
3761,27,257,-14,0,0,0,0,0
3762,81,289,26,0,0,0,0,0
3763,-9,280,9,0,0,0,0,0
3764,0,308,-23,0,0,0,0,0
3765,-19,307,4,0,0,0,0,0
3766,122,314,10,0,0,0,0,0
3767,240,340,-9,0,0,0,0,0
3768,-14,342,18,0,0,0,0,0
3769,66,343,-24,0,0,0,0,0
3770,25,316,20,0,0,0,0,0
3771,15,296,-11,0,0,0,0,0
3772,-115,275,6,0,0,0,0,0
3773,13,278,22,0,0,0,0,0
3774,0,256,34,0,0,0,0,0
3775,-161,233,-36,0,0,0,0,0
3776,58,249,13,0,0,0,0,0
3777,-33,246,2,0,0,0,0,0
3778,90,242,15,0,0,0,0,0
3779,-13,231,-14,0,0,0,0,0
3780,76,235,2,0,0,0,0,0
3781,47,224,-16,0,0,0,0,0
3782,138,233,16,0,0,0,0,0
3783,78,209,8,0,0,0,0,0
3784,-3,185,14,0,0,0,0,0
3785,20,192,-5,0,0,0,0,0
3786,-4,172,13,0,0,0,0,0
3787,-18,155,0,0,0,0,0,0
3788,-17,160,4,221,0,0,0,0
3789,-30,130,8,0,0,0,0,0
3790,52,146,9,224,0,0,0,0
3791,27,122,4,0,0,0,0,0
3792,21,108,9,720,0,0,0,0
3793,40,113,12,0,0,0,0,0
3794,-14,88,16,787,0,0,0,0
3795,6,35,-1,0,0,0,0,0
3796,-2,53,2,819,0,0,0,0
3797,9,-7,2,0,0,0,0,0
3798,10,-11,-1,0,0,0,0,0
3799,22,-8,1,0,0,0,0,0
3800,-27,-25,12,0,0,0,0,0
3801,-4,-27,-2,0,0,0,0,0
3802,18,-15,0,0,0,0,0,0
3803,-3,-19,0,0,0,0,0,0
3804,0,-17,-2,758,0,0,0,0
3805,-4,-18,2,0,0,0,0,0
3806,13,-3,0,718,0,0,0,0
3807,1,-8,-1,0,0,0,0,0
3808,0,-6,-1,0,0,0,0,0
3809,5,-2,-1,0,0,0,0,0
3810,2,-11,0,0,0,0,0,0
3811,-10,-4,0,0,0,0,0,0
3812,2,-8,1,0,0,0,0,0
3813,-5,-6,-2,0,0,0,0,0
3814,-2,-7,1,0,0,0,0,0
3815,-2,-7,-1,0,0,0,0,0
3816,4,-8,0,0,0,0,0,0
3817,5,-6,0,0,0,0,0,0
3818,2,-6,0,0,0,0,0,0
3819,4,-7,-2,0,0,0,0,0
3820,4,-6,-1,0,0,0,0,0
3821,2,-7,0,0,0,0,0,0
3822,2,-8,0,0,0,0,0,0
3823,2,-7,0,0,0,0,0,0
3824,3,-8,0,0,0,0,0,0
3825,5,-6,-1,0,0,0,0,0
3826,0,-8,0,0,0,0,0,0
3827,0,-10,0,0,0,0,0,0
3828,4,-8,0,0,0,0,0,0
3829,3,-6,-1,0,0,0,0,0
3830,0,-8,1,0,0,0,0,0
3831,4,-8,0,0,0,0,0,0
3832,1,-8,-1,0,0,0,0,0
3833,3,-8,0,0,0,0,0,0
3834,3,-6,-2,0,0,0,0,0
3835,3,-7,0,0,0,0,0,0
3836,4,-6,-1,0,0,0,0,0
3837,5,-6,0,0,0,0,0,0
3838,1,-7,0,0,0,0,0,0
3839,2,-8,1,0,0,0,0,0
3840,4,-7,0,0,0,0,0,0
3841,6,-7,1,0,0,0,0,0
3842,1,-8,0,0,0,0,0,0
3843,2,-7,0,0,0,0,0,0
3844,4,-7,0,0,0,0,0,0
3845,4,-8,0,0,0,0,0,0
3846,4,-7,1,0,0,0,0,0
3847,3,-7,1,0,0,0,0,0
3848,4,-8,0,0,0,0,0,0
3849,1,-8,0,0,0,0,0,0
3850,2,-6,-1,0,0,0,0,0
3851,1,-9,1,0,0,0,0,0
3852,1,-7,0,0,0,0,0,0
3853,0,-7,0,0,0,0,0,0
3854,0,-6,-1,0,0,0,0,0
3855,2,-9,0,0,0,0,0,0
3856,7,-6,-3,0,0,0,0,0
3857,3,-9,-1,0,0,0,0,0
3858,5,-9,0,0,0,0,0,0
3859,2,-9,-1,0,0,0,0,0
3860,3,-9,-1,0,0,0,0,0
3861,3,-9,1,0,0,0,0,0
3862,3,-8,-1,0,0,0,0,0
3863,2,-7,255,0,0,0,0,0
3864,2,-9,-1,0,0,0,0,0
3865,3,-7,0,0,0,0,0,0
3866,2,-8,0,0,0,0,0,0
3867,3,-7,-2,0,0,0,0,0
3868,3,-9,0,0,0,0,0,0
3869,3,-7,0,0,0,0,0,0
3870,4,-7,0,0,0,0,0,0
3871,1,-7,-1,0,0,0,0,0
3872,1,-7,-1,0,0,0,0,0
3873,4,-7,0,0,0,0,0,0
3874,-1,-9,1,0,0,0,0,0
3875,1,-8,0,0,0,0,0,0
3876,-1,-8,-1,0,0,0,0,0
3877,3,-6,0,0,0,0,0,0
3878,2,-8,1,0,0,0,0,0
3879,1,-8,0,0,0,0,0,0
3880,2,-7,-1,0,0,0,0,0
3881,2,-7,0,0,0,0,0,0
3882,1,-7,0,0,0,0,0,0
3883,8,-8,1,0,0,0,0,0
3884,2,-6,0,0,0,0,0,0
3885,6,-8,0,0,0,0,0,0
3886,6,-7,-1,0,0,0,0,0
3887,2,-8,1,0,0,0,0,0
3888,6,-6,-1,0,0,0,0,0
3889,4,-6,-1,0,0,0,0,0
3890,2,-8,0,0,0,0,0,0
3891,1,-7,-1,0,0,0,0,0
3892,2,-8,0,0,0,0,0,0
3893,3,-8,-1,0,0,0,0,0
3894,3,-8,0,0,0,0,0,0
3895,3,-8,1,0,0,0,0,0
3896,7,-9,0,0,0,0,0,0
3897,6,-8,-1,0,0,0,0,0
3898,2,-8,0,0,0,0,0,0
3899,0,-8,0,0,0,0,0,0
3900,4,-8,0,0,0,0,0,0
3901,2,-8,1,0,0,0,0,0
3902,3,-8,0,0,0,0,0,0
3903,4,-8,-1,0,0,0,0,0
3904,2,-6,0,0,0,0,0,0
3905,4,-6,-1,0,0,0,0,0
3906,2,-8,0,0,0,0,0,0
3907,2,-8,0,0,0,0,0,0
3908,3,-7,0,0,0,0,0,0
3909,3,-6,1,0,0,0,0,0
3910,1,-8,-1,0,0,0,0,0
3911,3,-8,0,0,0,0,0,0
3912,4,-7,-1,0,0,0,0,0
3913,4,-8,0,0,0,0,0,0
3914,3,-7,-1,0,0,0,0,0
3915,3,-7,0,0,0,0,0,0
3916,2,-7,0,0,0,0,0,0
3917,1,-7,0,0,0,0,0,0
3918,7,-6,1,0,0,0,0,0
3919,0,-8,0,0,0,0,0,0
3920,1,-7,0,0,0,0,0,0
3921,2,-9,1,0,0,0,0,0
3922,1,-7,0,0,0,0,0,0
3923,3,-7,2,0,0,0,0,0
3924,3,-9,0,0,0,0,0,0
3925,4,-7,-1,0,0,0,0,0
3926,2,-9,0,0,0,0,0,0
3927,1,-8,-1,0,0,0,0,0
3928,5,-9,-1,0,0,0,0,0
3929,2,-8,0,0,0,0,0,0
3930,2,-9,0,0,0,0,0,0
3931,5,-8,-1,0,0,0,0,0
3932,3,-8,0,1,0,0,0,0
3933,2,-8,-1,0,0,0,0,0
3934,4,-9,0,0,0,0,0,0
3935,1,-9,-1,0,0,0,0,0
3936,3,-9,0,0,0,0,0,0
3937,3,-10,0,0,0,0,0,0
3938,3,-8,0,2,0,0,0,0
3939,3,-9,1,0,0,0,0,0
3940,3,-9,-1,1,0,0,0,0
3941,9,-3,0,0,0,0,0,0
3942,-10,-14,1,791,0,0,0,0
3943,-2,17,3,0,0,0,0,0
3944,4,7,1,790,0,0,0,0
3945,11,4,-4,0,0,0,0,0
3946,9,16,-2,0,0,0,0,0
3947,-4,6,3,0,0,0,0,0
3948,9,6,-1,0,0,0,0,0
3949,-1,13,0,0,0,0,0,0
3950,4,8,3,0,0,0,0,0
3951,7,8,1,0,0,0,0,0
3952,13,12,1,0,0,0,0,0
3953,5,5,2,0,0,0,0,0
3954,12,-16,12,0,0,0,0,0
3955,-41,27,19,0,0,0,0,0
3956,4,60,1,0,0,0,0,0
3957,29,24,-1,0,0,0,0,0
3958,7,28,-10,0,0,0,0,0
3959,21,42,8,0,0,0,0,0
3960,3,39,-5,0,0,0,0,0
3961,3,61,2,0,0,0,0,0
3962,29,57,1,0,0,0,0,0
3963,16,61,5,0,0,0,0,0
3964,39,66,0,0,0,0,0,0
3965,7,56,2,0,0,0,0,0
3966,16,70,5,0,0,0,0,0
3967,13,66,-15,0,0,0,0,0
3968,27,84,9,0,0,0,0,0
3969,44,100,6,0,0,0,0,0
3970,9,81,-1,1078,0,0,0,0
3971,43,91,4,0,0,0,0,0
3972,64,114,5,1118,0,0,0,0
3973,54,117,5,0,0,0,0,0
3974,105,130,-4,0,0,0,0,0
3975,-28,128,3,0,0,0,0,0
3976,-18,131,-12,0,0,0,0,0
3977,118,146,-8,1195,0,0,0,0
3978,-9,167,-46,0,0,0,0,0
3979,72,163,10,291,0,0,0,0
3980,85,192,-22,0,0,0,0,0
3981,84,185,-1,313,0,0,0,0
3982,49,212,1,0,0,0,0,0
3983,66,236,13,336,0,0,0,0
3984,127,257,16,0,0,0,0,0
3985,24,233,-20,448,0,0,0,0
3986,101,232,3,0,0,0,0,0
3987,8,251,-20,0,0,0,0,0
3988,80,254,16,0,0,0,0,0
3989,26,231,2,0,0,0,0,0
3990,-4,231,0,0,0,0,0,0
3991,47,246,4,0,0,0,0,0
3992,48,242,22,0,0,0,0,0
3993,85,247,-2,0,0,0,0,0
3994,43,249,12,0,0,0,0,0
3995,21,237,4,0,0,0,0,0
3996,83,251,9,0,0,0,0,0
3997,134,222,3,0,0,0,0,0
3998,130,236,-26,895,0,0,0,0
3999,85,230,7,0,0,0,0,0
4000,76,232,-3,0,0,0,0,0
4001,15,237,-27,0,0,0,0,0
4002,-27,235,-32,883,0,0,0,0
4003,-24,200,-37,0,0,0,0,0
4004,10,208,25,0,0,0,0,0
4005,-78,215,-3,0,0,0,0,0
4006,21,204,17,0,0,0,0,0
4007,-11,187,17,0,0,0,0,0
4008,75,195,3,0,0,0,0,0
4009,0,180,19,0,0,0,0,0
4010,4,174,11,0,0,0,0,0
4011,43,176,-2,0,0,0,0,0
4012,32,145,1,0,0,0,0,0
4013,30,151,-5,0,0,0,0,0
4014,10,146,3,0,0,0,0,0
4015,16,129,-10,0,0,0,0,0
4016,-3,108,5,0,0,0,0,0
4017,-245,116,-7,0,0,0,0,0
4018,10,111,-5,0,0,0,0,0
4019,39,94,-8,14,0,0,0,0
4020,71,110,3,0,0,0,0,0
4021,-15,96,-9,59,0,0,0,0
4022,27,80,10,0,0,0,0,0
4023,20,90,-6,565,0,0,0,0
4024,19,84,6,0,0,0,0,0
4025,8,72,-2,0,0,0,0,0
4026,9,71,1,0,0,0,0,0
4027,8,74,2,0,0,0,0,0
4028,7,65,-8,0,0,0,0,0
4029,44,55,-1,0,0,0,0,0
4030,-25,48,-3,0,0,0,0,0
4031,-87,57,11,0,0,0,0,0
4032,53,58,-3,924,0,0,0,0
4033,25,83,14,0,0,0,0,0
4034,21,78,-9,0,0,0,0,0
4035,-4,78,-4,0,0,0,0,0
4036,31,91,-1,0,0,0,0,0
4037,23,88,-10,0,0,0,0,0
4038,9,100,3,718,0,0,0,0
4039,-18,84,8,0,0,0,0,0
4040,34,135,4,0,0,0,0,0
4041,56,137,6,0,0,0,0,0
4042,81,157,1,0,0,0,0,0
4043,-3,158,5,0,0,0,0,0
4044,45,162,-14,0,0,0,0,0
4045,42,188,4,0,0,0,0,0
4046,-1,199,16,1040,0,0,0,0
4047,39,223,0,1039,0,0,0,0
4048,38,227,24,0,0,0,0,0
4049,44,223,4,0,0,0,0,0
4050,42,240,19,0,0,0,0,0
4051,72,264,4,0,0,0,0,0
4052,-30,232,3,0,0,0,0,0
4053,71,267,-4,0,0,0,0,0
4054,62,262,13,0,0,0,0,0
4055,48,242,-4,0,0,0,0,0
4056,-4,243,-8,0,0,0,0,0
4057,20,251,0,0,0,0,0,0
4058,139,272,13,0,0,0,0,0
4059,28,258,-26,0,0,0,0,0
4060,-11,237,21,0,0,0,0,0
4061,84,277,-6,0,0,0,0,0
4062,75,269,-25,0,0,0,0,0
4063,63,284,-22,0,0,0,0,0
4064,-14,297,5,439,0,0,0,0
4065,102,311,-37,0,0,0,0,0
4066,78,297,-5,523,0,0,0,0
4067,-37,310,23,0,0,0,0,0
4068,22,317,-5,540,0,0,0,0
4069,2,315,-17,0,0,0,0,0
4070,25,260,-12,0,0,0,0,0
4071,43,175,-9,0,0,0,0,0
4072,51,103,11,0,0,0,0,0
4073,5,-49,20,0,0,0,0,0
4074,-49,-61,2,0,0,0,0,0
4075,-29,-80,-54,0,0,0,0,0
4076,3,-59,-3,0,0,0,0,0
4077,-189,-66,-9,0,0,0,0,0
4078,-77,-72,14,0,0,0,0,0
4079,-188,-77,12,0,0,0,0,0
4080,106,-39,4,0,0,0,0,0
4081,-23,-55,7,0,0,0,0,0
4082,-147,107,47,0,0,0,0,0
4083,65,146,-45,0,0,0,0,0
4084,257,131,13,0,0,0,0,0
4085,97,-8,19,0,0,0,0,0
4086,-28,1,-29,0,0,0,0,0
4087,-14,-8,7,0,0,0,0,0
4088,51,-3,-13,0,0,0,0,0
4089,-42,-16,5,0,0,0,0,0
4090,47,-34,-13,0,0,0,0,0
4091,-97,-8,3,0,0,0,0,0
4092,-105,-22,-8,0,0,0,0,0
4093,71,-30,-10,0,0,0,0,0
4094,-106,6,-5,0,0,0,0,0
4095,-46,-18,6,0,0,0,0,0
4096,-32,-8,4,0,0,0,0,0
4097,69,9,-7,0,0,0,0,0
4098,96,-49,9,0,0,0,0,0
4099,119,-13,10,0,0,0,0,0
4100,-34,-12,-24,0,0,0,0,0
4101,27,-61,7,0,0,0,0,0
4102,49,-13,7,0,0,0,0,0
4103,-86,-10,6,0,0,0,0,0
4104,-17,-9,-14,0,0,0,0,0
4105,57,-7,0,0,0,0,0,0
4106,-10,-21,-5,0,0,0,0,0
4107,3,-19,2,0,0,0,0,0
4108,2,-9,1,0,0,0,0,0
4109,6,-7,2,0,0,0,0,0
4110,2,-12,1,174,0,0,0,0
4111,-4,-9,-3,0,0,0,0,0
4112,-15,-7,-1,0,0,0,0,0
4113,-3,-6,1,0,0,0,0,0
4114,5,-11,-2,0,0,0,0,0
4115,4,-7,1,0,0,0,0,0
4116,-2,-12,1,0,0,0,0,0
4117,5,-6,0,0,0,0,0,0
4118,1,-6,1,0,0,0,0,0
4119,7,-13,1,0,0,0,0,0
4120,14,-10,-1,0,0,0,0,0
4121,0,-6,0,0,0,0,0,0
4122,3,-8,0,0,0,0,0,0
4123,4,-7,-1,0,0,0,0,0
4124,5,-7,0,0,0,0,0,0
4125,4,-8,1,0,0,0,0,0
4126,5,-7,-1,0,0,0,0,0
4127,3,-6,0,0,0,0,0,0
4128,4,-7,-1,0,0,0,0,0
4129,3,-9,-2,0,0,0,0,0
4130,1,-6,0,1,0,0,0,0
4131,3,-7,-1,0,0,0,0,0
4132,1,-9,-1,2,0,0,0,0
4133,2,-8,-1,0,0,0,0,0
4134,0,-6,0,0,0,0,0,0
4135,4,-8,-1,0,0,0,0,0
4136,4,-8,0,0,0,0,0,0
4137,1,-6,1,0,0,0,0,0
4138,3,-7,-1,0,0,0,0,0
4139,3,-7,0,0,0,0,0,0
4140,1,-7,0,0,0,0,0,0
4141,3,-8,-1,0,0,0,0,0
4142,2,-8,1,0,0,0,0,0
4143,3,-7,1,0,0,0,0,0
4144,3,-8,1,0,0,0,0,0
4145,-1,-10,0,0,0,0,0,0
4146,0,-11,1,0,0,0,0,0
4147,1,-7,0,0,0,0,0,0
4148,2,-6,0,0,0,0,0,0
4149,4,-9,0,0,0,0,0,0
4150,2,-7,0,0,0,0,0,0
4151,2,-9,-1,0,0,0,0,0
4152,5,-8,-1,0,0,0,0,0
4153,-3,-10,-1,0,0,0,0,0
4154,4,-9,1,0,0,0,0,0
4155,-3,-5,1,0,0,0,0,0
4156,-3,-8,0,0,0,0,0,0
4157,19,-9,1,0,0,0,0,0
4158,-100,-27,1,0,0,0,0,0
4159,-75,-13,-4,0,0,0,0,0
4160,29,-30,0,0,0,0,0,0
4161,-10,-26,9,0,0,0,0,0
4162,-10,-16,-4,0,0,0,0,0
4163,-24,-35,1,0,0,0,0,0
4164,8,-62,9,0,0,0,0,0
4165,19,-41,-3,791,0,0,0,0
4166,31,-93,3,0,0,0,0,0
4167,-28,-115,-4,499,0,0,0,0
4168,-33,-136,3,0,0,0,0,0
4169,-4,-142,9,0,0,0,0,0
4170,30,-168,1,0,0,0,0,0
4171,-12,-185,1,402,0,0,0,0
4172,-48,-213,5,0,0,0,0,0
4173,-67,-231,-19,1161,0,0,0,0
4174,-62,-234,9,0,0,0,0,0
4175,-100,-250,-4,0,0,0,0,0
4176,28,-254,-9,0,0,0,0,0
4177,-129,-294,-3,0,0,0,0,0
4178,-93,-289,-7,0,0,0,0,0
4179,-111,-311,10,0,0,0,0,0
4180,35,-286,-28,0,0,0,0,0
4181,-118,-308,24,1193,0,0,0,0
4182,-35,-252,-22,0,0,0,0,0
4183,51,-231,24,0,0,0,0,0
4184,-46,-192,-3,0,0,0,0,0
4185,57,-50,-9,0,0,0,0,0
4186,-40,-48,11,0,0,0,0,0
4187,-1,43,0,0,0,0,0,0
4188,59,106,22,0,0,0,0,0
4189,72,155,15,0,0,0,0,0
4190,-20,285,8,0,0,0,0,0
4191,94,394,6,0,0,0,0,0
4192,49,426,-24,0,0,0,0,0
4193,72,447,25,0,0,0,0,0
4194,0,451,29,0,0,0,0,0
4195,9,439,-17,0,0,0,0,0
4196,82,430,-2,0,0,0,0,0
4197,-10,467,15,0,0,0,0,0
4198,-14,469,5,0,0,0,0,0
4199,154,486,18,0,0,0,0,0
4200,-56,450,-7,0,0,0,0,0
4201,74,498,2,0,0,0,0,0
4202,155,502,36,0,0,0,0,0
4203,105,506,44,0,0,0,0,0
4204,72,514,55,0,0,0,0,0
4205,-13,532,-12,0,0,0,0,0
4206,21,526,-34,0,0,0,0,0
4207,100,507,25,0,0,0,0,0
4208,179,543,15,0,0,0,0,0
4209,5,518,-13,0,0,0,0,0
4210,94,553,-9,0,0,0,0,0
4211,44,502,-15,0,0,0,0,0
4212,33,492,6,0,0,0,0,0
4213,-25,546,6,0,0,0,0,0
4214,33,541,-75,0,0,0,0,0
4215,53,548,10,0,0,0,0,0
4216,20,533,42,0,0,0,0,0
4217,97,547,4,0,0,0,0,0
4218,101,527,-18,0,0,0,0,0
4219,169,529,-14,0,0,0,0,0
4220,11,519,-84,0,0,0,0,0
4221,120,501,-48,0,0,0,0,0
4222,175,506,-53,0,0,0,0,0
4223,33,490,-3,0,0,0,0,0
4224,91,435,-6,0,0,0,0,0
4225,61,417,-29,0,0,0,0,0
4226,-15,302,11,0,0,0,0,0
4227,-29,282,-34,0,0,0,0,0
4228,34,239,1,0,0,0,0,0
4229,92,232,-22,0,0,0,0,0
4230,142,184,-9,0,0,0,0,0
4231,25,123,5,0,0,0,0,0
4232,85,134,32,0,0,0,0,0
4233,2,89,-1,0,0,0,0,0
4234,-14,72,13,0,0,0,0,0
4235,-29,58,-7,0,0,0,0,0
4236,42,51,9,0,0,0,0,0
4237,30,43,-19,0,0,0,0,0
4238,-20,23,1,0,0,0,0,0
4239,-17,27,6,0,0,0,0,0
4240,-10,24,1,0,0,0,0,0
4241,32,24,19,0,0,0,0,0
4242,-12,11,-3,0,0,0,0,0
4243,24,12,-11,0,0,0,0,0
4244,16,22,0,0,0,0,0,0
4245,1,7,-8,0,0,0,0,0
4246,-3,4,-3,0,0,0,0,0
4247,11,3,-6,0,0,0,0,0
4248,-3,0,-3,0,0,0,0,0
4249,8,-2,0,0,0,0,0,0
4250,5,-3,-1,0,0,0,0,0
4251,3,-7,-1,0,0,0,0,0
4252,26,-4,-1,0,0,0,0,0
4253,4,-2,2,0,0,0,0,0
4254,4,-8,0,0,0,0,0,0
4255,10,-5,1,0,0,0,0,0
4256,-7,-6,-3,0,0,0,0,0
4257,21,-7,0,0,0,0,0,0
4258,13,-9,-2,0,0,0,0,0
4259,6,-9,-1,0,0,0,0,0
4260,-15,-10,1,0,0,0,0,0
4261,-3,-7,-1,0,0,0,0,0
4262,6,-7,1,0,0,0,0,0
4263,2,-7,0,0,0,0,0,0
4264,1,-7,1,0,0,0,0,0
4265,1,-9,-2,0,0,0,0,0
4266,2,-7,-1,0,0,0,0,0
4267,0,-8,-1,0,0,0,0,0
4268,4,-8,-1,0,0,0,0,0
4269,2,-7,0,0,0,0,0,0
4270,4,-7,0,0,0,0,0,0
4271,3,-6,0,0,0,0,0,0
4272,2,-7,-1,0,0,0,0,0
4273,3,-9,1,0,0,0,0,0
4274,3,-7,0,0,0,0,0,0
4275,4,-8,-1,0,0,0,0,0
4276,1,-8,-1,0,0,0,0,0
4277,3,-9,0,0,0,0,0,0
4278,0,-6,1,0,0,0,0,0
4279,-2,-9,4,2,0,0,0,0
4280,5,-9,2,0,0,0,0,0
4281,4,-5,-2,0,0,0,0,0
4282,4,-6,1,684,0,0,0,0
4283,2,-6,0,0,0,0,0,0
4284,3,-8,-2,0,0,0,0,0
4285,4,-6,0,0,0,0,0,0
4286,5,-10,0,0,0,0,0,0
4287,1,-8,-1,0,0,0,0,0
4288,10,237,2,0,0,0,0,0
4289,3,-4,-254,0,0,0,0,0
4290,14,-7,1,0,0,0,0,0
4291,5,-8,-1,0,0,0,0,0
4292,8,-4,-1,0,0,0,0,0
4293,4,-7,0,0,0,0,0,0
4294,3,-7,-1,0,0,0,0,0
4295,5,-6,-1,0,0,0,0,0
4296,1,-7,0,0,0,0,0,0
4297,6,-8,1,0,0,0,0,0
4298,2,-7,-1,0,0,0,0,0
4299,3,-8,0,0,0,0,0,0
4300,3,-7,-1,0,0,0,0,0
4301,4,-8,0,0,0,0,0,0
4302,4,-7,255,0,0,0,0,0
4303,4,-6,0,0,0,0,0,0
4304,2,-8,-1,0,0,0,0,0
4305,2,-7,1,0,0,0,0,0
4306,2,-9,1,0,0,0,0,0
4307,3,-7,0,0,0,0,0,0
4308,2,-8,-1,0,0,0,0,0
4309,4,-7,0,0,0,0,0,0
4310,3,-7,-1,0,0,0,0,0
4311,4,-6,0,0,0,0,0,0
4312,3,-7,0,0,0,0,0,0
4313,5,-5,1,0,0,0,0,0
4314,2,-7,2,0,0,0,0,0
4315,4,-6,0,0,0,0,0,0
4316,2,-6,0,0,0,0,0,0
4317,3,-7,0,0,0,0,0,0
4318,2,-8,1,0,0,0,0,0
4319,2,-8,0,0,0,0,0,0
4320,5,-10,0,0,0,0,0,0
4321,2,-8,0,0,0,0,0,0
4322,3,-8,-1,0,0,0,0,0
4323,3,-8,1,0,0,0,0,0
4324,1,-8,0,0,0,0,0,0
4325,2,-7,0,0,0,0,0,0
4326,2,-8,-1,0,0,0,0,0
4327,2,-8,0,0,0,0,0,0
4328,2,-7,-1,0,0,0,0,0
4329,2,-7,0,0,0,0,0,0
4330,3,-7,1,0,0,0,0,0
4331,3,-8,-1,0,0,0,0,0
4332,3,-7,255,0,0,0,0,0
4333,1,-7,0,0,0,0,0,0
4334,2,-6,1,0,0,0,0,0
4335,2,-8,-1,0,0,0,0,0
4336,3,-6,-1,0,0,0,0,0
4337,2,-8,0,0,0,0,0,0
4338,2,-8,-1,0,0,0,0,0
4339,3,-8,0,0,0,0,0,0
4340,2,-7,-1,0,0,0,0,0
4341,3,-7,0,0,0,0,0,0
4342,4,-8,0,0,0,0,0,0
4343,2,-7,0,0,0,0,0,0
4344,1,-8,1,0,0,0,0,0
4345,3,-8,1,0,0,0,0,0
4346,4,-7,0,0,0,0,0,0
4347,4,-7,0,0,0,0,0,0
4348,3,-8,0,0,0,0,0,0
4349,1,-8,0,0,0,0,0,0
4350,5,-6,0,0,0,0,0,0
4351,2,-7,0,0,0,0,0,0
4352,4,-9,0,0,0,0,0,0
4353,3,-6,1,0,0,0,0,0
4354,2,-7,-1,0,0,0,0,0
4355,3,-8,1,0,0,0,0,0
4356,1,-8,0,0,0,0,0,0
4357,3,-7,0,0,0,0,0,0
4358,3,-7,1,0,0,0,0,0
4359,4,-7,-1,0,0,0,0,0
4360,4,-7,-1,0,0,0,0,0
4361,7,-5,1,0,0,0,0,0
4362,1,-8,0,0,0,0,0,0
4363,3,-8,-1,0,0,0,0,0
4364,4,-8,-1,0,0,0,0,0
4365,3,-8,0,0,0,0,0,0
4366,3,-6,-1,0,0,0,0,0
4367,3,-8,1,0,0,0,0,0
4368,3,-7,1,0,0,0,0,0
4369,1,-9,0,0,0,0,0,0
4370,0,-8,0,0,0,0,0,0
4371,3,-8,0,0,0,0,0,0
4372,4,-7,-1,0,0,0,0,0
4373,1,-8,255,0,0,0,0,0
4374,3,-8,1,0,0,0,0,0
4375,3,-6,0,0,0,0,0,0
4376,3,-7,0,0,0,0,0,0
4377,4,-8,1,0,0,0,0,0
4378,2,-8,-2,0,0,0,0,0
4379,3,-7,-1,0,0,0,0,0
4380,2,-8,1,0,0,0,0,0
4381,3,-6,1,0,0,0,0,0
4382,3,-6,0,0,0,0,0,0
4383,2,-7,0,0,0,0,0,0
4384,3,-8,0,0,0,0,0,0
4385,4,-8,0,0,0,0,0,0
4386,3,-8,1,0,0,0,0,0
4387,0,-7,0,0,0,0,0,0
4388,2,-8,0,0,0,0,0,0
4389,2,-8,0,0,0,0,0,0
4390,3,-9,0,0,0,0,0,0
4391,2,-7,255,0,0,0,0,0
4392,3,-7,0,0,0,0,0,0
4393,1,-8,-1,0,0,0,0,0
4394,3,-8,0,0,0,0,0,0
4395,2,-7,0,0,0,0,0,0
4396,2,-9,0,0,0,0,0,0
4397,1,-6,0,0,0,0,0,0
4398,2,-8,0,0,0,0,0,0
4399,4,-7,-1,0,0,0,0,0
4400,3,-8,0,0,0,0,0,0
4401,2,-7,0,0,0,0,0,0
4402,2,-8,0,0,0,0,0,0
4403,2,-8,1,0,0,0,0,0
4404,3,-8,-1,0,0,0,0,0
4405,2,-8,1,0,0,0,0,0
4406,3,-8,-1,0,0,0,0,0
4407,3,-10,0,0,0,0,0,0
4408,3,-8,0,0,0,0,0,0
4409,3,-8,0,0,0,0,0,0
4410,3,-8,0,0,0,0,0,0
4411,3,-7,1,0,0,0,0,0
4412,3,-7,0,0,0,0,0,0
4413,2,-7,1,0,0,0,0,0
4414,3,-8,-1,0,0,0,0,0
4415,2,-6,0,0,0,0,0,0
4416,3,-7,0,0,0,0,0,0
4417,3,-7,-1,0,0,0,0,0
4418,1,-7,0,0,0,0,0,0
4419,4,-7,0,0,0,0,0,0
4420,3,-8,0,0,0,0,0,0
4421,2,-8,0,0,0,0,0,0
4422,2,-8,1,0,0,0,0,0
4423,1,-7,0,0,0,0,0,0
4424,2,-6,0,0,0,0,0,0
4425,2,-6,0,0,0,0,0,0
4426,3,-7,0,0,0,0,0,0
4427,2,-6,0,0,0,0,0,0
4428,2,-5,0,0,0,0,0,0
4429,1,-7,1,0,0,0,0,0
4430,3,-8,-1,0,0,0,0,0
4431,3,-8,0,0,0,0,0,0
4432,2,-7,-1,0,0,0,0,0
4433,2,-7,0,0,0,0,0,0
4434,3,-8,1,0,0,0,0,0
4435,3,-7,1,0,0,0,0,0
4436,3,-7,-1,0,0,0,0,0
4437,1,-6,-1,0,0,0,0,0
4438,3,-7,-1,0,0,0,0,0
4439,2,-7,0,0,0,0,0,0
4440,4,-8,1,0,0,0,0,0
4441,4,-7,-1,0,0,0,0,0
4442,4,-8,0,0,0,0,0,0
4443,3,-7,0,0,0,0,0,0
4444,3,-9,0,0,0,0,0,0
4445,3,-7,0,0,0,0,0,0
4446,3,-7,0,0,0,0,0,0
4447,1,-8,0,0,0,0,0,0
4448,2,-7,0,0,0,0,0,0
4449,3,-8,-1,0,0,0,0,0
4450,4,-8,0,0,0,0,0,0
4451,4,-8,-1,0,0,0,0,0
4452,3,-7,0,0,0,0,0,0
4453,2,-7,0,0,0,0,0,0
4454,1,-7,-1,0,0,0,0,0
4455,2,-7,0,0,0,0,0,0
4456,3,-7,1,0,0,0,0,0
4457,1,-8,0,0,0,0,0,0
4458,0,-8,0,0,0,0,0,0
4459,3,-7,-1,0,0,0,0,0
4460,3,-8,0,0,0,0,0,0
4461,2,-7,0,0,0,0,0,0
4462,2,-7,-1,0,0,0,0,0
4463,3,-7,0,0,0,0,0,0
4464,2,-8,-1,0,0,0,0,0
4465,2,-8,0,0,0,0,0,0
4466,3,-7,0,0,0,0,0,0
4467,2,-7,0,0,0,0,0,0
4468,3,-7,0,0,0,0,0,0
4469,4,-8,0,0,0,0,0,0
4470,3,-8,-1,0,0,0,0,0
4471,5,-9,-1,0,0,0,0,0
4472,4,-8,-1,0,0,0,0,0
4473,2,-8,0,0,0,0,0,0
4474,2,-6,0,0,0,0,0,0
4475,1,-7,0,0,0,0,0,0
4476,1,-8,-1,0,0,0,0,0
4477,2,-8,0,0,0,0,0,0
4478,5,-7,0,0,0,0,0,0
4479,2,-7,-1,0,0,0,0,0
4480,3,-8,0,0,0,0,0,0
4481,2,-8,1,0,0,0,0,0
4482,5,-6,255,0,0,0,0,0
4483,4,-9,0,0,0,0,0,0
4484,3,-8,0,0,0,0,0,0
4485,3,-7,0,0,0,0,0,0
4486,3,-9,0,0,0,0,0,0
4487,2,-6,-1,0,0,0,0,0
4488,2,-8,1,0,0,0,0,0
4489,3,-8,0,0,0,0,0,0
4490,2,-7,0,0,0,0,0,0
4491,2,-6,0,0,0,0,0,0
4492,3,-7,0,0,0,0,0,0
4493,2,-8,1,0,0,0,0,0
4494,2,-7,-1,0,0,0,0,0
4495,2,-9,0,0,0,0,0,0
4496,4,-6,-1,0,0,0,0,0
4497,2,-7,-2,0,0,0,0,0
4498,2,-7,0,0,0,0,0,0
4499,2,-8,0,0,0,0,0,0
4500,3,-8,0,0,0,0,0,0
4501,3,-7,0,0,0,0,0,0
4502,4,-9,-1,0,0,0,0,0
4503,3,-7,-1,0,0,0,0,0
4504,3,-8,0,0,0,0,0,0
4505,3,-8,0,0,0,0,0,0
4506,2,-8,0,0,0,0,0,0
4507,3,-7,0,0,0,0,0,0
4508,2,-9,0,0,0,0,0,0
4509,2,-9,-1,0,0,0,0,0
4510,4,-6,0,0,0,0,0,0
4511,2,-6,0,0,0,0,0,0
4512,1,-7,-2,0,0,0,0,0
4513,3,-7,0,0,0,0,0,0
4514,3,-9,0,0,0,0,0,0
4515,4,-9,0,0,0,0,0,0
4516,2,-9,0,0,0,0,0,0
4517,3,-8,0,0,0,0,0,0
4518,5,-7,0,0,0,0,0,0
4519,2,-7,0,0,0,0,0,0
4520,2,-7,1,0,0,0,0,0
4521,2,-7,0,0,0,0,0,0
4522,4,-9,0,0,0,0,0,0
4523,3,-10,0,0,0,0,0,0
4524,2,-6,0,0,0,0,0,0
4525,2,-7,0,0,0,0,0,0
4526,4,-7,-1,0,0,0,0,0
4527,2,-8,-1,0,0,0,0,0
4528,5,-7,-2,0,0,0,0,0
4529,-2,-9,0,0,0,0,0,0
4530,6,-7,1,0,0,0,0,0
4531,3,-7,-1,0,0,0,0,0
4532,3,-6,0,0,0,0,0,0
4533,4,-7,1,0,0,0,0,0
4534,5,-7,0,0,0,0,0,0
4535,3,-8,-1,0,0,0,0,0
4536,5,-7,1,0,0,0,0,0
4537,3,-8,1,0,0,0,0,0
4538,2,-7,0,0,0,0,0,0
4539,3,-5,1,0,0,0,0,0
4540,3,-8,0,0,0,0,0,0
4541,3,-7,-1,0,0,0,0,0
4542,3,-9,0,0,0,0,0,0
4543,2,-7,1,0,0,0,0,0
4544,3,-7,0,0,0,0,0,0
4545,4,-8,-1,0,0,0,0,0
4546,2,-7,0,0,0,0,0,0
4547,3,-7,-1,0,0,0,0,0
4548,2,-8,0,0,0,0,0,0
4549,2,-6,-1,0,0,0,0,0
4550,3,-7,1,0,0,0,0,0
4551,3,-7,0,0,0,0,0,0
4552,3,-7,0,0,0,0,0,0
4553,3,-7,1,0,0,0,0,0
4554,3,-9,0,0,0,0,0,0
4555,3,-8,-1,0,0,0,0,0
4556,2,-8,-1,0,0,0,0,0
4557,-1,-7,-1,0,0,0,0,0
4558,0,-9,-1,0,0,0,0,0
4559,3,-8,0,0,0,0,0,0
4560,1,-7,-1,0,0,0,0,0
4561,1,-7,-1,0,0,0,0,0
4562,3,-6,1,0,0,0,0,0
4563,2,-7,-1,0,0,0,0,0
4564,3,-7,-1,0,0,0,0,0
4565,3,-9,-1,0,0,0,0,0
4566,4,-6,0,0,0,0,0,0
4567,0,-7,1,0,0,0,0,0
4568,3,-7,0,0,0,0,0,0
4569,3,-9,1,0,0,0,0,0
4570,-4,-8,0,0,0,0,0,0
4571,0,-9,1,0,0,0,0,0
4572,3,-9,0,0,0,0,0,0
4573,2,-7,0,0,0,0,0,0
4574,3,-7,-1,0,0,0,0,0
4575,2,-8,-1,0,0,0,0,0
4576,2,-7,-1,0,0,0,0,0
4577,4,-6,0,0,0,0,0,0
4578,3,-8,-1,0,0,0,0,0
4579,2,-7,0,0,0,0,0,0
4580,3,-9,0,0,0,0,0,0
4581,2,-7,0,0,0,0,0,0
4582,3,-8,-1,0,0,0,0,0
4583,4,-7,0,0,0,0,0,0
4584,2,-9,-1,0,0,0,0,0
4585,1,-7,0,0,0,0,0,0
4586,3,-8,0,0,0,0,0,0
4587,0,-8,1,0,0,0,0,0
4588,4,-7,-1,0,0,0,0,0
4589,3,-6,1,0,0,0,0,0
4590,3,-8,0,0,0,0,0,0
4591,5,-8,0,0,0,0,0,0
4592,3,-7,0,0,0,0,0,0
4593,4,-8,1,0,0,0,0,0
4594,4,-7,-1,0,0,0,0,0
4595,2,-7,-1,0,0,0,0,0
4596,3,-8,0,0,0,0,0,0
4597,5,-7,0,0,0,0,0,0
4598,2,-8,-1,0,0,0,0,0
4599,3,-8,1,0,0,0,0,0
4600,1,-6,-1,0,0,0,0,0
4601,1,-7,0,0,0,0,0,0
4602,3,-8,0,0,0,0,0,0
4603,3,-8,0,0,0,0,0,0
4604,2,-8,1,0,0,0,0,0
4605,0,-7,0,0,0,0,0,0
4606,1,-7,0,0,0,0,0,0
4607,1,-8,-1,0,0,0,0,0
4608,4,-8,0,0,0,0,0,0
4609,3,-6,-1,0,0,0,0,0
4610,1,-7,0,0,0,0,0,0
4611,4,-6,0,0,0,0,0,0
4612,2,-7,1,0,0,0,0,0
4613,3,-8,1,0,0,0,0,0
4614,2,-7,-1,0,0,0,0,0
4615,4,-8,0,0,0,0,0,0
4616,4,-8,-1,0,0,0,0,0
4617,2,-9,0,0,0,0,0,0
4618,2,-9,0,0,0,0,0,0
4619,2,-8,-1,0,0,0,0,0
4620,1,-6,1,0,0,0,0,0
4621,5,-8,-1,0,0,0,0,0
4622,2,-8,0,0,0,0,0,0
4623,3,-6,-1,0,0,0,0,0
4624,6,-9,0,0,0,0,0,0
4625,2,-7,0,0,0,0,0,0
4626,4,-7,-2,0,0,0,0,0
4627,2,-8,0,0,0,0,0,0
4628,2,-12,255,0,0,0,0,0
4629,-4,-10,1,0,0,0,0,0
4630,10,-11,0,0,0,0,0,0
4631,2,-6,1,0,0,0,0,0
4632,9,-8,-1,0,0,0,0,0
4633,-9,-7,1,0,0,0,0,0
4634,8,-6,-1,0,0,0,0,0
4635,2,-8,0,0,0,0,0,0
4636,5,-9,1,0,0,0,0,0
4637,2,-4,-1,0,0,0,0,0
4638,7,-5,0,0,0,0,0,0
4639,-2,-9,0,0,0,0,0,0
4640,3,-7,1,0,0,0,0,0
4641,4,-6,0,0,0,0,0,0
4642,1,-9,-1,0,0,0,0,0
4643,4,-8,-1,0,0,0,0,0
4644,2,-6,3,0,0,0,0,0
4645,5,-8,-1,0,0,0,0,0
4646,3,-8,-1,0,0,0,0,0
4647,2,-7,0,0,0,0,0,0
4648,2,-10,1,0,0,0,0,0
4649,4,-6,0,0,0,0,0,0
4650,3,-8,0,0,0,0,0,0
4651,1,-8,0,0,0,0,0,0
4652,2,-7,-1,0,0,0,0,0
4653,1,-7,0,0,0,0,0,0
4654,5,-7,0,0,0,0,0,0
4655,0,-8,0,0,0,0,0,0
4656,5,-6,0,0,0,0,0,0
4657,4,-8,-1,0,0,0,0,0
4658,3,-6,1,0,0,0,0,0
4659,5,-8,-1,0,0,0,0,0
4660,1,-5,-1,0,0,0,0,0
4661,3,-7,0,0,0,0,0,0
4662,1,-5,1,0,0,0,0,0
4663,5,-7,-1,0,0,0,0,0
4664,5,-6,0,0,0,0,0,0
4665,7,-7,0,0,0,0,0,0
4666,-4,-8,-1,0,0,0,0,0
4667,2,-8,-1,0,0,0,0,0
4668,1,-6,0,0,0,0,0,0
4669,8,-8,0,0,0,0,0,0
4670,3,-6,0,0,0,0,0,0
4671,4,-8,0,0,0,0,0,0
4672,2,-6,0,0,0,0,0,0
4673,5,-7,0,0,0,0,0,0
4674,4,-8,-1,0,0,0,0,0
4675,2,-7,-1,0,0,0,0,0
4676,3,-6,-1,0,0,0,0,0
4677,4,-7,0,0,0,0,0,0
4678,3,-9,0,0,0,0,0,0
4679,0,-7,-1,789,0,0,0,0
4680,4,-8,-1,0,0,0,0,0
4681,-3,-15,0,791,0,0,0,0
4682,7,-7,-1,0,0,0,0,0
4683,10,-7,1,276,0,0,0,0
4684,1,-8,0,0,0,0,0,0
4685,5,-6,0,1141,0,0,0,0
4686,2,-10,1,0,0,0,0,0
4687,-2,-18,-1,899,0,0,0,0
4688,-59,10,15,0,0,0,0,0
4689,36,42,-14,1417,0,0,0,0
4690,42,-22,4,0,0,0,0,0
4691,-9,7,-4,0,0,0,0,0
4692,-4,-3,11,929,0,0,0,0
4693,4,-5,-2,0,0,0,0,0
4694,-2,13,-5,0,0,0,0,0
4695,-5,1,3,0,0,0,0,0
4696,9,-4,-3,0,0,0,0,0
4697,-4,9,-6,0,0,0,0,0
4698,11,5,0,0,0,0,0,0
4699,66,0,-4,0,0,0,0,0
4700,28,55,-4,0,0,0,0,0
4701,-8,9,-3,1049,0,0,0,0
4702,6,29,-5,0,0,0,0,0
4703,38,31,0,0,0,0,0,0
4704,28,30,3,0,0,0,0,0
4705,-11,38,6,0,0,0,0,0
4706,-2,61,14,0,0,0,0,0
4707,22,70,12,0,0,0,0,0
4708,4,91,-11,0,0,0,0,0
4709,-64,81,1,0,0,0,0,0
4710,-51,95,-1,0,0,0,0,0
4711,-30,97,9,0,0,0,0,0
4712,99,130,-3,0,0,0,0,0
4713,-21,122,-1,0,0,0,0,0
4714,-59,113,-28,0,0,0,0,0
4715,0,142,17,0,0,0,0,0
4716,55,131,-9,0,0,0,0,0
4717,59,121,-2,0,0,0,0,0
4718,38,149,-39,0,0,0,0,0
4719,-63,138,-14,0,0,0,0,0
4720,63,145,-27,0,0,0,0,0
4721,0,124,1,0,0,0,0,0
4722,13,130,37,0,0,0,0,0
4723,-223,70,1,0,0,0,0,0
4724,54,101,27,0,0,0,0,0
4725,30,104,-20,0,0,0,0,0
4726,-30,92,-21,0,0,0,0,0
4727,-183,65,-30,0,0,0,0,0
4728,22,55,-39,1261,0,0,0,0
4729,-53,37,8,0,0,0,0,0
4730,-71,21,-15,0,0,0,0,0
4731,-140,36,3,0,0,0,0,0
4732,-33,25,-7,0,0,0,0,0
4733,-6,-8,-10,0,0,0,0,0
4734,-19,9,-13,0,0,0,0,0
4735,-65,-12,-52,1057,0,0,0,0
4736,-36,-3,4,0,0,0,0,0
4737,50,-5,20,0,0,0,0,0
4738,-106,-33,-20,0,0,0,0,0
4739,-8,-114,14,0,0,0,0,0
4740,-17,-168,-21,1018,0,0,0,0
4741,37,-228,-17,0,0,0,0,0
4742,-17,-227,30,0,0,0,0,0
4743,-2,-282,-33,0,0,0,0,0
4744,-93,-278,14,0,0,0,0,0
4745,58,-240,4,975,0,0,0,0
4746,78,-177,42,0,0,0,0,0
4747,39,-103,19,0,0,0,0,0
4748,-102,-32,27,0,0,0,0,0
4749,124,-4,3,0,0,0,0,0
4750,-25,6,24,1116,0,0,0,0
4751,-326,-43,-35,0,0,0,0,0
4752,60,-29,6,1017,0,0,0,0
4753,133,-6,48,965,0,0,0,0
4754,-9,-47,-105,1022,0,0,0,0
4755,32,-24,5,1018,0,0,0,0
4756,-239,117,-161,0,0,0,0,0
4757,341,246,115,169,0,0,0,0
4758,143,260,102,0,0,0,0,0
4759,-18,283,-90,241,0,0,0,0
4760,-43,238,-35,0,0,0,0,0
4761,14,279,-47,0,0,0,0,0
4762,207,352,-50,0,0,0,0,0
4763,30,357,-38,0,0,0,0,0
4764,-18,461,-12,0,0,0,0,0
4765,183,486,-5,0,0,0,0,0
4766,-52,470,-1,0,0,0,0,0
4767,130,487,1,0,0,0,0,0
4768,63,502,30,0,0,0,0,0
4769,10,543,-114,1,0,0,0,0
4770,116,508,42,0,0,0,0,0
4771,4,479,-7,0,0,0,0,0
4772,32,519,6,0,0,0,0,0
4773,145,522,-46,0,0,0,0,0
4774,-78,471,3,0,0,0,0,0
4775,107,441,46,0,0,0,0,0
4776,46,511,-23,351,0,0,0,0
4777,-26,417,99,0,0,0,0,0
4778,-72,404,-27,0,0,0,0,0
4779,101,468,48,0,0,0,0,0
4780,89,478,-2,0,0,0,0,0
4781,79,473,-33,0,0,0,0,0
4782,193,481,56,-878,0,0,0,0
4783,-3,423,0,0,0,0,0,0
4784,-97,397,9,0,0,0,0,0
4785,-43,399,-44,0,0,0,0,0
4786,-48,396,7,0,0,0,0,0
4787,74,410,-31,0,0,0,0,0
4788,61,390,18,0,0,0,0,0
4789,41,374,5,-1043,0,0,0,0
4790,246,384,29,0,0,0,0,0
4791,22,360,253,0,0,0,0,0
4792,-37,307,-11,0,0,0,0,0
4793,91,355,-3,0,0,0,0,0
4794,33,304,11,0,0,0,0,0
4795,149,311,10,0,0,0,0,0
4796,109,310,33,0,0,0,0,0
4797,99,264,11,0,0,0,0,0
4798,12,272,-5,0,0,0,0,0
4799,-33,147,17,0,0,0,0,0
4800,14,181,-12,0,0,0,0,0
4801,69,189,-3,0,0,0,0,0
4802,55,182,3,0,0,0,0,0
4803,3,252,4,0,0,0,0,0
4804,15,345,11,0,0,0,0,0
4805,106,370,-7,790,0,0,0,0
4806,-83,370,32,0,0,0,0,0
4807,122,406,-13,0,0,0,0,0
4808,145,54,-4,0,0,0,0,0
4809,12,-274,-6,0,0,0,0,0
4810,-29,-304,14,0,0,0,0,0
4811,71,-302,18,0,0,0,0,0
4812,-128,-378,8,0,0,0,0,0
4813,214,-328,15,0,0,0,0,0
4814,-135,-338,-47,0,0,0,0,0
4815,2,-310,-5,0,0,0,0,0
4816,3,-315,-19,0,0,0,0,0
4817,142,-326,-8,0,0,0,0,0
4818,-73,-340,-35,0,0,0,0,0
4819,-95,-360,-28,0,0,0,0,0
4820,100,-316,7,0,0,0,0,0
4821,-73,-353,5,0,0,0,0,0
4822,-150,-346,-18,0,0,0,0,0
4823,-67,-336,33,0,0,0,0,0
4824,-164,-323,-30,0,0,0,0,0
4825,-18,-314,17,0,0,0,0,0
4826,-90,-297,2,0,0,0,0,0
4827,42,-296,12,0,0,0,0,0
4828,-26,-285,-13,0,0,0,0,0
4829,-19,-279,0,0,0,0,0,0
4830,21,-194,2,0,0,0,0,0
4831,-40,-219,7,672,0,0,0,0
4832,13,-112,9,0,0,0,0,0
4833,-87,-158,4,0,0,0,0,0
4834,35,-198,6,0,0,0,0,0
4835,19,-140,5,0,0,0,0,0
4836,-9,-36,-9,0,0,0,0,0
4837,3,-44,2,0,0,0,0,0
4838,-19,-12,-4,0,0,0,0,0
4839,-5,-23,2,0,0,0,0,0
4840,-5,-26,-4,0,0,0,0,0
4841,-10,-5,4,0,0,0,0,0
4842,3,-9,0,0,0,0,0,0
4843,2,-8,-1,0,0,0,0,0
4844,4,-8,-1,0,0,0,0,0
4845,2,-8,0,0,0,0,0,0
4846,2,-10,0,0,0,0,0,0
4847,1,-8,-1,0,0,0,0,0
4848,1,-8,0,1,0,0,0,0
4849,3,-9,-1,0,0,0,0,0
4850,1,-7,-1,0,0,0,0,0
4851,1,-6,-1,0,0,0,0,0
4852,2,-8,-1,0,0,0,0,0
4853,1,-7,-1,0,0,0,0,0
4854,5,-7,1,0,0,0,0,0
4855,4,-4,0,0,0,0,0,0
4856,1,-6,0,0,0,0,0,0
4857,4,-8,0,0,0,0,0,0
4858,4,-8,1,0,0,0,0,0
4859,1,-7,-1,0,0,0,0,0
4860,2,-7,1,0,0,0,0,0
4861,3,-6,0,0,0,0,0,0
4862,3,-9,-1,0,0,0,0,0
4863,4,-8,-2,0,0,0,0,0
4864,4,-10,0,0,0,0,0,0
4865,0,-8,-1,0,0,0,0,0
4866,4,-6,0,0,0,0,0,0
4867,3,-7,0,0,0,0,0,0
4868,8,-5,-1,0,0,0,0,0
4869,2,-6,-1,0,0,0,0,0
4870,3,-8,-1,0,0,0,0,0
4871,35,-14,-6,0,0,0,0,0
4872,-21,250,1,0,0,0,0,0
4873,4,-6,0,1,0,0,0,0
4874,11,-4,-2,0,0,0,0,0
4875,9,-7,-1,1,0,0,0,0
4876,9,-7,0,0,0,0,0,0
4877,0,-8,0,0,0,0,0,0
4878,0,-6,-1,0,0,0,0,0
4879,2,-7,0,0,0,0,0,0
4880,1,-9,-1,0,0,0,0,0
4881,4,-8,-2,0,0,0,0,0
4882,4,-7,0,0,0,0,0,0
4883,4,-7,0,0,0,0,0,0
4884,3,-8,1,0,0,0,0,0
4885,4,-8,1,0,0,0,0,0
4886,3,-7,0,0,0,0,0,0
4887,3,-6,0,0,0,0,0,0
4888,3,-7,-1,0,0,0,0,0
4889,4,-8,0,0,0,0,0,0
4890,3,-6,1,0,0,0,0,0
4891,2,-7,1,0,0,0,0,0
4892,3,-7,0,0,0,0,0,0
4893,3,-7,0,0,0,0,0,0
4894,3,-7,-1,0,0,0,0,0
4895,2,-8,-1,0,0,0,0,0
4896,4,-9,0,0,0,0,0,0
4897,3,-8,-1,0,0,0,0,0
4898,3,-8,0,0,0,0,0,0
4899,1,-5,0,1,0,0,0,0
4900,3,-9,1,0,0,0,0,0
4901,2,-8,-1,0,0,0,0,0
4902,3,-8,-1,0,0,0,0,0
4903,2,-6,0,0,0,0,0,0
4904,2,-8,0,0,0,0,0,0
4905,3,-6,0,0,0,0,0,0
4906,5,-8,-1,0,0,0,0,0
4907,2,-8,0,0,0,0,0,0
4908,3,-6,0,0,0,0,0,0
4909,2,-8,1,0,0,0,0,0
4910,2,-8,-1,0,0,0,0,0
4911,4,-7,255,0,0,0,0,0
4912,5,-6,0,0,0,0,0,0
4913,1,-6,1,0,0,0,0,0
4914,8,-8,-2,0,0,0,0,0
4915,0,-5,0,0,0,0,0,0
4916,4,-8,0,0,0,0,0,0
4917,2,-5,0,0,0,0,0,0
4918,3,-8,-1,0,0,0,0,0
4919,3,-8,0,0,0,0,0,0
4920,5,-7,-1,0,0,0,0,0
4921,3,-8,0,0,0,0,0,0
4922,4,-7,0,0,0,0,0,0
4923,4,-7,0,0,0,0,0,0
4924,1,-7,1,0,0,0,0,0
4925,5,-8,-1,0,0,0,0,0
4926,2,-6,-1,0,0,0,0,0
4927,5,-7,0,0,0,0,0,0
4928,6,-7,2,0,0,0,0,0
4929,7,-5,-2,0,0,0,0,0
4930,1,-8,1,0,0,0,0,0
4931,4,-6,0,0,0,0,0,0
4932,0,-10,0,0,0,0,0,0
4933,1,-6,0,0,0,0,0,0
4934,4,-5,-1,0,0,0,0,0
4935,2,-6,-2,0,0,0,0,0
4936,7,-6,0,0,0,0,0,0
4937,4,-6,-1,0,0,0,0,0
4938,2,-7,0,0,0,0,0,0
4939,2,-4,-1,0,0,0,0,0
4940,5,-4,1,0,0,0,0,0
4941,3,-6,0,0,0,0,0,0
4942,2,-8,0,0,0,0,0,0
4943,4,-7,0,0,0,0,0,0
4944,2,-10,0,0,0,0,0,0
4945,3,-5,1,0,0,0,0,0
4946,3,-7,0,0,0,0,0,0
4947,2,-7,-2,0,0,0,0,0
4948,2,-8,-1,0,0,0,0,0
4949,2,-8,0,0,0,0,0,0
4950,3,-8,-256,0,0,0,0,0
4951,2,-8,0,0,0,0,0,0
4952,3,-6,1,0,0,0,0,0
4953,2,-8,-1,0,0,0,0,0
4954,-1,-8,-2,0,0,0,0,0
4955,0,-8,1,0,0,0,0,0
4956,5,-8,1,0,0,0,0,0
4957,1,-7,0,0,0,0,0,0
4958,2,-7,0,0,0,0,0,0
4959,2,-9,0,0,0,0,0,0
4960,2,-8,-1,0,0,0,0,0
4961,3,-8,-1,0,0,0,0,0
4962,3,-8,0,0,0,0,0,0
4963,2,-8,0,0,0,0,0,0
4964,2,-9,1,0,0,0,0,0
4965,4,-7,0,0,0,0,0,0
4966,2,-8,0,0,0,0,0,0
4967,1,-8,-1,0,0,0,0,0
4968,2,-8,0,0,0,0,0,0
4969,1,-6,0,0,0,0,0,0
4970,3,-9,-1,0,0,0,0,0
4971,3,-8,0,0,0,0,0,0
4972,3,-8,0,0,0,0,0,0
4973,4,-8,0,0,0,0,0,0
4974,4,-7,0,0,0,0,0,0
4975,2,-6,0,0,0,0,0,0
4976,1,-7,0,0,0,0,0,0
4977,1,-9,1,0,0,0,0,0
4978,2,-7,1,0,0,0,0,0
4979,1,-7,0,0,0,0,0,0
4980,4,-6,-1,0,0,0,0,0
4981,4,-6,0,0,0,0,0,0
4982,3,-8,0,0,0,0,0,0
4983,2,-8,0,0,0,0,0,0
4984,4,-7,0,0,0,0,0,0
4985,1,-8,0,0,0,0,0,0
4986,4,-8,0,0,0,0,0,0
4987,2,-7,0,0,0,0,0,0
4988,1,-7,1,0,0,0,0,0
4989,2,-6,0,0,0,0,0,0
4990,4,-7,0,0,0,0,0,0
4991,2,-8,1,0,0,0,0,0
4992,3,-8,1,0,0,0,0,0
4993,2,-7,-1,0,0,0,0,0
4994,4,-10,-1,0,0,0,0,0
4995,0,-8,1,0,0,0,0,0
4996,4,-6,-1,0,0,0,0,0
4997,9,-3,-1,0,0,0,0,0
4998,-20,-12,0,0,0,0,0,0
4999,7,-7,2,0,0,0,0,0
5000,6,-8,-1,0,0,0,0,0
5001,0,-6,-1,0,0,0,0,0
5002,4,-8,-1,0,0,0,0,0
5003,4,-8,0,0,0,0,0,0
5004,2,-8,0,0,0,0,0,0
5005,1,-8,-1,0,0,0,0,0
5006,3,-8,0,0,0,0,0,0
5007,2,-7,-1,1,0,0,0,0
5008,2,-9,0,0,0,0,0,0
5009,2,-6,0,0,0,0,0,0
5010,3,-8,0,0,0,0,0,0
5011,2,-8,0,0,0,0,0,0
5012,3,-7,-1,0,0,0,0,0
5013,4,-7,0,0,0,0,0,0
5014,3,-8,-1,0,0,0,0,0
5015,2,-7,-1,0,0,0,0,0
5016,4,-6,0,0,0,0,0,0
5017,2,-8,0,0,0,0,0,0
5018,5,-6,-2,0,0,0,0,0
5019,3,-8,0,0,0,0,0,0
5020,2,-8,0,0,0,0,0,0
5021,3,-8,0,0,0,0,0,0
5022,2,-9,0,0,0,0,0,0
5023,2,-8,-1,0,0,0,0,0
5024,2,-8,-1,0,0,0,0,0
5025,4,-7,0,0,0,0,0,0
5026,3,-7,0,0,0,0,0,0
5027,3,-7,-1,0,0,0,0,0
5028,4,-6,255,0,0,0,0,0
5029,5,-7,0,0,0,0,0,0
5030,3,-6,-1,0,0,0,0,0
5031,2,-8,-1,0,0,0,0,0
5032,2,-7,0,0,0,0,0,0
5033,1,-5,0,0,0,0,0,0
5034,5,-8,0,0,0,0,0,0
5035,1,-10,0,0,0,0,0,0
5036,4,-6,0,0,0,0,0,0
5037,2,-8,-1,0,0,0,0,0
5038,2,-8,1,0,0,0,0,0
5039,3,-6,1,0,0,0,0,0
5040,3,-6,0,0,0,0,0,0
5041,3,-8,0,0,0,0,0,0
5042,3,-7,1,0,0,0,0,0
5043,3,-8,-1,0,0,0,0,0
5044,3,-8,-1,0,0,0,0,0
5045,6,-6,-1,0,0,0,0,0
5046,4,-8,0,0,0,0,0,0
5047,2,-8,0,0,0,0,0,0
5048,5,-6,0,0,0,0,0,0
5049,3,-8,0,0,0,0,0,0
5050,2,-6,-1,0,0,0,0,0
5051,3,-6,-1,0,0,0,0,0
5052,2,-8,0,0,0,0,0,0
5053,4,-8,0,0,0,0,0,0
5054,2,-7,0,0,0,0,0,0
5055,3,-7,0,0,0,0,0,0
5056,4,-7,1,0,0,0,0,0
5057,3,-7,0,0,0,0,0,0
5058,1,-8,1,0,0,0,0,0
5059,3,-8,0,0,0,0,0,0
5060,3,-8,1,0,0,0,0,0
5061,2,-8,0,0,0,0,0,0
5062,2,-7,-1,0,0,0,0,0
5063,2,-7,1,0,0,0,0,0
5064,4,-6,1,0,0,0,0,0
5065,2,-7,0,0,0,0,0,0
5066,3,-8,-1,0,0,0,0,0
5067,2,-8,0,0,0,0,0,0
5068,3,-7,1,1,0,0,0,0
5069,2,-7,-2,0,0,0,0,0
5070,2,-7,0,0,0,0,0,0
5071,1,-6,0,0,0,0,0,0
5072,1,-9,0,0,0,0,0,0
5073,3,-8,-1,0,0,0,0,0
5074,3,-8,-2,0,0,0,0,0
5075,4,-7,0,0,0,0,0,0
5076,1,-6,0,0,0,0,0,0
5077,4,-8,0,0,0,0,0,0
5078,4,-8,0,0,0,0,0,0
5079,3,-9,0,0,0,0,0,0
5080,1,-9,0,0,0,0,0,0
5081,5,-8,-1,0,0,0,0,0
5082,3,-7,-1,0,0,0,0,0
5083,2,-8,0,0,0,0,0,0
5084,3,-8,1,0,0,0,0,0
5085,2,-6,-1,0,0,0,0,0
5086,2,-8,-1,0,0,0,0,0
5087,3,-7,0,0,0,0,0,0
5088,4,-7,1,0,0,0,0,0
5089,1,-8,0,0,0,0,0,0
5090,2,-6,0,0,0,0,0,0
5091,3,-7,0,0,0,0,0,0
5092,4,-8,0,0,0,0,0,0
5093,2,-9,0,0,0,0,0,0
5094,4,-7,1,0,0,0,0,0
5095,2,-7,0,1,0,0,0,0
5096,3,-8,-1,0,0,0,0,0
5097,3,-7,-1,0,0,0,0,0
5098,2,-7,1,0,0,0,0,0
5099,3,-8,-1,0,0,0,0,0
5100,4,-8,-1,0,0,0,0,0
5101,7,-9,0,0,0,0,0,0
5102,3,-8,0,0,0,0,0,0
5103,2,-8,-1,0,0,0,0,0
5104,5,-6,-1,0,0,0,0,0
5105,3,-6,-1,0,0,0,0,0
5106,2,-9,0,0,0,0,0,0
5107,2,-7,0,0,0,0,0,0
5108,2,-7,1,0,0,0,0,0
5109,4,-6,0,0,0,0,0,0
5110,3,-8,-1,0,0,0,0,0
5111,3,-8,1,0,0,0,0,0
5112,2,-8,0,0,0,0,0,0
5113,3,-8,0,0,0,0,0,0
5114,3,-7,1,0,0,0,0,0
5115,5,-7,0,0,0,0,0,0
5116,2,-8,0,0,0,0,0,0
5117,1,-8,-1,0,0,0,0,0
5118,1,-6,-1,0,0,0,0,0
5119,2,-8,-1,0,0,0,0,0
5120,3,-9,-1,0,0,0,0,0
