index,ACCEL_X,ACCEL_Y,ACCEL_Z,1,2,3,4,5
0,1220,8072,-47,0,0,0,0,0
1,1236,8052,-59,0,0,0,0,0
2,1224,8046,-46,0,0,0,0,0
3,1228,8072,-70,0,0,0,0,0
4,1215,8072,-52,0,0,0,0,0
5,1210,8050,-55,0,0,0,0,0
6,1269,8082,-30,0,0,0,0,0
7,1253,8054,-32,0,0,0,0,0
8,1185,8071,-42,0,0,0,0,0
9,1227,8066,-84,0,0,0,0,0
10,1238,8055,-46,0,0,0,0,0
11,1219,8104,-14,0,0,0,0,0
12,1210,8045,-60,0,0,0,0,0
13,1237,8067,-8,0,0,0,0,0
14,1228,8100,-80,0,0,0,0,0
15,1234,8030,-77,0,0,0,0,0
16,1230,8064,-22,0,0,0,0,0
17,1216,8052,-38,0,0,0,0,0
18,1226,8067,-10,0,0,0,0,0
19,1252,8051,-64,0,0,0,0,0
20,1218,8067,-61,0,0,0,0,0
21,1254,8075,-22,0,0,0,0,0
22,1235,8038,-22,0,0,0,0,0
23,1211,8068,-65,0,0,0,0,0
24,1262,8107,-36,0,0,0,0,0
25,1262,8049,-16,0,0,0,0,0
26,1213,8064,-66,0,0,0,0,0
27,1216,8064,-30,0,0,0,0,0
28,1227,8047,82,0,0,0,0,0
29,1266,8112,-5,0,0,0,0,0
30,1218,8029,-115,0,0,0,0,0
31,1221,8085,-22,0,0,0,0,0
32,1262,8076,-40,0,0,0,0,0
33,1217,8077,36,0,0,0,0,0
34,1201,8086,-36,0,0,0,0,0
35,1234,8043,-104,0,0,0,0,0
36,1241,8020,-39,0,0,0,0,0
37,1231,8132,-28,0,0,0,0,0
38,1205,8047,-38,0,0,0,0,0
39,1224,8076,-74,0,0,0,0,0
40,1237,8056,-51,0,0,0,0,0
41,1228,8014,-40,0,0,0,0,0
42,1232,8094,8,0,0,0,0,0
43,1232,8068,-27,0,0,0,0,0
44,1234,8059,-52,0,0,0,0,0
45,1221,8045,-40,0,0,0,0,0
46,1210,8074,-48,0,0,0,0,0
47,1250,8058,-32,0,0,0,0,0
48,1238,8053,-30,0,0,0,0,0
49,1222,8068,-34,0,0,0,0,0
50,1230,8071,-36,0,0,0,0,0
51,1241,8055,-44,0,0,0,0,0
52,1222,8061,-14,0,0,0,0,0
53,1221,8075,-44,0,0,0,0,0
54,1237,8053,-38,0,0,0,0,0
55,1241,8084,-50,0,0,0,0,0
56,1220,8062,-30,0,0,0,0,0
57,1230,8062,-37,0,0,0,0,0
58,1224,8065,-33,0,0,0,0,0
59,1222,8075,-44,0,0,0,0,0
60,1230,8057,-34,0,0,0,0,0
61,1233,8072,-37,0,0,0,0,0
62,1237,8057,-56,0,0,0,0,0
63,1239,8078,-15,0,0,0,0,0
64,1222,8094,-39,0,0,0,0,0
65,1215,8028,-62,0,0,0,0,0
66,1231,8080,-38,0,0,0,0,0
67,1243,8073,-28,0,0,0,0,0
68,1236,8056,-15,0,0,0,0,0
69,1213,8038,-50,0,0,0,0,0
70,1236,8078,-73,0,0,0,0,0
71,1240,8063,-46,0,0,0,0,0
72,1226,8055,-23,0,0,0,0,0
73,1209,8071,-20,0,0,0,0,0
74,1238,8044,-20,0,0,0,0,0
75,1244,8068,-32,0,0,0,0,0
76,1236,8055,-54,0,0,0,0,0
77,1227,8052,-35,0,0,0,0,0
78,1230,8076,-5,0,0,0,0,0
79,1234,8073,-44,0,0,0,0,0
80,1227,8069,-38,0,0,0,0,0
81,1230,8055,-19,0,0,0,0,0
82,1230,8054,-31,0,0,0,0,0
83,1238,8072,-54,0,0,0,0,0
84,1224,8080,-52,0,0,0,0,0
85,1232,8050,-41,0,0,0,0,0
86,1228,8072,-25,0,0,0,0,0
87,1220,8060,-32,0,0,0,0,0
88,1239,8077,-22,0,0,0,0,0
89,1230,8071,-43,0,0,0,0,0
90,1230,8055,-47,0,0,0,0,0
91,1235,8053,-38,0,0,0,0,0
92,1226,8084,-8,0,0,0,0,0
93,1239,8050,-62,0,0,0,0,0
94,1234,8080,-31,0,0,0,0,0
95,1210,8062,-31,0,0,0,0,0
96,1240,8048,-58,0,0,0,0,0
97,1246,8066,-26,0,0,0,0,0
98,1234,8082,7,0,0,0,0,0
99,1206,8057,-42,0,0,0,0,0
100,1243,8073,-65,0,0,0,0,0
101,1231,8072,-31,0,0,0,0,0
102,1222,8075,-14,0,0,0,0,0
103,1241,8054,-45,0,0,0,0,0
104,1218,8057,-48,0,0,0,0,0
105,1228,8072,-34,0,0,0,0,0
106,1225,8059,-48,0,0,0,0,0
107,1226,8072,-35,0,0,0,0,0
108,1220,8069,-37,0,0,0,0,0
109,1233,8070,-27,0,0,0,0,0
110,1239,8054,-43,0,0,0,0,0
111,1222,8071,-47,0,0,0,0,0
112,1238,8056,-26,0,0,0,0,0
113,1234,8070,-38,0,0,0,0,0
114,1230,8072,-37,0,0,0,0,0
115,1222,8052,-44,0,0,0,0,0
116,1224,8072,-30,0,0,0,0,0
117,1224,8064,-35,0,0,0,0,0
118,1242,8057,-21,0,0,0,0,0
119,1224,8067,-37,0,0,0,0,0
120,1239,8084,-27,0,0,0,0,0
121,1240,8063,-56,0,0,0,0,0
122,1233,8054,-38,0,0,0,0,0
123,1229,8075,-28,0,0,0,0,0
124,1212,8062,-38,0,0,0,0,0
125,1230,8073,-32,0,0,0,0,0
126,1236,8063,-28,0,0,0,0,0
127,1218,8049,-30,0,0,0,0,0
128,1220,8069,-32,0,0,0,0,0
129,1234,8052,-42,0,0,0,0,0
130,1231,8053,-29,0,0,0,0,0
131,1234,8064,-26,0,0,0,0,0
132,1225,8060,-34,0,0,0,0,0
133,1232,8073,-42,0,0,0,0,0
134,1236,8059,-28,0,0,0,0,0
135,1231,8070,-38,0,0,0,0,0
136,1228,8067,-24,0,0,0,0,0
137,1239,8068,-52,0,0,0,0,0
138,1228,8068,-30,0,0,0,0,0
139,1224,8066,-27,0,0,0,0,0
140,1232,8061,-31,0,0,0,0,0
141,1228,8067,-41,0,0,0,0,0
142,1233,8068,-44,0,0,0,0,0
143,1235,8065,-55,0,0,0,0,0
144,1230,8078,-25,0,0,0,0,0
145,1237,8045,-46,0,0,0,0,0
146,1237,8084,-28,0,0,0,0,0
147,1242,8072,-26,0,0,0,0,0
148,1214,8058,-44,0,0,0,0,0
149,1240,8052,-5,0,0,0,0,0
150,1223,8073,-34,0,0,0,0,0
151,1216,8070,-52,0,0,0,0,0
152,1226,8057,-36,0,0,0,0,0
153,1218,8060,-32,0,0,0,0,0
154,1244,8066,-25,0,0,0,0,0
155,1233,8071,-35,0,0,0,0,0
156,1230,8049,-30,0,0,0,0,0
157,1227,8078,-25,0,0,0,0,0
158,1239,8069,-26,0,0,0,0,0
159,1213,8052,-26,0,0,0,0,0
160,1234,8052,-42,0,0,0,0,0
161,1210,8077,-22,0,0,0,0,0
162,1230,8059,-52,0,0,0,0,0
163,1239,8068,-27,0,0,0,0,0
164,1221,8070,-12,0,0,0,0,0
165,1226,8067,-38,0,0,0,0,0
166,1223,8068,-31,0,0,0,0,0
167,1230,8066,-41,0,0,0,0,0
168,1232,8065,-26,0,0,0,0,0
169,1224,8056,-19,0,0,0,0,0
170,1229,8065,-27,0,0,0,0,0
171,1234,8056,-19,0,0,0,0,0
172,1227,8068,-39,0,0,0,0,0
173,1228,8056,-34,0,0,0,0,0
174,1244,8055,-36,0,0,0,0,0
175,1202,8048,-62,0,0,0,0,0
176,1246,8090,-1,0,0,0,0,0
177,1230,8050,-46,0,0,0,0,0
178,1216,8062,-41,0,0,0,0,0
179,1215,8087,-62,0,0,0,0,0
180,1251,8057,-20,0,0,0,0,0
181,1226,8062,-21,0,0,0,0,0
182,1222,8075,-48,0,0,0,0,0
183,1231,8051,-46,0,0,0,0,0
184,1258,8076,-30,0,0,0,0,0
185,1214,8057,-35,0,0,0,0,0
186,1228,8066,-20,0,0,0,0,0
187,1232,8063,-60,0,0,0,0,0
188,1250,8087,-18,0,0,0,0,0
189,1219,8050,-30,0,0,0,0,0
190,1236,8061,-34,0,0,0,0,0
191,1220,8072,-46,0,0,0,0,0
192,1223,8046,-18,0,0,0,0,0
193,1233,8069,-30,0,0,0,0,0
194,1236,8061,-47,0,0,0,0,0
195,1238,8048,-31,0,0,0,0,0
196,1222,8095,-15,0,0,0,0,0
197,1222,8042,-48,0,0,0,0,0
198,1241,8050,-52,0,0,0,0,0
199,1229,8090,-18,0,0,0,0,0
200,1213,8058,-42,0,0,0,0,0
201,1262,8046,-33,0,0,0,0,0
202,1231,8071,-53,0,0,0,0,0
203,1212,8076,-48,0,0,0,0,0
204,1222,8046,-43,0,0,0,0,0
205,1345,8112,0,0,0,0,0,0
206,1194,8048,-78,0,0,0,0,0
207,1207,8011,4,0,0,0,0,0
208,1225,8095,-54,0,0,0,0,0
209,1283,8114,10,0,0,0,0,0
210,1176,7996,-62,0,0,0,0,0
211,1260,8106,-16,0,0,0,0,0
212,1229,8082,-59,0,0,0,0,0
213,1233,8060,-10,0,0,0,0,0
214,1226,8069,-50,0,0,0,0,0
215,1267,8067,-40,0,0,0,0,0
216,1208,8061,-43,0,0,0,0,0
217,1222,8050,-32,0,0,0,0,0
218,1262,8076,-26,0,0,0,0,0
219,1228,8073,-34,0,0,0,0,0
220,1219,8030,-82,0,0,0,0,0
221,1238,8072,8,0,0,0,0,0
222,1230,8032,-68,0,0,0,0,0
223,1220,8056,-58,0,0,0,0,0
224,1260,8088,-24,0,0,0,0,0
225,1219,8069,-34,0,0,0,0,0
226,1218,8048,-26,0,0,0,0,0
227,1236,8071,-15,0,0,0,0,0
228,1230,8046,-32,0,0,0,0,0
229,1237,8084,-26,0,0,0,0,0
230,1237,8047,-40,0,0,0,0,0
231,1216,8069,-59,0,0,0,0,0
232,1227,8047,-29,0,0,0,0,0
233,1223,8050,-42,0,0,0,0,0
234,1232,8067,-34,0,0,0,0,0
235,1222,8058,-34,0,0,0,0,0
236,1241,8071,-12,0,0,0,0,0
237,1228,8049,-52,0,0,0,0,0
238,1221,8060,-58,0,0,0,0,0
239,1236,8088,-23,0,0,0,0,0
240,1243,8037,-22,0,0,0,0,0
241,1239,8086,-42,0,0,0,0,0
242,1234,8082,-51,0,0,0,0,0
243,1236,8044,-34,0,0,0,0,0
244,1228,8087,-37,0,0,0,0,0
245,1251,8061,-17,0,0,0,0,0
246,1236,8063,-19,0,0,0,0,0
247,1230,8057,-55,0,0,0,0,0
248,1229,8080,-61,0,0,0,0,0
249,1235,8049,-26,0,0,0,0,0
250,1238,8091,-14,0,0,0,0,0
251,1221,8036,-28,0,0,0,0,0
252,1220,8082,-55,0,0,0,0,0
253,1221,8052,-37,0,0,0,0,0
254,1243,8062,-31,0,0,0,0,0
255,1239,8075,-30,0,0,0,0,0
256,1220,8058,-39,0,0,0,0,0
257,1219,8034,-40,0,0,0,0,0
258,1231,8070,-50,0,0,0,0,0
259,1232,8077,-18,0,0,0,0,0
260,1212,8044,-55,0,0,0,0,0
261,1230,8076,-35,0,0,0,0,0
262,1238,8048,-38,0,0,0,0,0
263,1230,8053,-34,0,0,0,0,0
264,1225,8075,-52,0,0,0,0,0
265,1248,8065,-15,0,0,0,0,0
266,1226,8050,-45,0,0,0,0,0
267,1225,8076,-36,0,0,0,0,0
268,1230,8069,-47,0,0,0,0,0
269,1234,8042,-30,0,0,0,0,0
270,1219,8070,-36,0,0,0,0,0
271,1238,8058,-37,0,0,0,0,0
272,1226,8052,-38,0,0,0,0,0
273,1229,8067,-42,0,0,0,0,0
274,1227,8060,-31,0,0,0,0,0
275,1242,8078,-26,0,0,0,0,0
276,1238,8066,-36,0,0,0,0,0
277,1230,8076,-36,0,0,0,0,0
278,1203,8042,-61,0,0,0,0,0
279,1237,8083,1,0,0,0,0,0
280,1214,8073,-40,0,0,0,0,0
281,1258,8049,-46,0,0,0,0,0
282,1198,8055,-98,0,0,0,0,0
283,1224,8063,3,0,0,0,0,0
284,1215,8050,11,0,0,0,0,0
285,1254,8068,-27,0,0,0,0,0
286,1208,8066,-83,0,0,0,0,0
287,1232,8066,-53,0,0,0,0,0
288,1238,8052,-28,0,0,0,0,0
289,1230,8074,-6,0,0,0,0,0
290,1213,8058,-29,0,0,0,0,0
291,1230,8060,-34,0,0,0,0,0
292,1236,8081,-22,0,0,0,0,0
293,1228,8044,-24,0,0,0,0,0
294,1240,8090,-50,0,0,0,0,0
295,1229,8037,-37,0,0,0,0,0
296,1222,8078,-37,0,0,0,0,0
297,1231,8056,-16,0,0,0,0,0
298,1226,8080,-48,0,0,0,0,0
299,1293,8044,73,0,0,0,0,0
300,1256,8090,210,0,0,0,0,0
301,1265,7998,-188,0,0,0,0,0
302,1254,8060,-48,0,0,0,0,0
303,1243,8047,-106,0,0,0,0,0
304,1266,8091,-30,0,0,0,0,0
305,1208,8085,-40,0,0,0,0,0
306,1246,8107,94,0,0,0,0,0
307,1241,8067,-10,0,0,0,0,0
308,1239,8048,-49,0,0,0,0,0
309,1259,8068,-26,0,0,0,0,0
310,1226,8097,38,0,0,0,0,0
311,1232,8039,-37,0,0,0,0,0
312,1271,8062,-61,0,0,0,0,0
313,1227,8086,-80,0,0,0,0,0
314,1223,8034,-27,0,0,0,0,0
315,1245,8077,-1,0,0,0,0,0
316,1251,8056,19,0,0,0,0,0
317,1226,8075,-38,0,0,0,0,0
318,1240,8052,-108,0,0,0,0,0
319,1257,8071,-48,0,0,0,0,0
320,1220,8042,9,0,0,0,0,0
321,1227,8060,-22,0,0,0,0,0
322,1250,8044,-44,0,0,0,0,0
323,1228,8084,-34,0,0,0,0,0
324,1242,8053,-12,0,0,0,0,0
325,1244,8068,-42,0,0,0,0,0
326,1236,8081,-52,0,0,0,0,0
327,1250,8052,-25,0,0,0,0,0
328,1236,8046,-15,0,0,0,0,0
329,1224,8070,-40,0,0,0,0,0
330,1248,8061,-15,0,0,0,0,0
331,1245,8064,-56,0,0,0,0,0
332,1224,8064,-64,0,0,0,0,0
333,1230,8066,-26,0,0,0,0,0
334,1262,8065,16,0,0,0,0,0
335,1245,8054,-24,0,0,0,0,0
336,1227,8054,-64,0,0,0,0,0
337,1230,8093,-45,0,0,0,0,0
338,1263,8064,-28,0,0,0,0,0
339,1239,8068,-31,0,0,0,0,0
340,1217,8062,-22,0,0,0,0,0
341,1243,8066,-38,0,0,0,0,0
342,1263,8061,-56,0,0,0,0,0
343,1223,8077,-56,0,0,0,0,0
344,1235,8087,1,0,0,0,0,0
345,1240,8086,-54,0,0,0,0,0
346,1234,8075,-15,0,0,0,0,0
347,1248,8043,-46,0,0,0,0,0
348,1261,8064,-40,0,0,0,0,0
349,1232,8082,-47,0,0,0,0,0
350,1232,8041,-17,0,0,0,0,0
351,1248,8062,-30,0,0,0,0,0
352,1250,8064,-19,0,0,0,0,0
353,1224,8061,-36,0,0,0,0,0
354,1234,8058,-67,0,0,0,0,0
355,1240,8068,-23,0,0,0,0,0
356,1253,8080,-14,0,0,0,0,0
357,1242,8046,-58,0,0,0,0,0
358,1248,8053,-26,0,0,0,0,0
359,1240,8066,-45,0,0,0,0,0
360,1234,8034,-61,0,0,0,0,0
361,1243,8088,-30,0,0,0,0,0
362,1226,8058,-38,0,0,0,0,0
363,1242,8044,-13,0,0,0,0,0
364,1252,8103,-28,0,0,0,0,0
365,1247,8031,-52,0,0,0,0,0
366,1209,8021,-86,0,0,0,0,0
367,1260,8090,-14,0,0,0,0,0
368,1254,8021,8,0,0,0,0,0
369,1227,8102,1,0,0,0,0,0
370,1254,8047,-52,0,0,0,0,0
371,1254,8062,-73,0,0,0,0,0
372,1221,8058,-42,0,0,0,0,0
373,1238,8050,8,0,0,0,0,0
374,1251,8088,-30,0,0,0,0,0
375,1208,8037,-86,0,0,0,0,0
376,1253,8090,-49,0,0,0,0,0
377,1231,8008,-61,0,0,0,0,0
378,1252,8108,-64,0,0,0,0,0
379,1226,8070,19,0,0,0,0,0
380,1248,8018,-1,0,0,0,0,0
381,1256,8097,-22,0,0,0,0,0
382,1221,8077,-60,0,0,0,0,0
383,1243,8022,-80,0,0,0,0,0
384,1203,8052,-19,0,0,0,0,0
385,1225,8062,-10,0,0,0,0,0
386,1256,8081,-50,0,0,0,0,0
387,1232,8061,-24,0,0,0,0,0
388,1240,8051,-29,0,0,0,0,0
389,1236,8069,-38,0,0,0,0,0
390,1219,8058,-47,0,0,0,0,0
391,1258,8082,-23,0,0,0,0,0
392,1234,8048,-33,0,0,0,0,0
393,1229,8072,-32,0,0,0,0,0
394,1235,8067,-56,0,0,0,0,0
395,1253,8068,-4,0,0,0,0,0
396,1224,8060,-36,0,0,0,0,0
397,1240,8061,-39,0,0,0,0,0
398,1229,8038,-50,0,0,0,0,0
399,1266,8092,-44,0,0,0,0,0
400,1230,8056,-17,0,0,0,0,0
401,1241,8044,-22,0,0,0,0,0
402,1230,8059,-36,0,0,0,0,0
403,1246,8069,-40,0,0,0,0,0
404,1239,8047,-54,0,0,0,0,0
405,1246,8076,-32,0,0,0,0,0
406,1227,8061,-18,0,0,0,0,0
407,1228,8072,-79,0,0,0,0,0
408,1238,8059,-28,0,0,0,0,0
409,1264,8039,-62,0,0,0,0,0
410,1255,8060,-72,0,0,0,0,0
411,1234,8063,-82,0,0,0,0,0
412,1252,8080,-7,0,0,0,0,0
413,1254,8100,-9,0,0,0,0,0
414,1246,8069,-50,0,0,0,0,0
415,1189,8040,-20,0,0,0,0,0
416,1263,8051,-48,0,0,0,0,0
417,1240,8100,-54,0,0,0,0,0
418,1222,8063,-17,0,0,0,0,0
419,1242,8088,-37,0,0,0,0,0
420,1276,8046,-32,0,0,0,0,0
421,1220,8084,-29,0,0,0,0,0
422,1245,8072,-34,0,0,0,0,0
423,1238,8054,-68,0,0,0,0,0
424,1238,8066,-2,0,0,0,0,0
425,1221,8065,-39,0,0,0,0,0
426,1250,8082,-30,0,0,0,0,0
427,1226,8052,-40,0,0,0,0,0
428,1252,8075,-34,0,0,0,0,0
429,1218,8060,-36,0,0,0,0,0
430,1234,8064,-22,0,0,0,0,0
431,1242,8078,-46,0,0,0,0,0
432,1254,8056,-36,0,0,0,0,0
433,1220,8058,-40,0,0,0,0,0
434,1254,8075,-14,0,0,0,0,0
435,1224,8062,-43,0,0,0,0,0
436,1226,8036,-52,0,0,0,0,0
437,1237,8076,-59,0,0,0,0,0
438,1286,8080,-2,0,0,0,0,0
439,1237,8073,-10,0,0,0,0,0
440,1260,8077,-100,0,0,0,0,0
441,1245,8044,-38,0,0,0,0,0
442,1229,8092,-23,0,0,0,0,0
443,1240,8049,4,0,0,0,0,0
444,1233,8070,-31,0,0,0,0,0
445,1228,8082,-37,0,0,0,0,0
446,1239,8050,-62,0,0,0,0,0
447,1249,8066,-22,0,0,0,0,0
448,1234,8058,-36,0,0,0,0,0
449,1224,8052,-28,0,0,0,0,0
450,1246,8063,-50,0,0,0,0,0
451,1230,8069,-62,0,0,0,0,0
452,1235,8049,-50,0,0,0,0,0
453,1242,8071,-33,0,0,0,0,0
454,1234,8055,9,0,0,0,0,0
455,1224,8052,-48,0,0,0,0,0
456,1236,8058,-79,0,0,0,0,0
457,1238,8068,-92,0,0,0,0,0
458,1240,8058,34,0,0,0,0,0
459,1220,8072,-10,0,0,0,0,0
460,1254,8049,-52,0,0,0,0,0
461,1221,8068,-56,0,0,0,0,0
462,1244,8050,-82,0,0,0,0,0
463,1222,8044,-16,0,0,0,0,0
464,1242,8108,22,0,0,0,0,0
465,1228,8025,-37,0,0,0,0,0
466,1230,8032,-82,0,0,0,0,0
467,1255,8085,-40,0,0,0,0,0
468,1227,8073,-46,0,0,0,0,0
469,1250,8062,18,0,0,0,0,0
470,1240,8076,-28,0,0,0,0,0
471,1226,8049,-26,0,0,0,0,0
472,1218,8074,-104,0,0,0,0,0
473,1264,8071,-108,0,0,0,0,0
474,1226,8054,67,0,0,0,0,0
475,1204,8096,9,0,0,0,0,0
476,1257,8071,-31,0,0,0,0,0
477,1228,8058,-63,0,0,0,0,0
478,1230,8090,-43,0,0,0,0,0
479,1257,8040,2,0,0,0,0,0
480,1202,8040,-9,0,0,0,0,0
481,1242,8077,-63,0,0,0,0,0
482,1286,8064,-84,0,0,0,0,0
483,1224,8054,-14,0,0,0,0,0
484,1210,8134,-14,0,0,0,0,0
485,1259,8042,-24,0,0,0,0,0
486,1282,8045,-68,0,0,0,0,0
487,1208,8096,-30,0,0,0,0,0
488,1235,8090,35,0,0,0,0,0
489,1264,8034,-62,0,0,0,0,0
490,1268,8065,-38,0,0,0,0,0
491,1206,8106,-32,0,0,0,0,0
492,1215,7997,247,0,0,0,0,0
493,1251,8074,-58,0,0,0,0,0
494,1267,8065,-52,0,0,0,0,0
495,1217,8043,-56,0,0,0,0,0
496,1232,8039,-34,0,0,0,0,0
497,1212,8020,-27,0,0,0,0,0
498,1236,8097,-46,0,0,0,0,0
499,1248,8027,-70,0,0,0,0,0
500,1216,8068,-32,0,0,0,0,0
501,1226,8091,-10,0,0,0,0,0
502,1247,8026,0,0,0,0,0,0
503,1239,8107,-84,0,0,0,0,0
504,1227,8012,-87,0,0,0,0,0
505,1235,8034,2,0,0,0,0,0
506,1223,8096,-7,0,0,0,0,0
507,1225,8050,-15,0,0,0,0,0
508,1248,8049,-60,0,0,0,0,0
509,1240,8081,-14,0,0,0,0,0
510,1202,8032,-57,0,0,0,0,0
511,1273,8067,-14,0,0,0,0,0
512,1229,8083,-38,0,0,0,0,0
513,1184,8043,-71,0,0,0,0,0
514,1280,8114,-26,0,0,0,0,0
515,1270,8106,-12,0,0,0,0,0
516,1176,8005,-54,0,0,0,0,0
517,1241,8070,-58,0,0,0,0,0
518,1276,8130,-18,0,0,0,0,0
519,1168,8016,76,0,0,0,0,0
520,1249,8058,-38,0,0,0,0,0
521,1218,8066,-24,0,0,0,0,0
522,1239,8045,-24,0,0,0,0,0
523,1245,8075,-28,0,0,0,0,0
524,1227,8059,-7,0,0,0,0,0
525,1234,8072,-30,0,0,0,0,0
526,1256,8060,-76,0,0,0,0,0
527,1228,8042,-50,0,0,0,0,0
528,1208,8054,-34,0,0,0,0,0
529,1243,8068,-39,0,0,0,0,0
530,1241,8071,-53,0,0,0,0,0
531,1242,8043,-23,0,0,0,0,0
532,1223,8092,-37,0,0,0,0,0
533,1228,8046,-24,0,0,0,0,0
534,1243,8061,-66,0,0,0,0,0
535,1246,8068,-61,0,0,0,0,0
536,1225,8070,-32,0,0,0,0,0
537,1220,8053,1,0,0,0,0,0
538,1250,8075,-18,0,0,0,0,0
539,1234,8069,-61,0,0,0,0,0
540,1221,8052,-52,0,0,0,0,0
541,1245,8071,-24,0,0,0,0,0
542,1248,8062,-22,0,0,0,0,0
543,1219,8056,-41,0,0,0,0,0
544,1234,8076,-40,0,0,0,0,0
545,1239,8055,-14,0,0,0,0,0
546,1242,8055,-8,0,0,0,0,0
547,1220,8075,-80,0,0,0,0,0
548,1242,8050,-44,0,0,0,0,0
549,1245,8061,-4,0,0,0,0,0
550,1218,8057,-15,0,0,0,0,0
551,1246,8076,-75,0,0,0,0,0
552,1238,8050,-68,0,0,0,0,0
553,1216,8080,12,0,0,0,0,0
554,1210,8079,-83,0,0,0,0,0
555,1241,8096,-14,0,0,0,0,0
556,1271,8069,-78,0,0,0,0,0
557,1213,8091,-106,0,0,0,0,0
558,1242,8024,-54,0,0,0,0,0
559,1239,8073,-31,0,0,0,0,0
560,1244,8074,-12,0,0,0,0,0
561,1240,8047,-43,0,0,0,0,0
562,1223,8059,-6,0,0,0,0,0
563,1230,8070,-18,0,0,0,0,0
564,1236,8036,-50,0,0,0,0,0
565,1236,8077,-56,0,0,0,0,0
566,1224,8056,-25,0,0,0,0,0
567,1239,8069,-24,0,0,0,0,0
568,1236,8050,-32,0,0,0,0,0
569,1231,8076,-42,0,0,0,0,0
570,1229,8046,-45,0,0,0,0,0
571,1248,8064,-30,0,0,0,0,0
572,1225,8055,-30,0,0,0,0,0
573,1235,8054,-42,0,0,0,0,0
574,1253,8068,-14,0,0,0,0,0
575,1240,8080,-22,0,0,0,0,0
576,1228,8025,-26,0,0,0,0,0
577,1233,8082,-46,0,0,0,0,0
578,1248,8053,-20,0,0,0,0,0
579,1245,8052,-50,0,0,0,0,0
580,1223,8061,-40,0,0,0,0,0
581,1248,8066,-3,0,0,0,0,0
582,1222,8068,-12,0,0,0,0,0
583,1244,8063,-64,0,0,0,0,0
584,1244,8056,-75,0,0,0,0,0
585,1239,8082,-10,0,0,0,0,0
586,1219,8061,3,0,0,0,0,0
587,1252,8068,-27,0,0,0,0,0
588,1235,8036,-74,0,0,0,0,0
589,1216,8086,-44,0,0,0,0,0
590,1233,8038,-18,0,0,0,0,0
591,1258,8081,-38,0,0,0,0,0
592,1234,8056,-22,0,0,0,0,0
593,1243,8056,-30,0,0,0,0,0
594,1240,8075,-49,0,0,0,0,0
595,1227,8052,-22,0,0,0,0,0
596,1252,8064,-27,0,0,0,0,0
597,1255,8062,-36,0,0,0,0,0
598,1204,8087,-34,0,0,0,0,0
599,1246,8072,-22,0,0,0,0,0
600,1266,8038,-44,0,0,0,0,0
601,1224,8063,-35,0,0,0,0,0
602,1196,8077,-25,0,0,0,0,0
603,1268,8055,-45,0,0,0,0,0
604,1249,8054,-44,0,0,0,0,0
605,1226,8074,-20,0,0,0,0,0
606,1229,8056,-29,0,0,0,0,0
607,1236,8056,-47,0,0,0,0,0
608,1220,8079,-34,0,0,0,0,0
609,1236,8059,-8,0,0,0,0,0
610,1246,8050,-22,0,0,0,0,0
611,1228,8075,-59,0,0,0,0,0
612,1228,8051,-47,0,0,0,0,0
613,1247,8091,-6,0,0,0,0,0
614,1232,8057,9,0,0,0,0,0
615,1246,8054,-17,0,0,0,0,0
616,1273,8092,-55,0,0,0,0,0
617,1234,8006,-19,0,0,0,0,0
618,1207,8094,39,0,0,0,0,0
619,1244,8080,-72,0,0,0,0,0
620,1218,8002,-130,0,0,0,0,0
621,1230,8088,-9,0,0,0,0,0
622,1272,8061,39,0,0,0,0,0
623,1216,8046,-48,0,0,0,0,0
624,1226,8057,-104,0,0,0,0,0
625,1233,8083,-124,0,0,0,0,0
626,1251,8032,20,0,0,0,0,0
627,1227,8093,9,0,0,0,0,0
628,1238,8042,-48,0,0,0,0,0
629,1248,8052,-84,0,0,0,0,0
630,1238,8094,-39,0,0,0,0,0
631,1232,8054,10,0,0,0,0,0
632,1229,8058,-16,0,0,0,0,0
633,1252,8068,-30,0,0,0,0,0
634,1232,8071,-82,0,0,0,0,0
635,1226,8046,-49,0,0,0,0,0
636,1231,8086,-2,0,0,0,0,0
637,1233,8081,-20,0,0,0,0,0
638,1234,8044,-46,0,0,0,0,0
639,1226,8049,-59,0,0,0,0,0
640,1270,8087,-22,0,0,0,0,0
641,1245,8053,-17,0,0,0,0,0
642,1226,8055,-8,0,0,0,0,0
643,1230,8070,-26,0,0,0,0,0
644,1235,8064,-60,0,0,0,0,0
645,1242,8043,-23,0,0,0,0,0
646,1224,8064,-18,0,0,0,0,0
647,1242,8078,-19,0,0,0,0,0
648,1240,8052,-50,0,0,0,0,0
649,1226,8051,-49,0,0,0,0,0
650,1236,8083,-12,0,0,0,0,0
651,1235,8057,-22,0,0,0,0,0
652,1248,8056,-28,0,0,0,0,0
653,1224,8066,-72,0,0,0,0,0
654,1242,8066,-31,0,0,0,0,0
655,1238,8043,7,0,0,0,0,0
656,1262,8089,-25,0,0,0,0,0
657,1233,8063,-66,0,0,0,0,0
658,1225,8061,-45,0,0,0,0,0
659,1241,8034,-26,0,0,0,0,0
660,1242,8096,-13,0,0,0,0,0
661,1248,8069,-19,0,0,0,0,0
662,1222,8038,-68,0,0,0,0,0
663,1250,8062,-46,0,0,0,0,0
664,1213,8081,-34,0,0,0,0,0
665,1229,8051,-10,0,0,0,0,0
666,1242,8063,-33,0,0,0,0,0
667,1251,8089,-53,0,0,0,0,0
668,1230,8063,-49,0,0,0,0,0
669,1220,8044,-27,0,0,0,0,0
670,1240,8078,-18,0,0,0,0,0
671,1237,8065,-44,0,0,0,0,0
672,1215,8076,-66,0,0,0,0,0
673,1231,8046,-41,0,0,0,0,0
674,1246,8090,-16,0,0,0,0,0
675,1248,8059,-22,0,0,0,0,0
676,1234,8074,-48,0,0,0,0,0
677,1233,8050,-23,0,0,0,0,0
678,1245,8064,-28,0,0,0,0,0
679,1240,8068,-36,0,0,0,0,0
680,1229,8070,-36,0,0,0,0,0
681,1239,8066,-15,0,0,0,0,0
682,1223,8060,-42,0,0,0,0,0
683,1246,8064,-35,0,0,0,0,0
684,1227,8073,-36,0,0,0,0,0
685,1238,8057,-30,0,0,0,0,0
686,1228,8043,-40,0,0,0,0,0
687,1246,8071,-23,0,0,0,0,0
688,1235,8083,-53,0,0,0,0,0
689,1238,8038,-24,0,0,0,0,0
690,1228,8079,-27,0,0,0,0,0
691,1231,8047,-43,0,0,0,0,0
692,1242,8077,-38,0,0,0,0,0
693,1239,8066,-26,0,0,0,0,0
694,1242,8069,-16,0,0,0,0,0
695,1227,8052,-36,0,0,0,0,0
696,1252,8074,-42,0,0,0,0,0
697,1234,8060,-41,0,0,0,0,0
698,1232,8060,-26,0,0,0,0,0
699,1244,8076,-36,0,0,0,0,0
700,1231,8050,-34,0,0,0,0,0
701,1237,8066,-33,0,0,0,0,0
702,1241,8067,-36,0,0,0,0,0
703,1237,8063,-20,0,0,0,0,0
704,1236,8058,-24,0,0,0,0,0
705,1239,8076,-46,0,0,0,0,0
706,1236,8048,-30,0,0,0,0,0
707,1230,8066,-13,0,0,0,0,0
708,1235,8074,-34,0,0,0,0,0
709,1246,8055,-37,0,0,0,0,0
710,1242,8080,-36,0,0,0,0,0
711,1235,8058,-30,0,0,0,0,0
712,1241,8060,-36,0,0,0,0,0
713,1245,8060,-30,0,0,0,0,0
714,1239,8069,-47,0,0,0,0,0
715,1229,8061,-26,0,0,0,0,0
716,1247,8070,-29,0,0,0,0,0
717,1240,8052,-32,0,0,0,0,0
718,1230,8070,-34,0,0,0,0,0
719,1233,8059,-32,0,0,0,0,0
720,1230,8058,-36,0,0,0,0,0
721,1244,8059,-40,0,0,0,0,0
722,1241,8069,-36,0,0,0,0,0
723,1230,8061,-28,0,0,0,0,0
724,1236,8056,-20,0,0,0,0,0
725,1226,8052,-37,0,0,0,0,0
726,1228,8065,-32,0,0,0,0,0
727,1239,8064,-35,0,0,0,0,0
728,1228,8058,-36,0,0,0,0,0
729,1225,8052,-28,0,0,0,0,0
730,1235,8081,-38,0,0,0,0,0
731,1234,8048,-34,0,0,0,0,0
732,1231,8060,-26,0,0,0,0,0
733,1232,8057,-32,0,0,0,0,0
734,1230,8054,-34,0,0,0,0,0
735,1236,8072,-34,0,0,0,0,0
736,1237,8066,-34,0,0,0,0,0
737,1240,8055,-41,0,0,0,0,0
738,1230,8056,-18,0,0,0,0,0
739,1240,8085,-42,0,0,0,0,0
740,1233,8040,-36,0,0,0,0,0
741,1236,8068,-42,0,0,0,0,0
742,1234,8074,-21,0,0,0,0,0
743,1251,8049,-48,0,0,0,0,0
744,1237,8090,-36,0,0,0,0,0
745,1232,8067,-54,0,0,0,0,0
746,1232,8059,-22,0,0,0,0,0
747,1240,8058,-31,0,0,0,0,0
748,1243,8069,-38,0,0,0,0,0
749,1228,8021,-88,0,0,0,0,0
750,1248,8086,-42,0,0,0,0,0
751,1225,8090,-20,0,0,0,0,0
752,1245,8034,-53,0,0,0,0,0
753,1235,8077,-49,0,0,0,0,0
754,1240,8086,-35,0,0,0,0,0
755,1218,8028,6,0,0,0,0,0
756,1233,8032,1,0,0,0,0,0
757,1256,8114,-104,0,0,0,0,0
758,1248,8032,-27,0,0,0,0,0
759,1237,8074,41,0,0,0,0,0
760,1210,8084,-11,0,0,0,0,0
761,1262,8033,-53,0,0,0,0,0
762,1240,8047,-93,0,0,0,0,0
763,1227,8086,36,0,0,0,0,0
764,1235,8054,-4,0,0,0,0,0
765,1247,8049,-15,0,0,0,0,0
766,1228,8088,-81,0,0,0,0,0
767,1244,8055,-72,0,0,0,0,0
768,1250,8063,-3,0,0,0,0,0
769,1218,8076,-12,0,0,0,0,0
770,1254,8098,71,0,0,0,0,0
771,1220,8058,34,0,0,0,0,0
772,1260,8084,-78,0,0,0,0,0
773,1244,8071,-102,0,0,0,0,0
774,1210,8060,-5,0,0,0,0,0
775,1243,8027,-38,0,0,0,0,0
776,1244,8064,-38,0,0,0,0,0
777,1232,8086,-20,0,0,0,0,0
778,1227,8042,1,0,0,0,0,0
779,1246,8044,-47,0,0,0,0,0
780,1233,8086,-32,0,0,0,0,0
781,1238,8055,-15,0,0,0,0,0
782,1254,8067,-28,0,0,0,0,0
783,1218,8048,-39,0,0,0,0,0
784,1253,8074,-42,0,0,0,0,0
785,1243,8063,-32,0,0,0,0,0
786,1242,8060,-21,0,0,0,0,0
787,1225,8046,-45,0,0,0,0,0
788,1254,8071,-27,0,0,0,0,0
789,1236,8047,-38,0,0,0,0,0
790,1250,8066,-21,0,0,0,0,0
791,1232,8068,-38,0,0,0,0,0
792,1248,8058,-15,0,0,0,0,0
793,1222,8054,-28,0,0,0,0,0
794,1242,8076,-32,0,0,0,0,0
795,1239,8052,-37,0,0,0,0,0
796,1248,8061,-13,0,0,0,0,0
797,1199,8037,-60,0,0,0,0,0
798,1216,8027,-43,0,0,0,0,0
799,1228,8042,-38,0,0,0,0,0
800,1240,8020,-8,0,0,0,0,0
801,1218,8100,-53,0,0,0,0,0
802,1256,8028,-49,0,0,0,0,0
803,1238,8071,-51,0,0,0,0,0
804,1229,8054,-36,0,0,0,0,0
805,1237,8069,-40,0,0,0,0,0
806,1232,8047,-34,0,0,0,0,0
807,1244,8069,-34,0,0,0,0,0
808,1238,8061,-18,0,0,0,0,0
809,1242,8070,-34,0,0,0,0,0
810,1230,8064,-32,0,0,0,0,0
811,1236,8064,-34,0,0,0,0,0
812,1235,8054,-31,0,0,0,0,0
813,1238,8085,-28,0,0,0,0,0
814,1230,8051,-36,0,0,0,0,0
815,1239,8063,-38,0,0,0,0,0
816,1248,8062,-24,0,0,0,0,0
817,1244,8055,-24,0,0,0,0,0
818,1237,8088,-34,0,0,0,0,0
819,1233,8046,-40,0,0,0,0,0
820,1230,8059,-32,0,0,0,0,0
821,1238,8058,-19,0,0,0,0,0
822,1239,8062,-36,0,0,0,0,0
823,1244,8058,-33,0,0,0,0,0
824,1234,8068,-28,0,0,0,0,0
825,1230,8044,-34,0,0,0,0,0
826,1241,8064,-45,0,0,0,0,0
827,1234,8070,-28,0,0,0,0,0
828,1234,8053,-28,0,0,0,0,0
829,1235,8067,-32,0,0,0,0,0
830,1229,8044,-24,0,0,0,0,0
831,1237,8076,-38,0,0,0,0,0
832,1239,8060,-38,0,0,0,0,0
833,1224,8056,-45,0,0,0,0,0
834,1242,8067,-29,0,0,0,0,0
835,1249,8063,-17,0,0,0,0,0
836,1220,8058,-29,0,0,0,0,0
837,1250,8066,-36,0,0,0,0,0
838,1242,8066,-37,0,0,0,0,0
839,1228,8051,-22,0,0,0,0,0
840,1229,8069,-26,0,0,0,0,0
841,1234,8059,-46,0,0,0,0,0
842,1232,8050,-29,0,0,0,0,0
843,1232,8078,-35,0,0,0,0,0
844,1228,8026,-2,0,0,0,0,0
845,1228,8084,-37,0,0,0,0,0
846,1248,8090,-38,0,0,0,0,0
847,1224,8038,-44,0,0,0,0,0
848,1236,8062,-24,0,0,0,0,0
849,1234,8061,-31,0,0,0,0,0
850,1234,8056,-33,0,0,0,0,0
851,1242,8053,-34,0,0,0,0,0
852,1234,8052,-18,0,0,0,0,0
853,1232,8048,-34,0,0,0,0,0
854,1240,8077,-38,0,0,0,0,0
855,1234,8059,-33,0,0,0,0,0
856,1229,8041,-34,0,0,0,0,0
857,1225,8054,-32,0,0,0,0,0
858,1229,8055,-45,0,0,0,0,0
859,1245,8067,-44,0,0,0,0,0
860,1239,8068,-32,0,0,0,0,0
861,1239,8052,-27,0,0,0,0,0
862,1238,8075,-35,0,0,0,0,0
863,1236,8052,-36,0,0,0,0,0
864,1240,8058,-29,0,0,0,0,0
865,1242,8077,-32,0,0,0,0,0
866,1231,8061,-30,0,0,0,0,0
867,1230,8051,-29,0,0,0,0,0
868,1237,8073,-33,0,0,0,0,0
869,1242,8042,-27,0,0,0,0,0
870,1239,8086,-22,0,0,0,0,0
871,1227,8060,-36,0,0,0,0,0
872,1238,8063,-39,0,0,0,0,0
873,1232,8056,-18,0,0,0,0,0
874,1244,8085,-30,0,0,0,0,0
875,1234,8035,-36,0,0,0,0,0
876,1235,8052,-42,0,0,0,0,0
877,1240,8082,-46,0,0,0,0,0
878,1242,8062,-35,0,0,0,0,0
879,1245,8057,-24,0,0,0,0,0
880,1244,8070,-39,0,0,0,0,0
881,1242,8061,-43,0,0,0,0,0
882,1233,8074,-43,0,0,0,0,0
883,1253,8062,-26,0,0,0,0,0
884,1227,8064,-25,0,0,0,0,0
885,1248,8063,-24,0,0,0,0,0
886,1242,8069,-53,0,0,0,0,0
887,1239,8043,-18,0,0,0,0,0
888,1238,8036,-22,0,0,0,0,0
889,1237,8082,-39,0,0,0,0,0
890,1225,8059,-35,0,0,0,0,0
891,1232,8080,-33,0,0,0,0,0
892,1235,8045,-39,0,0,0,0,0
893,1232,8056,-28,0,0,0,0,0
894,1227,8059,-30,0,0,0,0,0
895,1231,8052,-23,0,0,0,0,0
896,1229,8059,-40,0,0,0,0,0
897,1241,8064,-28,0,0,0,0,0
898,1230,8058,-41,0,0,0,0,0
899,1240,8057,-14,0,0,0,0,0
900,1228,8063,-37,0,0,0,0,0
901,1236,8067,-26,0,0,0,0,0
902,1230,8063,-36,0,0,0,0,0
903,1240,8064,-35,0,0,0,0,0
904,1247,8064,-26,0,0,0,0,0
905,1236,8064,-44,0,0,0,0,0
906,1232,8062,-36,0,0,0,0,0
907,1236,8059,-28,0,0,0,0,0
908,1235,8056,-30,0,0,0,0,0
909,1232,8070,-26,0,0,0,0,0
910,1234,8044,-25,0,0,0,0,0
911,1240,8055,-45,0,0,0,0,0
912,1229,8070,-49,0,0,0,0,0
913,1224,8048,-12,0,0,0,0,0
914,1243,8060,-20,0,0,0,0,0
915,1228,8074,-54,0,0,0,0,0
916,1206,8054,-36,0,0,0,0,0
917,1243,8066,-25,0,0,0,0,0
918,1241,8046,-24,0,0,0,0,0
919,1242,8066,-46,0,0,0,0,0
920,1224,8066,-42,0,0,0,0,0
921,1234,8047,-26,0,0,0,0,0
922,1234,8058,-20,0,0,0,0,0
923,1242,8052,-37,0,0,0,0,0
924,1241,8061,-36,0,0,0,0,0
925,1242,8074,-33,0,0,0,0,0
926,1237,8044,-40,0,0,0,0,0
927,1230,8080,-31,0,0,0,0,0
928,1236,8067,-22,0,0,0,0,0
929,1232,8055,-31,0,0,0,0,0
930,1254,8066,-18,0,0,0,0,0
931,1212,8057,-44,0,0,0,0,0
932,1232,8069,-38,0,0,0,0,0
933,1236,8073,-21,0,0,0,0,0
934,1234,8052,-36,0,0,0,0,0
935,1230,8076,-32,0,0,0,0,0
936,1252,8064,-41,0,0,0,0,0
937,1220,8050,-36,0,0,0,0,0
938,1251,8056,-38,0,0,0,0,0
939,1244,8070,-24,0,0,0,0,0
940,1222,8054,-30,0,0,0,0,0
941,1244,8056,-32,0,0,0,0,0
942,1231,8062,-31,0,0,0,0,0
943,1245,8050,-28,0,0,0,0,0
944,1247,8081,-40,0,0,0,0,0
945,1223,8063,-33,0,0,0,0,0
946,1243,8063,-22,0,0,0,0,0
947,1233,8053,-38,0,0,0,0,0
948,1238,8062,-44,0,0,0,0,0
949,1233,8068,-38,0,0,0,0,0
950,1230,8047,-25,0,0,0,0,0
951,1234,8069,-29,0,0,0,0,0
952,1244,8064,-47,0,0,0,0,0
953,1246,8059,-34,0,0,0,0,0
954,1225,8050,-29,0,0,0,0,0
955,1242,8080,-24,0,0,0,0,0
956,1240,8059,-53,0,0,0,0,0
957,1239,8059,-25,0,0,0,0,0
958,1231,8074,-30,0,0,0,0,0
959,1242,8046,-29,0,0,0,0,0
960,1248,8077,-38,0,0,0,0,0
961,1235,8066,-40,0,0,0,0,0
962,1246,8069,-36,0,0,0,0,0
963,1234,8057,-42,0,0,0,0,0
964,1246,8064,-23,0,0,0,0,0
965,1225,8057,-44,0,0,0,0,0
966,1237,8066,-35,0,0,0,0,0
967,1238,8060,-34,0,0,0,0,0
968,1238,8054,-21,0,0,0,0,0
969,1225,8074,-30,0,0,0,0,0
970,1248,8060,-28,0,0,0,0,0
971,1238,8065,-38,0,0,0,0,0
972,1235,8052,-22,0,0,0,0,0
973,1231,8070,-28,0,0,0,0,0
974,1229,8068,-29,0,0,0,0,0
975,1248,8060,-33,0,0,0,0,0
976,1229,8064,-25,0,0,0,0,0
977,1237,8072,-32,0,0,0,0,0
978,1234,8047,-36,0,0,0,0,0
979,1242,8074,-26,0,0,0,0,0
980,1240,8061,-30,0,0,0,0,0
981,1237,8056,-30,0,0,0,0,0
982,1234,8062,-24,0,0,0,0,0
983,1241,8064,-22,0,0,0,0,0
984,1236,8060,-53,0,0,0,0,0
985,1242,8050,-31,0,0,0,0,0
986,1234,8079,-33,0,0,0,0,0
987,1230,8054,-21,0,0,0,0,0
988,1242,8075,-42,0,0,0,0,0
989,1227,8062,-28,0,0,0,0,0
990,1238,8076,-44,0,0,0,0,0
991,1233,8049,-31,0,0,0,0,0
992,1237,8075,-38,0,0,0,0,0
993,1230,8047,-24,0,0,0,0,0
994,1248,8080,-28,0,0,0,0,0
995,1229,8056,-24,0,0,0,0,0
996,1232,8071,-35,0,0,0,0,0
997,1234,8055,-37,0,0,0,0,0
998,1238,8078,-20,0,0,0,0,0
999,1232,8043,-62,0,0,0,0,0
1000,1239,8052,-57,0,0,0,0,0
1001,1222,8068,-22,0,0,0,0,0
1002,1243,8056,-29,0,0,0,0,0
1003,1241,8057,-17,0,0,0,0,0
1004,1238,8063,-44,0,0,0,0,0
1005,1237,8070,-38,0,0,0,0,0
1006,1236,8052,-29,0,0,0,0,0
1007,1238,8078,-24,0,0,0,0,0
1008,1222,8062,-32,0,0,0,0,0
1009,1229,8074,-48,0,0,0,0,0
1010,1242,8055,-40,0,0,0,0,0
1011,1220,8061,-50,0,0,0,0,0
1012,1238,8074,-53,0,0,0,0,0
1013,1227,8051,-31,0,0,0,0,0
1014,1257,8055,2,0,0,0,0,0
1015,1238,8070,-23,0,0,0,0,0
1016,1219,8052,-30,0,0,0,0,0
1017,1231,8029,-73,0,0,0,0,0
1018,1258,8095,-72,0,0,0,0,0
1019,1222,8066,0,0,0,0,0,0
1020,1237,8055,2,0,0,0,0,0
1021,1231,8049,-59,0,0,0,0,0
1022,1245,8070,-60,0,0,0,0,0
1023,1224,8060,-36,0,0,0,0,0
1024,1235,8064,8,0,0,0,0,0
1025,1232,8050,-17,0,0,0,0,0
1026,1266,8064,-42,0,0,0,0,0
1027,1228,8061,-52,0,0,0,0,0
1028,1227,8050,-26,0,0,0,0,0
1029,1237,8044,-8,0,0,0,0,0
1030,1242,8077,-42,0,0,0,0,0
1031,1232,8046,-74,0,0,0,0,0
1032,1226,8054,-11,0,0,0,0,0
1033,1229,8077,-24,0,0,0,0,0
1034,1236,8052,-18,0,0,0,0,0
1035,1248,8066,-40,0,0,0,0,0
1036,1229,8053,-44,0,0,0,0,0
1037,1236,8070,-16,0,0,0,0,0
1038,1246,8051,-17,0,0,0,0,0
1039,1236,8062,-54,0,0,0,0,0
1040,1229,8055,-36,0,0,0,0,0
1041,1282,8059,-60,0,0,0,0,0
1042,1234,8050,-24,0,0,0,0,0
1043,1224,8074,-13,0,0,0,0,0
1044,1239,8046,-23,0,0,0,0,0
1045,1254,8064,-6,0,0,0,0,0
1046,1238,8051,-58,0,0,0,0,0
1047,1224,8085,-33,0,0,0,0,0
1048,1226,8021,-24,0,0,0,0,0
1049,1226,8059,-14,0,0,0,0,0
1050,1242,8074,-22,0,0,0,0,0
1051,1243,8056,-28,0,0,0,0,0
1052,1252,8074,-50,0,0,0,0,0
1053,1229,8042,-12,0,0,0,0,0
1054,1242,8068,-28,0,0,0,0,0
1055,1245,8080,-26,0,0,0,0,0
1056,1221,8060,-34,0,0,0,0,0
1057,1234,8044,-52,0,0,0,0,0
1058,1252,8056,-34,0,0,0,0,0
1059,1228,8087,-16,0,0,0,0,0
1060,1236,8036,-38,0,0,0,0,0
1061,1236,8054,-45,0,0,0,0,0
1062,1248,8036,-31,0,0,0,0,0
1063,1242,8049,-16,0,0,0,0,0
1064,1226,8070,-29,0,0,0,0,0
1065,1236,8054,-60,0,0,0,0,0
1066,1242,8041,-33,0,0,0,0,0
1067,1255,8096,-28,0,0,0,0,0
1068,1228,8038,-18,0,0,0,0,0
1069,1224,8064,-44,0,0,0,0,0
1070,1231,8066,-32,0,0,0,0,0
1071,1254,8066,-24,0,0,0,0,0
1072,1231,8061,-32,0,0,0,0,0
1073,1228,8067,-41,0,0,0,0,0
1074,1222,8058,-36,0,0,0,0,0
1075,1258,8080,-28,0,0,0,0,0
1076,1230,8045,-23,0,0,0,0,0
1077,1234,8050,-26,0,0,0,0,0
1078,1230,8074,-56,0,0,0,0,0
1079,1250,8060,-33,0,0,0,0,0
1080,1232,8060,-42,0,0,0,0,0
1081,1243,8060,-2,0,0,0,0,0
1082,1232,8065,-54,0,0,0,0,0
1083,1230,8040,-14,0,0,0,0,0
1084,1242,8081,-35,0,0,0,0,0
1085,1242,8049,-27,0,0,0,0,0
1086,1244,8056,-19,0,0,0,0,0
1087,1225,8053,-36,0,0,0,0,0
1088,1235,8072,-46,0,0,0,0,0
1089,1232,8032,-29,0,0,0,0,0
1090,1234,8039,-48,0,0,0,0,0
1091,1225,8110,-13,0,0,0,0,0
1092,1250,8082,-15,0,0,0,0,0
1093,1243,8012,-66,0,0,0,0,0
1094,1215,8082,-14,0,0,0,0,0
1095,1253,8078,-28,0,0,0,0,0
1096,1250,8027,-75,0,0,0,0,0
1097,1211,8075,-21,0,0,0,0,0
1098,1238,8076,-5,0,0,0,0,0
1099,1245,8053,-27,0,0,0,0,0
1100,1201,8071,52,0,0,0,0,0
1101,1220,8082,-135,0,0,0,0,0
1102,1260,8056,-2,0,0,0,0,0
1103,1244,7984,-72,0,0,0,0,0
1104,1195,8026,-2,0,0,0,0,0
1105,1262,8048,-105,0,0,0,0,0
1106,1264,8076,80,0,0,0,0,0
1107,1218,8125,-72,0,0,0,0,0
1108,1209,7976,-32,0,0,0,0,0
1109,1243,8034,-42,0,0,0,0,0
1110,1266,8244,-2,0,0,0,0,0
1111,1207,8040,-114,0,0,0,0,0
1112,1212,7985,31,0,0,0,0,0
1113,1272,8088,-74,0,0,0,0,0
1114,1210,8060,-73,0,0,0,0,0
1115,1193,7983,-40,0,0,0,0,0
1116,1260,8063,-42,0,0,0,0,0
1117,1268,8121,-32,0,0,0,0,0
1118,1218,8020,-51,0,0,0,0,0
1119,1228,8064,-16,0,0,0,0,0
1120,1254,8074,-36,0,0,0,0,0
1121,1244,8044,-32,0,0,0,0,0
1122,1224,8040,-48,0,0,0,0,0
1123,1248,8089,-16,0,0,0,0,0
1124,1242,8068,-9,0,0,0,0,0
1125,1222,8064,-48,0,0,0,0,0
1126,1231,8030,-59,0,0,0,0,0
1127,1252,8066,-35,0,0,0,0,0
1128,1241,8072,5,0,0,0,0,0
1129,1212,8040,-62,0,0,0,0,0
1130,1242,8062,-64,0,0,0,0,0
1131,1256,8091,-38,0,0,0,0,0
1132,1254,8052,-3,0,0,0,0,0
1133,1220,8047,-29,0,0,0,0,0
1134,1241,8082,-22,0,0,0,0,0
1135,1242,8093,-49,0,0,0,0,0
1136,1245,8057,-58,0,0,0,0,0
1137,1253,8068,-36,0,0,0,0,0
1138,1221,8100,7,0,0,0,0,0
1139,1233,8053,-38,0,0,0,0,0
1140,1247,8047,-14,0,0,0,0,0
1141,1234,8071,-54,0,0,0,0,0
1142,1239,8060,0,0,0,0,0,0
1143,1217,8046,-29,0,0,0,0,0
1144,1236,8057,-14,0,0,0,0,0
1145,1240,8048,-55,0,0,0,0,0
1146,1254,8057,-34,0,0,0,0,0
1147,1224,8071,6,0,0,0,0,0
1148,1250,8068,-28,0,0,0,0,0
1149,1233,8070,-40,0,0,0,0,0
1150,1234,8084,-13,0,0,0,0,0
1151,1232,8066,-46,0,0,0,0,0
1152,1250,8054,-7,0,0,0,0,0
1153,1222,8075,-24,0,0,0,0,0
1154,1244,8056,-24,0,0,0,0,0
1155,1240,8052,-40,0,0,0,0,0
1156,1226,8061,-29,0,0,0,0,0
1157,1226,8063,2,0,0,0,0,0
1158,1243,8059,-24,0,0,0,0,0
1159,1226,8075,-15,0,0,0,0,0
1160,1227,8052,-52,0,0,0,0,0
1161,1240,8059,-34,0,0,0,0,0
1162,1240,8089,-2,0,0,0,0,0
1163,1226,8047,-38,0,0,0,0,0
1164,1251,8065,-18,0,0,0,0,0
1165,1238,8053,-39,0,0,0,0,0
1166,1249,8067,-51,0,0,0,0,0
1167,1228,8052,-12,0,0,0,0,0
1168,1245,8078,-34,0,0,0,0,0
1169,1251,8032,-45,0,0,0,0,0
1170,1226,8092,-46,0,0,0,0,0
1171,1244,8059,-6,0,0,0,0,0
1172,1245,8076,-20,0,0,0,0,0
1173,1237,8064,-42,0,0,0,0,0
1174,1233,8046,-38,0,0,0,0,0
1175,1244,8057,-40,0,0,0,0,0
1176,1230,8060,-15,0,0,0,0,0
1177,1217,8051,-16,0,0,0,0,0
1178,1248,8048,-35,0,0,0,0,0
1179,1257,8072,-59,0,0,0,0,0
1180,1194,8024,-48,0,0,0,0,0
1181,1235,8067,-18,0,0,0,0,0
1182,1263,8052,-20,0,0,0,0,0
1183,1244,8062,-46,0,0,0,0,0
1184,1206,8070,-49,0,0,0,0,0
1185,1240,8072,-20,0,0,0,0,0
1186,1242,8030,-34,0,0,0,0,0
1187,1228,8058,-33,0,0,0,0,0
1188,1213,8092,-6,0,0,0,0,0
1189,1248,8043,-2,0,0,0,0,0
1190,1229,8039,-31,0,0,0,0,0
1191,1239,8038,-59,0,0,0,0,0
1192,1222,8116,-6,0,0,0,0,0
1193,1244,8053,-49,0,0,0,0,0
1194,1238,8045,-36,0,0,0,0,0
1195,1234,8058,-31,0,0,0,0,0
1196,1223,8045,-26,0,0,0,0,0
1197,1252,8078,-15,0,0,0,0,0
1198,1247,8082,-20,0,0,0,0,0
1199,1234,8080,-42,0,0,0,0,0
1200,1252,8091,-30,0,0,0,0,0
1201,1222,8046,-14,0,0,0,0,0
1202,1231,8050,-40,0,0,0,0,0
1203,1239,8064,-46,0,0,0,0,0
1204,1255,8080,-40,0,0,0,0,0
1205,1207,8035,-22,0,0,0,0,0
1206,1249,8082,-28,0,0,0,0,0
1207,1228,8068,-36,0,0,0,0,0
1208,1232,8066,-32,0,0,0,0,0
1209,1244,8065,-24,0,0,0,0,0
1210,1226,8042,-19,0,0,0,0,0
1211,1226,8061,-30,0,0,0,0,0
1212,1265,8069,-34,0,0,0,0,0
1213,1227,8056,-46,0,0,0,0,0
1214,1244,8058,-16,0,0,0,0,0
1215,1226,8076,-45,0,0,0,0,0
1216,1241,8070,-36,0,0,0,0,0
1217,1238,8040,-18,0,0,0,0,0
1218,1249,8071,-40,0,0,0,0,0
1219,1218,8078,-46,0,0,0,0,0
1220,1252,8043,-9,0,0,0,0,0
1221,1218,8060,-43,0,0,0,0,0
1222,1236,8088,-34,0,0,0,0,0
1223,1233,8082,-54,0,0,0,0,0
1224,1225,8069,-43,0,0,0,0,0
1225,1244,8065,-28,0,0,0,0,0
1226,1242,8052,-27,0,0,0,0,0
1227,1238,8072,-49,0,0,0,0,0
1228,1228,8033,-34,0,0,0,0,0
1229,1248,8086,-32,0,0,0,0,0
1230,1228,8048,-30,0,0,0,0,0
1231,1228,8070,-30,0,0,0,0,0
1232,1231,8060,-24,0,0,0,0,0
1233,1235,8048,-26,0,0,0,0,0
1234,1222,8067,-31,0,0,0,0,0
1235,1240,8052,-40,0,0,0,0,0
1236,1236,8060,-30,0,0,0,0,0
1237,1230,8063,-19,0,0,0,0,0
1238,1240,8068,-30,0,0,0,0,0
1239,1234,8043,-28,0,0,0,0,0
1240,1240,8082,-36,0,0,0,0,0
1241,1230,8045,-28,0,0,0,0,0
1242,1238,8060,-32,0,0,0,0,0
1243,1250,8063,-44,0,0,0,0,0
1244,1232,8063,-37,0,0,0,0,0
1245,1240,8070,-35,0,0,0,0,0
1246,1230,8052,-42,0,0,0,0,0
1247,1241,8077,-29,0,0,0,0,0
1248,1228,8064,-20,0,0,0,0,0
1249,1238,8058,-42,0,0,0,0,0
1250,1226,8068,-44,0,0,0,0,0
1251,1250,8060,-21,0,0,0,0,0
1252,1223,8062,-36,0,0,0,0,0
1253,1239,8060,-36,0,0,0,0,0
1254,1246,8070,-24,0,0,0,0,0
1255,1252,8084,-13,0,0,0,0,0
1256,1224,8046,-57,0,0,0,0,0
1257,1233,8069,-41,0,0,0,0,0
1258,1228,8034,-25,0,0,0,0,0
1259,1234,8069,-28,0,0,0,0,0
1260,1242,8059,-22,0,0,0,0,0
1261,1236,8062,-40,0,0,0,0,0
1262,1219,8058,-55,0,0,0,0,0
1263,1234,8053,-62,0,0,0,0,0
1264,1242,8065,-11,0,0,0,0,0
1265,1249,8084,-8,0,0,0,0,0
1266,1248,8047,-46,0,0,0,0,0
1267,1229,8066,-28,0,0,0,0,0
1268,1224,8056,13,0,0,0,0,0
1269,1239,8059,-84,0,0,0,0,0
1270,1258,8062,-53,0,0,0,0,0
1271,1225,8077,15,0,0,0,0,0
1272,1214,8049,-8,0,0,0,0,0
1273,1243,8038,-76,0,0,0,0,0
1274,1238,8082,-67,0,0,0,0,0
1275,1240,8054,0,0,0,0,0,0
1276,1224,8058,5,0,0,0,0,0
1277,1256,8063,-20,0,0,0,0,0
1278,1250,8055,-66,0,0,0,0,0
1279,1246,8052,-13,0,0,0,0,0
1280,1224,8078,-20,0,0,0,0,0
1281,1247,8063,-21,0,0,0,0,0
1282,1238,8043,-52,0,0,0,0,0
1283,1236,8086,-43,0,0,0,0,0
1284,1243,8066,-14,0,0,0,0,0
1285,1240,8054,-44,0,0,0,0,0
1286,1224,8069,-46,0,0,0,0,0
1287,1231,8056,-36,0,0,0,0,0
1288,1223,8055,-31,0,0,0,0,0
1289,1244,8088,-24,0,0,0,0,0
1290,1215,8037,-75,0,0,0,0,0
1291,1241,8067,-35,0,0,0,0,0
1292,1240,8060,-7,0,0,0,0,0
1293,1235,8052,-30,0,0,0,0,0
1294,1240,8058,-33,0,0,0,0,0
1295,1253,8072,-32,0,0,0,0,0
1296,1240,8081,-44,0,0,0,0,0
1297,1238,8069,-36,0,0,0,0,0
1298,1230,8066,-44,0,0,0,0,0
1299,1233,8054,-35,0,0,0,0,0
1300,1240,8064,-39,0,0,0,0,0
1301,1243,8055,-47,0,0,0,0,0
1302,1239,8066,-21,0,0,0,0,0
1303,1225,8067,-38,0,0,0,0,0
1304,1236,8060,-38,0,0,0,0,0
1305,1258,8048,-40,0,0,0,0,0
1306,1229,8060,-21,0,0,0,0,0
1307,1232,8065,-29,0,0,0,0,0
1308,1238,8054,-20,0,0,0,0,0
1309,1234,8065,-48,0,0,0,0,0
1310,1230,8079,-41,0,0,0,0,0
1311,1264,8058,-4,0,0,0,0,0
1312,1222,8064,-40,0,0,0,0,0
1313,1213,8069,-50,0,0,0,0,0
1314,1244,8066,-40,0,0,0,0,0
1315,1252,8033,-32,0,0,0,0,0
1316,1224,8075,-20,0,0,0,0,0
1317,1220,8065,-60,0,0,0,0,0
1318,1253,8054,-38,0,0,0,0,0
1319,1241,8058,-23,0,0,0,0,0
1320,1226,8064,-30,0,0,0,0,0
1321,1233,8048,-66,0,0,0,0,0
1322,1258,8062,-42,0,0,0,0,0
1323,1214,8064,-2,0,0,0,0,0
1324,1218,8088,-24,0,0,0,0,0
1325,1251,8052,-52,0,0,0,0,0
1326,1245,8053,-12,0,0,0,0,0
1327,1227,8066,-66,0,0,0,0,0
1328,1226,8046,-52,0,0,0,0,0
1329,1226,8068,-28,0,0,0,0,0
1330,1240,8074,-28,0,0,0,0,0
1331,1251,8050,-37,0,0,0,0,0
1332,1241,8054,-19,0,0,0,0,0
1333,1210,8069,-24,0,0,0,0,0
1334,1251,8034,-53,0,0,0,0,0
1335,1238,8074,-43,0,0,0,0,0
1336,1256,8053,-39,0,0,0,0,0
1337,1253,8072,-50,0,0,0,0,0
1338,1232,8022,-55,0,0,0,0,0
1339,1256,8095,8,0,0,0,0,0
1340,1230,8024,-80,0,0,0,0,0
1341,1230,8071,-18,0,0,0,0,0
1342,1236,8082,-55,0,0,0,0,0
1343,1272,8043,6,0,0,0,0,0
1344,1209,8049,-44,0,0,0,0,0
1345,1232,8011,-18,0,0,0,0,0
1346,1236,8074,-105,0,0,0,0,0
1347,1249,8046,-6,0,0,0,0,0
1348,1233,8098,16,0,0,0,0,0
1349,1246,8088,-56,0,0,0,0,0
1350,1243,8024,-126,0,0,0,0,0
1351,1274,8048,40,0,0,0,0,0
1352,1190,8098,-43,0,0,0,0,0
1353,1216,8097,-42,0,0,0,0,0
1354,1248,7979,-46,0,0,0,0,0
1355,1244,8128,-88,0,0,0,0,0
1356,1226,8018,61,0,0,0,0,0
1357,1235,8071,-24,0,0,0,0,0
1358,1238,8088,-45,0,0,0,0,0
1359,1203,7975,-37,0,0,0,0,0
1360,1276,8116,-16,0,0,0,0,0
1361,1214,8056,-85,0,0,0,0,0
1362,1236,8008,-3,0,0,0,0,0
1363,1227,8083,-34,0,0,0,0,0
1364,1241,8108,-38,0,0,0,0,0
1365,1246,8004,-13,0,0,0,0,0
1366,1234,8083,-30,0,0,0,0,0
1367,1234,8078,-3,0,0,0,0,0
1368,1231,8045,-24,0,0,0,0,0
1369,1244,8064,1,0,0,0,0,0
1370,1190,8057,-49,0,0,0,0,0
1371,1276,8033,-34,0,0,0,0,0
1372,1226,8073,-18,0,0,0,0,0
1373,1238,8128,-4,0,0,0,0,0
1374,1210,7988,-75,0,0,0,0,0
1375,1279,8116,3,0,0,0,0,0
1376,1188,8058,-13,0,0,0,0,0
1377,1260,8070,-20,0,0,0,0,0
1378,1226,8070,-36,0,0,0,0,0
1379,1200,8080,21,0,0,0,0,0
1380,1272,8064,-13,0,0,0,0,0
1381,1282,8087,-60,0,0,0,0,0
1382,1197,8056,-7,0,0,0,0,0
1383,1235,8080,-25,0,0,0,0,0
1384,1255,8070,-28,0,0,0,0,0
1385,1240,8037,-3,0,0,0,0,0
1386,1218,8081,-39,0,0,0,0,0
1387,1244,8060,-25,0,0,0,0,0
1388,1219,8039,-24,0,0,0,0,0
1389,1228,8098,-20,0,0,0,0,0
1390,1232,8058,-17,0,0,0,0,0
1391,1257,8048,-34,0,0,0,0,0
1392,1220,8081,-29,0,0,0,0,0
1393,1205,8053,-32,0,0,0,0,0
1394,1270,8050,-42,0,0,0,0,0
1395,1234,8060,-39,0,0,0,0,0
1396,1214,8068,-30,0,0,0,0,0
1397,1240,8046,-14,0,0,0,0,0
1398,1246,8063,-13,0,0,0,0,0
1399,1224,8037,-32,0,0,0,0,0
1400,1256,8059,-34,0,0,0,0,0
1401,1220,8060,-21,0,0,0,0,0
1402,1251,8080,-9,0,0,0,0,0
1403,1240,8052,-50,0,0,0,0,0
1404,1245,8072,-12,0,0,0,0,0
1405,1236,8055,-5,0,0,0,0,0
1406,1252,8068,-16,0,0,0,0,0
1407,1206,8069,-43,0,0,0,0,0
1408,1226,8059,-51,0,0,0,0,0
1409,1252,8052,-10,0,0,0,0,0
1410,1232,8064,-19,0,0,0,0,0
1411,1235,8074,-37,0,0,0,0,0
1412,1250,8032,-21,0,0,0,0,0
1413,1241,8084,-6,0,0,0,0,0
1414,1242,8077,-40,0,0,0,0,0
1415,1242,8068,-36,0,0,0,0,0
1416,1243,8054,-8,0,0,0,0,0
1417,1230,8066,-12,0,0,0,0,0
1418,1234,8045,-18,0,0,0,0,0
1419,1218,8076,-38,0,0,0,0,0
1420,1241,8059,-33,0,0,0,0,0
1421,1243,8054,-31,0,0,0,0,0
1422,1206,8072,-25,0,0,0,0,0
1423,1247,8078,-45,0,0,0,0,0
1424,1256,8036,-34,0,0,0,0,0
1425,1220,8065,-3,0,0,0,0,0
1426,1265,8041,-16,0,0,0,0,0
1427,1228,8073,-20,0,0,0,0,0
1428,1234,8052,-22,0,0,0,0,0
1429,1250,8049,-24,0,0,0,0,0
1430,1233,8072,-54,0,0,0,0,0
1431,1220,8044,-23,0,0,0,0,0
1432,1238,8068,-8,0,0,0,0,0
1433,1263,8076,-43,0,0,0,0,0
1434,1214,8040,-16,0,0,0,0,0
1435,1209,8070,-56,0,0,0,0,0
1436,1268,8074,-23,0,0,0,0,0
1437,1242,8056,-16,0,0,0,0,0
1438,1228,8047,-40,0,0,0,0,0
1439,1238,8079,-12,0,0,0,0,0
1440,1242,8054,-28,0,0,0,0,0
1441,1238,8061,-34,0,0,0,0,0
1442,1230,8075,-14,0,0,0,0,0
1443,1222,8053,-28,0,0,0,0,0
1444,1262,8063,-18,0,0,0,0,0
1445,1236,8055,-34,0,0,0,0,0
1446,1226,8072,-6,0,0,0,0,0
1447,1232,8054,-37,0,0,0,0,0
1448,1264,8078,-27,0,0,0,0,0
1449,1214,8058,-51,0,0,0,0,0
1450,1234,8064,2,0,0,0,0,0
1451,1233,8068,-41,0,0,0,0,0
1452,1236,8072,35,0,0,0,0,0
1453,1214,8070,-36,0,0,0,0,0
1454,1252,8058,-23,0,0,0,0,0
1455,1238,8071,-50,0,0,0,0,0
1456,1235,8048,-11,0,0,0,0,0
1457,1234,8056,-37,0,0,0,0,0
1458,1254,8064,-24,0,0,0,0,0
1459,1230,8066,-22,0,0,0,0,0
1460,1231,8066,-24,0,0,0,0,0
1461,1238,8050,-34,0,0,0,0,0
1462,1240,8071,-34,0,0,0,0,0
1463,1222,8059,-41,0,0,0,0,0
1464,1235,8042,-18,0,0,0,0,0
1465,1240,8072,-30,0,0,0,0,0
1466,1220,8074,-20,0,0,0,0,0
1467,1245,8057,-53,0,0,0,0,0
1468,1256,8070,-35,0,0,0,0,0
1469,1233,8074,-14,0,0,0,0,0
1470,1227,8045,-26,0,0,0,0,0
1471,1239,8070,-31,0,0,0,0,0
1472,1241,8076,-21,0,0,0,0,0
1473,1239,8054,-15,0,0,0,0,0
1474,1238,8070,-44,0,0,0,0,0
1475,1235,8066,-22,0,0,0,0,0
1476,1234,8069,-31,0,0,0,0,0
1477,1231,8049,-8,0,0,0,0,0
1478,1236,8073,-43,0,0,0,0,0
1479,1238,8076,-32,0,0,0,0,0
1480,1245,8041,-14,0,0,0,0,0
1481,1242,8066,-8,0,0,0,0,0
1482,1230,8068,-17,0,0,0,0,0
1483,1240,8053,-40,0,0,0,0,0
1484,1240,8076,-13,0,0,0,0,0
1485,1233,8059,-27,0,0,0,0,0
1486,1237,8047,-26,0,0,0,0,0
1487,1235,8071,-39,0,0,0,0,0
1488,1228,8052,-32,0,0,0,0,0
1489,1232,8059,-18,0,0,0,0,0
1490,1235,8059,-25,0,0,0,0,0
1491,1250,8074,-36,0,0,0,0,0
1492,1234,8052,-46,0,0,0,0,0
1493,1233,8067,-11,0,0,0,0,0
1494,1248,8072,-26,0,0,0,0,0
1495,1236,8039,-42,0,0,0,0,0
1496,1245,8107,-22,0,0,0,0,0
1497,1232,8039,-13,0,0,0,0,0
1498,1234,8072,-11,0,0,0,0,0
1499,1235,8064,-41,0,0,0,0,0
1500,1236,8054,-34,0,0,0,0,0
1501,1242,8074,-24,0,0,0,0,0
1502,1230,8062,-34,0,0,0,0,0
1503,1236,8054,-33,0,0,0,0,0
1504,1247,8099,-6,0,0,0,0,0
1505,1232,8036,-19,0,0,0,0,0
1506,1230,8091,-31,0,0,0,0,0
1507,1252,8083,-37,0,0,0,0,0
1508,1243,8025,-8,0,0,0,0,0
1509,1236,8087,-28,0,0,0,0,0
1510,1241,8052,-40,0,0,0,0,0
1511,1233,8042,-35,0,0,0,0,0
1512,1240,8082,7,0,0,0,0,0
1513,1236,8057,-52,0,0,0,0,0
1514,1228,8028,-36,0,0,0,0,0
1515,1239,8066,-2,0,0,0,0,0
1516,1244,8067,-48,0,0,0,0,0
1517,1238,8052,-34,0,0,0,0,0
1518,1228,8052,-7,0,0,0,0,0
1519,1232,8108,-16,0,0,0,0,0
1520,1241,8026,-25,0,0,0,0,0
1521,1235,8062,-10,0,0,0,0,0
1522,1230,8078,-34,0,0,0,0,0
1523,1226,8032,-46,0,0,0,0,0
1524,1252,8074,-12,0,0,0,0,0
1525,1234,8074,-3,0,0,0,0,0
1526,1237,8040,-21,0,0,0,0,0
1527,1242,8079,-63,0,0,0,0,0
1528,1235,8060,-48,0,0,0,0,0
1529,1243,8052,-1,0,0,0,0,0
1530,1233,8060,0,0,0,0,0,0
1531,1238,8074,-27,0,0,0,0,0
1532,1253,8073,-65,0,0,0,0,0
1533,1238,8030,-35,0,0,0,0,0
1534,1216,8014,-129,0,0,0,0,0
1535,1204,8036,-90,0,0,0,0,0
1536,1235,8018,-33,0,0,0,0,0
1537,1233,8075,-59,0,0,0,0,0
1538,1229,8102,-8,0,0,0,0,0
1539,1248,8025,-18,0,0,0,0,0
1540,1227,8008,-55,0,0,0,0,0
1541,1226,8099,-14,0,0,0,0,0
1542,1240,8061,-21,0,0,0,0,0
1543,1249,8043,-30,0,0,0,0,0
1544,1220,8058,-23,0,0,0,0,0
1545,1230,8082,-53,0,0,0,0,0
1546,1254,8050,-12,0,0,0,0,0
1547,1231,8062,-32,0,0,0,0,0
1548,1236,8044,-33,0,0,0,0,0
1549,1250,8054,-22,0,0,0,0,0
1550,1238,8076,-22,0,0,0,0,0
1551,1231,8057,-20,0,0,0,0,0
1552,1235,8068,-38,0,0,0,0,0
1553,1243,8066,-25,0,0,0,0,0
1554,1236,8062,-26,0,0,0,0,0
1555,1238,8066,-23,0,0,0,0,0
1556,1229,8066,-50,0,0,0,0,0
1557,1252,8062,-14,0,0,0,0,0
1558,1236,8070,-24,0,0,0,0,0
1559,1240,8054,-18,0,0,0,0,0
1560,1242,8061,-35,0,0,0,0,0
1561,1234,8058,-36,0,0,0,0,0
1562,1229,8072,-23,0,0,0,0,0
1563,1224,8050,-25,0,0,0,0,0
1564,1256,8074,-37,0,0,0,0,0
1565,1221,8050,-28,0,0,0,0,0
1566,1240,8073,-26,0,0,0,0,0
1567,1226,8065,-16,0,0,0,0,0
1568,1242,8055,-22,0,0,0,0,0
1569,1233,8062,-50,0,0,0,0,0
1570,1242,8072,-29,0,0,0,0,0
1571,1243,8062,-18,0,0,0,0,0
1572,1232,8054,-15,0,0,0,0,0
1573,1240,8088,-45,0,0,0,0,0
1574,1242,8046,-24,0,0,0,0,0
1575,1229,8064,-38,0,0,0,0,0
1576,1233,8067,-43,0,0,0,0,0
1577,1239,8052,-34,0,0,0,0,0
1578,1239,8062,-13,0,0,0,0,0
1579,1234,8067,-34,0,0,0,0,0
1580,1236,8059,-40,0,0,0,0,0
1581,1233,8058,-46,0,0,0,0,0
1582,1236,8064,-15,0,0,0,0,0
1583,1239,8040,-32,0,0,0,0,0
1584,1236,8085,-46,0,0,0,0,0
1585,1229,8048,-29,0,0,0,0,0
1586,1241,8066,-20,0,0,0,0,0
1587,1237,8082,-30,0,0,0,0,0
1588,1228,8052,-34,0,0,0,0,0
1589,1246,8070,-17,0,0,0,0,0
1590,1236,8056,-18,0,0,0,0,0
1591,1246,8066,-25,0,0,0,0,0
1592,1243,8052,-14,0,0,0,0,0
1593,1248,8080,-28,0,0,0,0,0
1594,1220,8055,-56,0,0,0,0,0
1595,1246,8052,-18,0,0,0,0,0
1596,1231,8070,-20,0,0,0,0,0
1597,1246,8060,-18,0,0,0,0,0
1598,1232,8061,-32,0,0,0,0,0
1599,1255,8066,-35,0,0,0,0,0
1600,1220,8050,-19,0,0,0,0,0
1601,1248,8073,-2,0,0,0,0,0
1602,1227,8062,-50,0,0,0,0,0
1603,1245,8063,-30,0,0,0,0,0
1604,1221,8064,-48,0,0,0,0,0
1605,1248,8068,-13,0,0,0,0,0
1606,1230,8056,-40,0,0,0,0,0
1607,1244,8052,-16,0,0,0,0,0
1608,1226,8076,-56,0,0,0,0,0
1609,1228,8044,-20,0,0,0,0,0
1610,1224,8065,-44,0,0,0,0,0
1611,1249,8073,-42,0,0,0,0,0
1612,1209,8057,-48,0,0,0,0,0
1613,1232,8060,-36,0,0,0,0,0
1614,1242,8078,-30,0,0,0,0,0
1615,1236,8066,-11,0,0,0,0,0
1616,1230,8057,-41,0,0,0,0,0
1617,1241,8074,-34,0,0,0,0,0
1618,1244,8052,0,0,0,0,0,0
1619,1236,8072,-39,0,0,0,0,0
1620,1246,8055,-36,0,0,0,0,0
1621,1234,8066,-43,0,0,0,0,0
1622,1230,8056,-24,0,0,0,0,0
1623,1246,8064,-20,0,0,0,0,0
1624,1231,8052,-25,0,0,0,0,0
1625,1249,8070,-33,0,0,0,0,0
1626,1231,8048,-48,0,0,0,0,0
1627,1237,8062,-11,0,0,0,0,0
1628,1224,8068,-28,0,0,0,0,0
1629,1254,8065,-38,0,0,0,0,0
1630,1242,8056,-27,0,0,0,0,0
1631,1237,8064,-31,0,0,0,0,0
1632,1244,8056,-12,0,0,0,0,0
1633,1235,8059,-26,0,0,0,0,0
1634,1241,8047,-41,0,0,0,0,0
1635,1234,8066,-53,0,0,0,0,0
1636,1247,8080,-23,0,0,0,0,0
1637,1236,8062,-10,0,0,0,0,0
1638,1226,8054,-42,0,0,0,0,0
1639,1248,8092,-56,0,0,0,0,0
1640,1237,8036,-19,0,0,0,0,0
1641,1244,8100,7,0,0,0,0,0
1642,1232,8049,-52,0,0,0,0,0
1643,1244,8061,-31,0,0,0,0,0
1644,1233,8051,-34,0,0,0,0,0
1645,1240,8060,-23,0,0,0,0,0
1646,1230,8045,-39,0,0,0,0,0
1647,1234,8076,-26,0,0,0,0,0
1648,1231,8058,-23,0,0,0,0,0
1649,1238,8062,-36,0,0,0,0,0
1650,1235,8064,-48,0,0,0,0,0
1651,1248,8056,-9,0,0,0,0,0
1652,1227,8051,-24,0,0,0,0,0
1653,1246,8060,-24,0,0,0,0,0
1654,1246,8072,-49,0,0,0,0,0
1655,1226,8041,-28,0,0,0,0,0
1656,1236,8070,-28,0,0,0,0,0
1657,1248,8053,-22,0,0,0,0,0
1658,1238,8091,-44,0,0,0,0,0
1659,1222,8041,-45,0,0,0,0,0
1660,1240,8069,-19,0,0,0,0,0
1661,1234,8062,-21,0,0,0,0,0
1662,1237,8076,-32,0,0,0,0,0
1663,1230,8051,-40,0,0,0,0,0
1664,1242,8081,-32,0,0,0,0,0
1665,1238,8048,-23,0,0,0,0,0
1666,1239,8062,-22,0,0,0,0,0
1667,1232,8065,-39,0,0,0,0,0
1668,1238,8066,-30,0,0,0,0,0
1669,1241,8071,-34,0,0,0,0,0
1670,1235,8058,-3,0,0,0,0,0
1671,1251,8080,-39,0,0,0,0,0
1672,1238,8049,-32,0,0,0,0,0
1673,1234,8069,-32,0,0,0,0,0
1674,1233,8063,-11,0,0,0,0,0
1675,1248,8090,-21,0,0,0,0,0
1676,1248,8047,-41,0,0,0,0,0
1677,1236,8075,-18,0,0,0,0,0
1678,1218,8063,-19,0,0,0,0,0
1679,1252,8068,-14,0,0,0,0,0
1680,1234,8054,-36,0,0,0,0,0
1681,1241,8061,-26,0,0,0,0,0
1682,1234,8064,-8,0,0,0,0,0
1683,1252,8070,22,0,0,0,0,0
1684,1224,8066,20,0,0,0,0,0
1685,1239,8035,-43,0,0,0,0,0
1686,1229,8042,-14,0,0,0,0,0
1687,1228,8064,-52,0,0,0,0,0
1688,1243,8060,-42,0,0,0,0,0
1689,1258,8061,-30,0,0,0,0,0
1690,1222,8056,-24,0,0,0,0,0
1691,1244,8054,-48,0,0,0,0,0
1692,1236,8063,-49,0,0,0,0,0
1693,1240,8053,-20,0,0,0,0,0
1694,1236,8071,-24,0,0,0,0,0
1695,1229,8058,-31,0,0,0,0,0
1696,1241,8059,-57,0,0,0,0,0
1697,1241,8060,-26,0,0,0,0,0
1698,1241,8088,-24,0,0,0,0,0
1699,1235,8045,-28,0,0,0,0,0
1700,1251,8070,-38,0,0,0,0,0
1701,1242,8051,-28,0,0,0,0,0
1702,1238,8051,-33,0,0,0,0,0
1703,1242,8075,-45,0,0,0,0,0
1704,1227,8049,-24,0,0,0,0,0
1705,1250,8061,-1,0,0,0,0,0
1706,1234,8070,-32,0,0,0,0,0
1707,1239,8061,-39,0,0,0,0,0
1708,1216,8054,-40,0,0,0,0,0
1709,1245,8053,-72,0,0,0,0,0
1710,1252,8100,42,0,0,0,0,0
1711,1224,8039,-110,0,0,0,0,0
1712,1241,8050,-37,0,0,0,0,0
1713,1237,8064,-63,0,0,0,0,0
1714,1258,8061,-15,0,0,0,0,0
1715,1247,8070,-49,0,0,0,0,0
1716,1236,8069,-3,0,0,0,0,0
1717,1241,8062,-18,0,0,0,0,0
1718,1242,8050,-16,0,0,0,0,0
1719,1233,8083,-54,0,0,0,0,0
1720,1244,8074,0,0,0,0,0,0
1721,1248,8077,-8,0,0,0,0,0
1722,1235,8052,-30,0,0,0,0,0
1723,1244,8052,-34,0,0,0,0,0
1724,1229,8065,-24,0,0,0,0,0
1725,1238,8064,-20,0,0,0,0,0
1726,1234,8064,-28,0,0,0,0,0
1727,1241,8036,-18,0,0,0,0,0
1728,1225,8051,-68,0,0,0,0,0
1729,1234,8062,-32,0,0,0,0,0
1730,1237,8052,-28,0,0,0,0,0
1731,1240,8073,-4,0,0,0,0,0
1732,1230,8066,-28,0,0,0,0,0
1733,1240,8054,-24,0,0,0,0,0
1734,1222,8083,-31,0,0,0,0,0
1735,1234,8054,-38,0,0,0,0,0
1736,1239,8062,-44,0,0,0,0,0
1737,1220,8060,13,0,0,0,0,0
1738,1251,8098,-64,0,0,0,0,0
1739,1260,8035,-87,0,0,0,0,0
1740,1222,8059,1,0,0,0,0,0
1741,1192,8102,-31,0,0,0,0,0
1742,1295,8062,30,0,0,0,0,0
1743,1220,8087,-57,0,0,0,0,0
1744,1200,8060,-48,0,0,0,0,0
1745,1238,8050,-24,0,0,0,0,0
1746,1271,8058,-33,0,0,0,0,0
1747,1214,8067,-9,0,0,0,0,0
1748,1241,8022,-34,0,0,0,0,0
1749,1282,8071,-16,0,0,0,0,0
1750,1176,8058,-8,0,0,0,0,0
1751,1314,8072,-40,0,0,0,0,0
1752,1272,8061,-52,0,0,0,0,0
1753,1175,8059,8,0,0,0,0,0
1754,1224,8050,-38,0,0,0,0,0
1755,1292,8072,-42,0,0,0,0,0
1756,1165,8061,-30,0,0,0,0,0
1757,1242,8048,-12,0,0,0,0,0
1758,1256,8075,-41,0,0,0,0,0
1759,1228,8046,-22,0,0,0,0,0
1760,1227,8052,-31,0,0,0,0,0
1761,1278,8064,-16,0,0,0,0,0
1762,1220,8053,-24,0,0,0,0,0
1763,1231,8064,12,0,0,0,0,0
1764,1264,8066,-28,0,0,0,0,0
1765,1244,8065,-52,0,0,0,0,0
1766,1202,8053,-26,0,0,0,0,0
1767,1260,8047,-48,0,0,0,0,0
1768,1234,8049,-37,0,0,0,0,0
1769,1215,8030,-56,0,0,0,0,0
1770,1224,8042,-11,0,0,0,0,0
1771,1256,8082,67,0,0,0,0,0
1772,1254,8042,-62,0,0,0,0,0
1773,1214,8021,-80,0,0,0,0,0
1774,1248,8100,-36,0,0,0,0,0
1775,1224,8026,-20,0,0,0,0,0
1776,1258,8083,-3,0,0,0,0,0
1777,1210,8015,-59,0,0,0,0,0
1778,1246,8067,-45,0,0,0,0,0
1779,1234,8058,-32,0,0,0,0,0
1780,1234,8071,-26,0,0,0,0,0
1781,1240,8060,-20,0,0,0,0,0
1782,1242,8091,-44,0,0,0,0,0
1783,1230,8070,-14,0,0,0,0,0
1784,1273,8059,-16,0,0,0,0,0
1785,1224,8041,-28,0,0,0,0,0
1786,1218,8080,-36,0,0,0,0,0
1787,1277,8072,-20,0,0,0,0,0
1788,1232,8054,-35,0,0,0,0,0
1789,1218,8066,-16,0,0,0,0,0
1790,1257,8060,-45,0,0,0,0,0
1791,1240,8068,-30,0,0,0,0,0
1792,1220,8058,-4,0,0,0,0,0
1793,1257,8057,-43,0,0,0,0,0
1794,1254,8052,-31,0,0,0,0,0
1795,1222,8093,-22,0,0,0,0,0
1796,1240,8050,-20,0,0,0,0,0
1797,1252,8067,-27,0,0,0,0,0
1798,1234,8071,-46,0,0,0,0,0
1799,1244,8056,-16,0,0,0,0,0
1800,1229,8042,-25,0,0,0,0,0
1801,1234,8056,-43,0,0,0,0,0
1802,1239,8062,-29,0,0,0,0,0
1803,1241,8074,-18,0,0,0,0,0
1804,1225,8046,-26,0,0,0,0,0
1805,1232,8060,-20,0,0,0,0,0
1806,1237,8072,-42,0,0,0,0,0
1807,1234,8044,-21,0,0,0,0,0
1808,1222,8046,-16,0,0,0,0,0
1809,1243,8058,-44,0,0,0,0,0
1810,1238,8042,-32,0,0,0,0,0
1811,1232,8070,-28,0,0,0,0,0
1812,1231,8061,-39,0,0,0,0,0
1813,1228,8049,-24,0,0,0,0,0
1814,1226,8068,-22,0,0,0,0,0
1815,1224,8055,-23,0,0,0,0,0
1816,1237,8046,-22,0,0,0,0,0
1817,1232,8083,-29,0,0,0,0,0
1818,1234,8062,-48,0,0,0,0,0
1819,1227,8049,-43,0,0,0,0,0
1820,1232,8079,-23,0,0,0,0,0
1821,1242,8047,-19,0,0,0,0,0
1822,1244,8054,-29,0,0,0,0,0
1823,1231,8064,-33,0,0,0,0,0
1824,1236,8059,-30,0,0,0,0,0
1825,1232,8049,-10,0,0,0,0,0
1826,1235,8064,-12,0,0,0,0,0
1827,1224,8045,-41,0,0,0,0,0
1828,1243,8054,-31,0,0,0,0,0
1829,1212,8054,-37,0,0,0,0,0
1830,1244,8061,-19,0,0,0,0,0
1831,1225,8048,-47,0,0,0,0,0
1832,1246,8074,-22,0,0,0,0,0
1833,1218,8050,-33,0,0,0,0,0
1834,1250,8065,-20,0,0,0,0,0
1835,1229,8062,-37,0,0,0,0,0
1836,1244,8061,-23,0,0,0,0,0
1837,1224,8048,-33,0,0,0,0,0
1838,1238,8060,-36,0,0,0,0,0
1839,1237,8076,-37,0,0,0,0,0
1840,1220,8045,-24,0,0,0,0,0
1841,1246,8073,-28,0,0,0,0,0
1842,1227,8056,-44,0,0,0,0,0
1843,1252,8066,-28,0,0,0,0,0
1844,1221,8054,-24,0,0,0,0,0
1845,1246,8066,-4,0,0,0,0,0
1846,1227,8070,10,0,0,0,0,0
1847,1242,8040,-92,0,0,0,0,0
1848,1242,8050,-17,0,0,0,0,0
1849,1242,8066,-28,0,0,0,0,0
1850,1225,8068,-66,0,0,0,0,0
1851,1264,8050,-11,0,0,0,0,0
1852,1233,8059,-10,0,0,0,0,0
1853,1242,8075,-33,0,0,0,0,0
1854,1224,8052,-38,0,0,0,0,0
1855,1253,8082,-27,0,0,0,0,0
1856,1214,8050,-47,0,0,0,0,0
1857,1246,8073,-33,0,0,0,0,0
1858,1226,8044,-40,0,0,0,0,0
1859,1240,8067,-30,0,0,0,0,0
1860,1241,8070,-27,0,0,0,0,0
1861,1246,8021,-4,0,0,0,0,0
1862,1232,8099,-19,0,0,0,0,0
1863,1222,8064,114,0,0,0,0,0
1864,1206,8070,-168,0,0,0,0,0
1865,1272,8027,-102,0,0,0,0,0
1866,1231,8111,-22,0,0,0,0,0
1867,1222,8032,28,0,0,0,0,0
1868,1238,8033,-58,0,0,0,0,0
1869,1151,8076,-221,0,0,0,0,0
1870,1218,8040,74,0,0,0,0,0
1871,1225,8032,-61,0,0,0,0,0
1872,1233,8085,-2,0,0,0,0,0
1873,1235,8080,44,0,0,0,0,0
1874,1252,8063,-1,0,0,0,0,0
1875,1249,8060,-38,0,0,0,0,0
1876,1232,8056,-20,0,0,0,0,0
1877,1238,8070,-2,0,0,0,0,0
1878,1232,8058,-11,0,0,0,0,0
1879,1258,8092,-6,0,0,0,0,0
1880,1219,8036,-86,0,0,0,0,0
1881,1222,8078,-39,0,0,0,0,0
1882,1269,8070,-6,0,0,0,0,0
1883,1230,8052,-28,0,0,0,0,0
1884,1236,8072,-17,0,0,0,0,0
1885,1252,8037,-66,0,0,0,0,0
1886,1222,8032,-50,0,0,0,0,0
1887,1230,8101,32,0,0,0,0,0
1888,1264,8078,0,0,0,0,0,0
1889,1251,8032,-59,0,0,0,0,0
1890,1220,8062,-48,0,0,0,0,0
1891,1256,8071,-26,0,0,0,0,0
1892,1232,8060,-20,0,0,0,0,0
1893,1235,8068,-16,0,0,0,0,0
1894,1240,8062,-5,0,0,0,0,0
1895,1234,8045,-42,0,0,0,0,0
1896,1234,8076,-24,0,0,0,0,0
1897,1232,8035,-26,0,0,0,0,0
1898,1246,8056,-28,0,0,0,0,0
1899,1250,8080,-24,0,0,0,0,0
1900,1221,8073,-48,0,0,0,0,0
1901,1230,8045,-46,0,0,0,0,0
1902,1236,8066,-19,0,0,0,0,0
1903,1262,8081,14,0,0,0,0,0
1904,1234,8050,-47,0,0,0,0,0
1905,1232,8042,-30,0,0,0,0,0
1906,1252,8072,-42,0,0,0,0,0
1907,1229,8076,-11,0,0,0,0,0
1908,1226,8033,-30,0,0,0,0,0
1909,1246,8065,-35,0,0,0,0,0
1910,1247,8066,-45,0,0,0,0,0
1911,1220,8054,-34,0,0,0,0,0
1912,1227,8072,-24,0,0,0,0,0
1913,1250,8058,-38,0,0,0,0,0
1914,1236,8054,-12,0,0,0,0,0
1915,1228,8068,-36,0,0,0,0,0
1916,1246,8056,-24,0,0,0,0,0
1917,1242,8065,-22,0,0,0,0,0
1918,1232,8068,-28,0,0,0,0,0
1919,1236,8053,-24,0,0,0,0,0
1920,1239,8069,-28,0,0,0,0,0
1921,1231,8066,-32,0,0,0,0,0
1922,1239,8053,-41,0,0,0,0,0
1923,1240,8056,-23,0,0,0,0,0
1924,1226,8074,-19,0,0,0,0,0
1925,1240,8046,-23,0,0,0,0,0
1926,1238,8062,-34,0,0,0,0,0
1927,1228,8079,-11,0,0,0,0,0
1928,1236,8050,-26,0,0,0,0,0
1929,1244,8076,-36,0,0,0,0,0
1930,1237,8052,-26,0,0,0,0,0
1931,1224,8043,-15,0,0,0,0,0
1932,1238,8074,-18,0,0,0,0,0
1933,1246,8054,-18,0,0,0,0,0
1934,1229,8043,-12,0,0,0,0,0
1935,1237,8071,-20,0,0,0,0,0
1936,1239,8050,-41,0,0,0,0,0
1937,1229,8052,-50,0,0,0,0,0
1938,1248,8088,-18,0,0,0,0,0
1939,1235,8045,12,0,0,0,0,0
1940,1247,8065,-32,0,0,0,0,0
1941,1228,8064,-55,0,0,0,0,0
1942,1239,8069,-50,0,0,0,0,0
1943,1237,8044,-64,0,0,0,0,0
1944,1242,8054,8,0,0,0,0,0
1945,1246,8067,12,0,0,0,0,0
1946,1236,8058,-19,0,0,0,0,0
1947,1248,8029,-20,0,0,0,0,0
1948,1231,8071,-70,0,0,0,0,0
1949,1242,8065,-45,0,0,0,0,0
1950,1215,8064,-42,0,0,0,0,0
1951,1256,8057,-11,0,0,0,0,0
1952,1257,8051,-5,0,0,0,0,0
1953,1216,8078,-38,0,0,0,0,0
1954,1245,8088,-37,0,0,0,0,0
1955,1242,8058,-51,0,0,0,0,0
1956,1224,8055,-82,0,0,0,0,0
1957,1231,8048,18,0,0,0,0,0
1958,1229,8147,113,0,0,0,0,0
1959,1247,8107,-10,0,0,0,0,0
1960,1224,7998,-11,0,0,0,0,0
1961,1220,8040,-102,0,0,0,0,0
1962,1244,8062,-80,0,0,0,0,0
1963,1208,8081,-59,0,0,0,0,0
1964,1244,8063,-12,0,0,0,0,0
1965,1234,8022,13,0,0,0,0,0
1966,1220,8078,-14,0,0,0,0,0
1967,1256,8046,-34,0,0,0,0,0
1968,1221,8060,-78,0,0,0,0,0
1969,1222,8074,-56,0,0,0,0,0
1970,1224,8052,-21,0,0,0,0,0
1971,1243,8082,37,0,0,0,0,0
1972,1224,8053,3,0,0,0,0,0
1973,1253,8066,-60,0,0,0,0,0
1974,1236,8047,-55,0,0,0,0,0
1975,1256,8073,-18,0,0,0,0,0
1976,1216,8059,-26,0,0,0,0,0
1977,1235,8052,14,0,0,0,0,0
1978,1222,8079,-24,0,0,0,0,0
1979,1251,8044,-32,0,0,0,0,0
1980,1218,8043,-50,0,0,0,0,0
1981,1240,8068,-41,0,0,0,0,0
1982,1260,8070,-19,0,0,0,0,0
1983,1226,8048,-16,0,0,0,0,0
1984,1232,8078,-10,0,0,0,0,0
1985,1255,8054,-37,0,0,0,0,0
1986,1260,8058,-32,0,0,0,0,0
1987,1211,8075,-38,0,0,0,0,0
1988,1248,8056,-25,0,0,0,0,0
1989,1240,8072,-24,0,0,0,0,0
1990,1228,8068,-14,0,0,0,0,0
1991,1252,8051,-11,0,0,0,0,0
1992,1226,8048,-24,0,0,0,0,0
1993,1229,8063,-2,0,0,0,0,0
1994,1242,8078,-36,0,0,0,0,0
1995,1238,8062,-36,0,0,0,0,0
1996,1231,8056,-22,0,0,0,0,0
1997,1248,8064,-26,0,0,0,0,0
1998,1229,8068,-15,0,0,0,0,0
1999,1242,8054,-12,0,0,0,0,0
2000,1236,8066,-40,0,0,0,0,0
2001,1243,8083,-6,0,0,0,0,0
2002,1238,7991,-66,0,0,0,0,0
2003,1242,8031,-28,0,0,0,0,0
2004,1244,8091,-11,0,0,0,0,0
2005,1234,8060,-60,0,0,0,0,0
2006,1245,8054,-31,0,0,0,0,0
2007,1241,8056,-35,0,0,0,0,0
2008,1244,8056,-22,0,0,0,0,0
2009,1249,8074,-14,0,0,0,0,0
2010,1260,8072,-16,0,0,0,0,0
2011,1192,8060,-13,0,0,0,0,0
2012,1220,8073,-11,0,0,0,0,0
2013,1201,8084,-36,0,0,0,0,0
2014,1282,8055,3,0,0,0,0,0
2015,1248,8056,-67,0,0,0,0,0
2016,1234,8044,-49,0,0,0,0,0
2017,1219,8068,10,0,0,0,0,0
2018,1239,8065,-38,0,0,0,0,0
2019,1238,8067,-5,0,0,0,0,0
2020,1285,8054,-53,0,0,0,0,0
2021,1206,8032,-59,0,0,0,0,0
2022,1184,8057,-100,0,0,0,0,0
2023,1243,8058,-56,0,0,0,0,0
2024,1214,8066,-63,0,0,0,0,0
2025,1238,8064,-15,0,0,0,0,0
2026,1243,8050,-15,0,0,0,0,0
2027,1253,8070,6,0,0,0,0,0
2028,1238,8058,-3,0,0,0,0,0
2029,1238,8048,-36,0,0,0,0,0
2030,1233,8054,-58,0,0,0,0,0
2031,1231,8081,-26,0,0,0,0,0
2032,1243,8069,-36,0,0,0,0,0
2033,1224,8056,-29,0,0,0,0,0
2034,1220,8054,-28,0,0,0,0,0
2035,1207,8040,-56,0,0,0,0,0
2036,1226,8064,-34,0,0,0,0,0
2037,1252,8035,-24,0,0,0,0,0
2038,1233,8054,-32,0,0,0,0,0
2039,1246,8057,-19,0,0,0,0,0
2040,1230,8056,-34,0,0,0,0,0
2041,1247,8062,-28,0,0,0,0,0
2042,1241,8056,-33,0,0,0,0,0
2043,1258,8015,-13,0,0,0,0,0
2044,1235,8108,-29,0,0,0,0,0
2045,1225,8032,-58,0,0,0,0,0
2046,1237,8041,-23,0,0,0,0,0
2047,1225,8050,-51,0,0,0,0,0
2048,1237,8059,-79,0,0,0,0,0
2049,1224,8067,-33,0,0,0,0,0
2050,1231,8064,13,0,0,0,0,0
2051,1277,8118,30,0,0,0,0,0
2052,1206,8049,-49,0,0,0,0,0
2053,1227,8078,-19,0,0,0,0,0
2054,1256,8060,-56,0,0,0,0,0
2055,1234,8046,-35,0,0,0,0,0
2056,1237,8062,-32,0,0,0,0,0
2057,1244,8068,-21,0,0,0,0,0
2058,1252,8058,-14,0,0,0,0,0
2059,1224,8057,-18,0,0,0,0,0
2060,1225,8072,-24,0,0,0,0,0
2061,1249,8057,-42,0,0,0,0,0
2062,1240,8068,-29,0,0,0,0,0
2063,1241,8070,-16,0,0,0,0,0
2064,1258,8066,-37,0,0,0,0,0
2065,1228,8065,-34,0,0,0,0,0
2066,1223,8048,-36,0,0,0,0,0
2067,1244,8058,-40,0,0,0,0,0
2068,1243,8073,-32,0,0,0,0,0
2069,1234,8045,-37,0,0,0,0,0
2070,1229,8055,-4,0,0,0,0,0
2071,1238,8064,-37,0,0,0,0,0
2072,1242,8058,-18,0,0,0,0,0
2073,1232,8063,-44,0,0,0,0,0
2074,1235,8052,-43,0,0,0,0,0
2075,1234,8066,-23,0,0,0,0,0
2076,1236,8045,-22,0,0,0,0,0
2077,1235,8057,-20,0,0,0,0,0
2078,1231,8057,-24,0,0,0,0,0
2079,1237,8058,-21,0,0,0,0,0
2080,1228,8059,-47,0,0,0,0,0
2081,1237,8059,-42,0,0,0,0,0
2082,1234,8050,-52,0,0,0,0,0
2083,1236,8053,-29,0,0,0,0,0
2084,1247,8046,-16,0,0,0,0,0
2085,1242,8064,-28,0,0,0,0,0
2086,1225,8061,-46,0,0,0,0,0
2087,1227,8068,-26,0,0,0,0,0
2088,1231,8064,-39,0,0,0,0,0
2089,1243,8052,-38,0,0,0,0,0
2090,1226,8063,-16,0,0,0,0,0
2091,1248,8054,-23,0,0,0,0,0
2092,1237,8062,-22,0,0,0,0,0
2093,1234,8062,-25,0,0,0,0,0
2094,1238,8066,-35,0,0,0,0,0
2095,1230,8062,-16,0,0,0,0,0
2096,1234,8066,-27,0,0,0,0,0
2097,1238,8051,-30,0,0,0,0,0
2098,1248,8056,-26,0,0,0,0,0
2099,1230,8068,-30,0,0,0,0,0
2100,1236,8058,-20,0,0,0,0,0
2101,1243,8062,-24,0,0,0,0,0
2102,1228,8051,-34,0,0,0,0,0
2103,1236,8060,-30,0,0,0,0,0
2104,1226,8060,-50,0,0,0,0,0
2105,1243,8053,-29,0,0,0,0,0
2106,1232,8060,-38,0,0,0,0,0
2107,1203,8146,-28,0,0,0,0,0
2108,1252,8077,40,0,0,0,0,0
2109,1229,8064,-31,0,0,0,0,0
2110,1234,8070,14,0,0,0,0,0
2111,1224,8076,-78,0,0,0,0,0
2112,1200,8054,-58,0,0,0,0,0
2113,1261,8060,-56,0,0,0,0,0
2114,1234,8060,-34,0,0,0,0,0
2115,1231,8061,9,0,0,0,0,0
2116,1232,8044,-22,0,0,0,0,0
2117,1245,8056,-43,0,0,0,0,0
2118,1236,8073,-38,0,0,0,0,0
2119,1274,8052,-20,0,0,0,0,0
2120,1226,8068,-50,0,0,0,0,0
2121,1253,8070,-15,0,0,0,0,0
2122,1214,8054,-10,0,0,0,0,0
2123,1226,8069,-38,0,0,0,0,0
2124,1239,8068,-74,0,0,0,0,0
2125,1230,8034,-78,0,0,0,0,0
2126,1247,8051,-35,0,0,0,0,0
2127,1224,8073,-21,0,0,0,0,0
2128,1224,8076,-2,0,0,0,0,0
2129,1258,8041,-52,0,0,0,0,0
2130,1239,8067,-68,0,0,0,0,0
2131,1216,8059,-33,0,0,0,0,0
2132,1249,8060,-7,0,0,0,0,0
2133,1267,8070,26,0,0,0,0,0
2134,1213,8074,-38,0,0,0,0,0
2135,1236,8051,-59,0,0,0,0,0
2136,1252,8080,-22,0,0,0,0,0
2137,1244,8044,-46,0,0,0,0,0
2138,1230,8046,-13,0,0,0,0,0
2139,1246,8059,4,0,0,0,0,0
2140,1224,8062,-38,0,0,0,0,0
2141,1217,8058,-48,0,0,0,0,0
2142,1236,8029,-78,0,0,0,0,0
2143,1207,8043,-50,0,0,0,0,0
2144,1256,8053,-26,0,0,0,0,0
2145,1216,8054,-21,0,0,0,0,0
2146,1250,8070,-6,0,0,0,0,0
2147,1234,8060,-41,0,0,0,0,0
2148,1233,8072,-52,0,0,0,0,0
2149,1239,8064,-26,0,0,0,0,0
2150,1240,8062,-40,0,0,0,0,0
2151,1227,8044,-58,0,0,0,0,0
2152,1236,8061,-20,0,0,0,0,0
2153,1233,8052,-27,0,0,0,0,0
2154,1233,8058,-32,0,0,0,0,0
2155,1232,8075,-35,0,0,0,0,0
2156,1234,8059,-52,0,0,0,0,0
2157,1241,8048,-29,0,0,0,0,0
2158,1242,8074,-15,0,0,0,0,0
2159,1236,8062,-17,0,0,0,0,0
2160,1230,8073,-46,0,0,0,0,0
2161,1244,8038,-48,0,0,0,0,0
2162,1244,8068,-11,0,0,0,0,0
2163,1232,8064,-13,0,0,0,0,0
2164,1234,8052,-34,0,0,0,0,0
2165,1234,8072,-33,0,0,0,0,0
2166,1228,8067,-40,0,0,0,0,0
2167,1247,8038,-58,0,0,0,0,0
2168,1250,8065,32,0,0,0,0,0
2169,1224,8078,-20,0,0,0,0,0
2170,1242,8060,-64,0,0,0,0,0
2171,1229,8058,-38,0,0,0,0,0
2172,1235,8068,-18,0,0,0,0,0
2173,1216,8073,-51,0,0,0,0,0
2174,1235,8047,-12,0,0,0,0,0
2175,1245,8065,6,0,0,0,0,0
2176,1241,8067,-26,0,0,0,0,0
2177,1241,8074,-46,0,0,0,0,0
2178,1247,8062,-50,0,0,0,0,0
2179,1214,8067,-6,0,0,0,0,0
2180,1229,8031,-19,0,0,0,0,0
2181,1248,8070,-18,0,0,0,0,0
2182,1236,8072,-40,0,0,0,0,0
2183,1240,8066,-16,0,0,0,0,0
2184,1251,8067,-40,0,0,0,0,0
2185,1230,8052,-53,0,0,0,0,0
2186,1223,8056,-50,0,0,0,0,0
2187,1241,8068,-17,0,0,0,0,0
2188,1237,8060,-8,0,0,0,0,0
2189,1258,8068,-22,0,0,0,0,0
2190,1266,8051,-37,0,0,0,0,0
2191,1218,8070,-37,0,0,0,0,0
2192,1242,8056,-40,0,0,0,0,0
2193,1256,8058,-17,0,0,0,0,0
2194,1228,8063,-14,0,0,0,0,0
2195,1243,8059,-32,0,0,0,0,0
2196,1254,8057,-14,0,0,0,0,0
2197,1228,8063,-48,0,0,0,0,0
2198,1214,8065,-54,0,0,0,0,0
2199,1259,8064,-26,0,0,0,0,0
2200,1246,8063,-8,0,0,0,0,0
2201,1223,8052,-13,0,0,0,0,0
2202,1236,8094,0,0,0,0,0,0
2203,1249,8056,-81,0,0,0,0,0
2204,1229,8059,-56,0,0,0,0,0
2205,1217,8057,-32,0,0,0,0,0
2206,1264,8066,-12,0,0,0,0,0
2207,1228,8050,-52,0,0,0,0,0
2208,1231,8055,-41,0,0,0,0,0
2209,1246,8060,-59,0,0,0,0,0
2210,1233,8058,-42,0,0,0,0,0
2211,1231,8055,-23,0,0,0,0,0
2212,1244,8058,-26,0,0,0,0,0
2213,1250,8070,-19,0,0,0,0,0
2214,1234,8066,-40,0,0,0,0,0
2215,1226,8075,-41,0,0,0,0,0
2216,1248,8052,-32,0,0,0,0,0
2217,1225,8050,-16,0,0,0,0,0
2218,1222,8075,-21,0,0,0,0,0
2219,1250,8078,-27,0,0,0,0,0
2220,1249,8076,-16,0,0,0,0,0
2221,1229,8051,-66,0,0,0,0,0
2222,1242,8051,-31,0,0,0,0,0
2223,1256,8069,-13,0,0,0,0,0
2224,1226,8051,-41,0,0,0,0,0
2225,1226,8062,-26,0,0,0,0,0
2226,1248,8061,-34,0,0,0,0,0
2227,1239,8058,-52,0,0,0,0,0
2228,1230,8065,-51,0,0,0,0,0
2229,1249,8070,-46,0,0,0,0,0
2230,1241,8056,-28,0,0,0,0,0
2231,1236,8066,-19,0,0,0,0,0
2232,1236,8059,-29,0,0,0,0,0
2233,1236,8051,-37,0,0,0,0,0
2234,1239,8056,-28,0,0,0,0,0
2235,1231,8056,-14,0,0,0,0,0
2236,1232,8054,-38,0,0,0,0,0
2237,1246,8061,-33,0,0,0,0,0
2238,1238,8065,-34,0,0,0,0,0
2239,1235,8060,-30,0,0,0,0,0
2240,1231,8060,-32,0,0,0,0,0
2241,1234,8055,-34,0,0,0,0,0
2242,1238,8053,-28,0,0,0,0,0
2243,1238,8058,-24,0,0,0,0,0
2244,1233,8064,-40,0,0,0,0,0
2245,1245,8057,-45,0,0,0,0,0
2246,1244,8050,-38,0,0,0,0,0
2247,1232,8066,-10,0,0,0,0,0
2248,1231,8068,-11,0,0,0,0,0
2249,1249,8064,-40,0,0,0,0,0
2250,1238,8060,-42,0,0,0,0,0
2251,1223,8065,-34,0,0,0,0,0
2252,1238,8059,-22,0,0,0,0,0
2253,1246,8050,-11,0,0,0,0,0
2254,1233,8072,-12,0,0,0,0,0
2255,1232,8054,-47,0,0,0,0,0
2256,1225,8049,-42,0,0,0,0,0
2257,1234,8077,-37,0,0,0,0,0
2258,1242,8076,-34,0,0,0,0,0
2259,1237,8039,-22,0,0,0,0,0
2260,1229,8070,-26,0,0,0,0,0
2261,1247,8074,-29,0,0,0,0,0
2262,1240,8053,-45,0,0,0,0,0
2263,1236,8055,-45,0,0,0,0,0
2264,1252,8053,-13,0,0,0,0,0
2265,1242,8058,-26,0,0,0,0,0
2266,1245,8075,-30,0,0,0,0,0
2267,1236,8056,-20,0,0,0,0,0
2268,1228,8062,-37,0,0,0,0,0
2269,1244,8057,-24,0,0,0,0,0
2270,1238,8055,-5,0,0,0,0,0
2271,1255,8076,-37,0,0,0,0,0
2272,1231,8060,-35,0,0,0,0,0
2273,1223,8064,-27,0,0,0,0,0
2274,1260,8050,-13,0,0,0,0,0
2275,1239,8059,-15,0,0,0,0,0
2276,1219,8065,-43,0,0,0,0,0
2277,1244,8066,-46,0,0,0,0,0
2278,1239,8051,-25,0,0,0,0,0
2279,1220,8071,-9,0,0,0,0,0
2280,1236,8060,-8,0,0,0,0,0
2281,1250,8066,-50,0,0,0,0,0
2282,1225,8064,-42,0,0,0,0,0
2283,1238,8051,-12,0,0,0,0,0
2284,1237,8069,-8,0,0,0,0,0
2285,1236,8066,-45,0,0,0,0,0
2286,1230,8056,-55,0,0,0,0,0
2287,1228,8060,-37,0,0,0,0,0
2288,1234,8075,-16,0,0,0,0,0
2289,1243,8055,-29,0,0,0,0,0
2290,1248,8068,-30,0,0,0,0,0
2291,1221,8071,-28,0,0,0,0,0
2292,1238,8062,-21,0,0,0,0,0
2293,1242,8084,-35,0,0,0,0,0
2294,1241,8059,-22,0,0,0,0,0
2295,1239,8068,-26,0,0,0,0,0
2296,1234,8067,-22,0,0,0,0,0
2297,1240,8069,-31,0,0,0,0,0
2298,1244,8052,-40,0,0,0,0,0
2299,1236,8062,-14,0,0,0,0,0
2300,1234,8067,-22,0,0,0,0,0
2301,1239,8054,-12,0,0,0,0,0
2302,1236,8060,-41,0,0,0,0,0
2303,1232,8052,-59,0,0,0,0,0
2304,1241,8068,-34,0,0,0,0,0
2305,1229,8074,-16,0,0,0,0,0
2306,1235,8052,-27,0,0,0,0,0
2307,1246,8064,-49,0,0,0,0,0
2308,1229,8068,-50,0,0,0,0,0
2309,1237,8044,-38,0,0,0,0,0
2310,1261,8060,-28,0,0,0,0,0
2311,1216,8052,-16,0,0,0,0,0
2312,1251,8064,-49,0,0,0,0,0
2313,1251,8084,-50,0,0,0,0,0
2314,1218,8053,-39,0,0,0,0,0
2315,1242,8053,-14,0,0,0,0,0
2316,1254,8077,-4,0,0,0,0,0
2317,1223,8059,-32,0,0,0,0,0
2318,1232,8066,-40,0,0,0,0,0
2319,1246,8065,-50,0,0,0,0,0
2320,1249,8037,-19,0,0,0,0,0
2321,1232,8064,-8,0,0,0,0,0
2322,1242,8069,-28,0,0,0,0,0
2323,1252,8058,-43,0,0,0,0,0
2324,1235,8056,-90,0,0,0,0,0
2325,1222,8084,30,0,0,0,0,0
2326,1259,8066,-35,0,0,0,0,0
2327,1236,8059,-18,0,0,0,0,0
2328,1228,8035,-37,0,0,0,0,0
2329,1240,8054,40,0,0,0,0,0
2330,1241,8076,-59,0,0,0,0,0
2331,1216,8027,-47,0,0,0,0,0
2332,1236,8068,-16,0,0,0,0,0
2333,1243,8071,-55,0,0,0,0,0
2334,1236,8061,-46,0,0,0,0,0
2335,1215,8049,-34,0,0,0,0,0
2336,1232,8077,-28,0,0,0,0,0
2337,1212,8045,-26,0,0,0,0,0
2338,1244,8074,-38,0,0,0,0,0
2339,1253,8048,-35,0,0,0,0,0
2340,1216,8067,-17,0,0,0,0,0
2341,1235,8048,-24,0,0,0,0,0
2342,1253,8064,-26,0,0,0,0,0
2343,1257,8060,-24,0,0,0,0,0
2344,1199,8065,-56,0,0,0,0,0
2345,1238,8042,-54,0,0,0,0,0
2346,1228,8077,-3,0,0,0,0,0
2347,1247,8055,-9,0,0,0,0,0
2348,1264,8065,-54,0,0,0,0,0
2349,1220,8066,-40,0,0,0,0,0
2350,1231,8071,-22,0,0,0,0,0
2351,1256,8059,-12,0,0,0,0,0
2352,1235,8048,-34,0,0,0,0,0
2353,1216,8063,-28,0,0,0,0,0
2354,1215,8063,-25,0,0,0,0,0
2355,1229,8051,-24,0,0,0,0,0
2356,1250,8047,-30,0,0,0,0,0
2357,1253,8072,-23,0,0,0,0,0
2358,1227,8061,-11,0,0,0,0,0
2359,1224,8063,-31,0,0,0,0,0
2360,1270,8075,-5,0,0,0,0,0
2361,1240,8061,-37,0,0,0,0,0
2362,1186,8032,-169,0,0,0,0,0
2363,1240,8046,19,0,0,0,0,0
2364,1263,8044,-3,0,0,0,0,0
2365,1204,8065,-71,0,0,0,0,0
2366,1236,8067,-93,0,0,0,0,0
2367,1246,8034,-38,0,0,0,0,0
2368,1257,8062,16,0,0,0,0,0
2369,1218,8068,20,0,0,0,0,0
2370,1237,8062,-63,0,0,0,0,0
2371,1246,8066,-72,0,0,0,0,0
2372,1226,8062,-54,0,0,0,0,0
2373,1238,8055,-11,0,0,0,0,0
2374,1250,8074,0,0,0,0,0,0
2375,1230,8057,-14,0,0,0,0,0
2376,1254,8063,-45,0,0,0,0,0
2377,1230,8063,-45,0,0,0,0,0
2378,1251,8058,-28,0,0,0,0,0
2379,1239,8054,-17,0,0,0,0,0
2380,1230,8065,-22,0,0,0,0,0
2381,1236,8054,-19,0,0,0,0,0
2382,1244,8069,-31,0,0,0,0,0
2383,1234,8068,-4,0,0,0,0,0
2384,1237,8068,-52,0,0,0,0,0
2385,1240,8050,-33,0,0,0,0,0
2386,1241,8059,-38,0,0,0,0,0
2387,1227,8062,-28,0,0,0,0,0
2388,1228,8069,-26,0,0,0,0,0
2389,1251,8057,-30,0,0,0,0,0
2390,1230,8063,-25,0,0,0,0,0
2391,1230,8060,-21,0,0,0,0,0
2392,1228,8062,-33,0,0,0,0,0
2393,1243,8070,-28,0,0,0,0,0
2394,1243,8049,-31,0,0,0,0,0
2395,1238,8071,-28,0,0,0,0,0
2396,1227,8057,-28,0,0,0,0,0
2397,1246,8061,-29,0,0,0,0,0
2398,1220,8056,-34,0,0,0,0,0
2399,1242,8090,-32,0,0,0,0,0
2400,1235,8061,-51,0,0,0,0,0
2401,1237,8040,-43,0,0,0,0,0
2402,1228,8074,-35,0,0,0,0,0
2403,1241,8065,-46,0,0,0,0,0
2404,1230,8060,-15,0,0,0,0,0
2405,1233,8068,-9,0,0,0,0,0
2406,1251,8066,-15,0,0,0,0,0
2407,1236,8052,-29,0,0,0,0,0
2408,1228,8063,-31,0,0,0,0,0
2409,1247,8057,-39,0,0,0,0,0
2410,1240,8064,-38,0,0,0,0,0
2411,1225,8059,-26,0,0,0,0,0
2412,1253,8064,-25,0,0,0,0,0
2413,1233,8047,-33,0,0,0,0,0
2414,1226,8070,-22,0,0,0,0,0
2415,1242,8065,-32,0,0,0,0,0
2416,1247,8070,-30,0,0,0,0,0
2417,1231,8054,-26,0,0,0,0,0
2418,1237,8056,-20,0,0,0,0,0
2419,1246,8053,-9,0,0,0,0,0
2420,1245,8078,-30,0,0,0,0,0
2421,1235,8057,-47,0,0,0,0,0
2422,1237,8070,-36,0,0,0,0,0
2423,1236,8065,-13,0,0,0,0,0
2424,1237,8042,-18,0,0,0,0,0
2425,1238,8070,-25,0,0,0,0,0
2426,1240,8065,-39,0,0,0,0,0
2427,1235,8057,-48,0,0,0,0,0
2428,1236,8067,-52,0,0,0,0,0
2429,1230,8053,-28,0,0,0,0,0
2430,1236,8058,-5,0,0,0,0,0
2431,1238,8061,-18,0,0,0,0,0
2432,1232,8057,-24,0,0,0,0,0
2433,1228,8045,-30,0,0,0,0,0
2434,1230,8070,-42,0,0,0,0,0
2435,1241,8063,-41,0,0,0,0,0
2436,1231,8046,-34,0,0,0,0,0
2437,1230,8065,-29,0,0,0,0,0
2438,1240,8065,-3,0,0,0,0,0
2439,1232,8053,22,0,0,0,0,0
2440,1242,8078,-104,0,0,0,0,0
2441,1254,8061,-112,0,0,0,0,0
2442,1218,8064,-67,0,0,0,0,0
2443,1266,8062,25,0,0,0,0,0
2444,1228,8070,1,0,0,0,0,0
2445,1239,8052,16,0,0,0,0,0
2446,1241,8054,-5,0,0,0,0,0
2447,1235,8067,-46,0,0,0,0,0
2448,1228,8062,-73,0,0,0,0,0
2449,1234,8048,-52,0,0,0,0,0
2450,1242,8079,-15,0,0,0,0,0
2451,1230,8058,6,0,0,0,0,0
2452,1242,8058,-3,0,0,0,0,0
2453,1224,8058,-18,0,0,0,0,0
2454,1228,8068,-45,0,0,0,0,0
2455,1228,8054,-62,0,0,0,0,0
2456,1246,8062,-38,0,0,0,0,0
2457,1228,8069,-18,0,0,0,0,0
2458,1236,8057,-10,0,0,0,0,0
2459,1237,8053,-6,0,0,0,0,0
2460,1226,8051,-11,0,0,0,0,0
2461,1229,8072,-32,0,0,0,0,0
2462,1256,8060,-54,0,0,0,0,0
2463,1225,8044,-43,0,0,0,0,0
2464,1224,8065,-50,0,0,0,0,0
2465,1252,8069,-22,0,0,0,0,0
2466,1247,8064,-30,0,0,0,0,0
2467,1230,8065,-24,0,0,0,0,0
2468,1238,8061,-26,0,0,0,0,0
2469,1246,8050,-30,0,0,0,0,0
2470,1239,8068,-39,0,0,0,0,0
2471,1225,8072,-29,0,0,0,0,0
2472,1241,8057,-26,0,0,0,0,0
2473,1241,8060,-18,0,0,0,0,0
2474,1237,8060,-23,0,0,0,0,0
2475,1227,8055,-17,0,0,0,0,0
2476,1235,8058,-36,0,0,0,0,0
2477,1242,8068,-30,0,0,0,0,0
2478,1245,8068,-35,0,0,0,0,0
2479,1242,8047,-31,0,0,0,0,0
2480,1225,8057,-20,0,0,0,0,0
2481,1234,8067,-34,0,0,0,0,0
2482,1235,8056,-23,0,0,0,0,0
2483,1241,8051,-35,0,0,0,0,0
2484,1242,8067,-39,0,0,0,0,0
2485,1239,8057,-40,0,0,0,0,0
2486,1233,8073,-28,0,0,0,0,0
2487,1234,8056,-26,0,0,0,0,0
2488,1240,8060,-28,0,0,0,0,0
2489,1231,8062,-28,0,0,0,0,0
2490,1238,8070,-35,0,0,0,0,0
2491,1243,8053,-24,0,0,0,0,0
2492,1241,8068,-27,0,0,0,0,0
2493,1233,8064,-28,0,0,0,0,0
2494,1231,8060,-26,0,0,0,0,0
2495,1233,8059,-37,0,0,0,0,0
2496,1234,8062,-28,0,0,0,0,0
2497,1238,8038,-42,0,0,0,0,0
2498,1238,8064,-18,0,0,0,0,0
2499,1235,8058,-30,0,0,0,0,0
2500,1241,8057,-30,0,0,0,0,0
2501,1232,8066,-34,0,0,0,0,0
2502,1240,8062,-31,0,0,0,0,0
2503,1236,8058,-29,0,0,0,0,0
2504,1235,8058,-28,0,0,0,0,0
2505,1238,8064,-27,0,0,0,0,0
2506,1239,8052,-26,0,0,0,0,0
2507,1226,8058,-31,0,0,0,0,0
2508,1236,8062,-24,0,0,0,0,0
2509,1240,8060,-28,0,0,0,0,0
2510,1228,8070,-27,0,0,0,0,0
2511,1245,8045,-22,0,0,0,0,0
2512,1248,8063,-20,0,0,0,0,0
2513,1225,8068,-30,0,0,0,0,0
2514,1240,8066,-34,0,0,0,0,0
2515,1238,8043,-30,0,0,0,0,0
2516,1238,8066,-35,0,0,0,0,0
2517,1235,8056,-32,0,0,0,0,0
2518,1243,8050,-38,0,0,0,0,0
2519,1223,8048,-34,0,0,0,0,0
2520,1239,8061,-26,0,0,0,0,0
2521,1235,8063,-24,0,0,0,0,0
2522,1236,8065,-28,0,0,0,0,0
2523,1233,8058,-39,0,0,0,0,0
2524,1242,8062,-26,0,0,0,0,0
2525,1225,8060,-26,0,0,0,0,0
2526,1233,8058,-24,0,0,0,0,0
2527,1236,8057,-29,0,0,0,0,0
2528,1232,8054,-41,0,0,0,0,0
2529,1238,8048,-25,0,0,0,0,0
2530,1240,8068,-30,0,0,0,0,0
2531,1239,8050,-29,0,0,0,0,0
2532,1242,8061,-24,0,0,0,0,0
2533,1236,8060,-30,0,0,0,0,0
2534,1242,8064,-23,0,0,0,0,0
2535,1233,8045,-26,0,0,0,0,0
2536,1251,8061,-38,0,0,0,0,0
2537,1232,8062,-28,0,0,0,0,0
2538,1242,8052,-46,0,0,0,0,0
2539,1230,8056,-36,0,0,0,0,0
2540,1241,8058,-20,0,0,0,0,0
2541,1231,8060,-22,0,0,0,0,0
2542,1235,8069,-22,0,0,0,0,0
2543,1235,8073,-34,0,0,0,0,0
2544,1251,8066,-46,0,0,0,0,0
2545,1234,8052,-33,0,0,0,0,0
2546,1240,8064,-24,0,0,0,0,0
2547,1236,8067,-30,0,0,0,0,0
2548,1248,8049,-33,0,0,0,0,0
2549,1235,8054,-43,0,0,0,0,0
2550,1241,8067,-24,0,0,0,0,0
2551,1242,8059,-20,0,0,0,0,0
2552,1232,8054,-25,0,0,0,0,0
2553,1237,8061,-32,0,0,0,0,0
2554,1232,8060,-32,0,0,0,0,0
2555,1239,8067,-34,0,0,0,0,0
2556,1240,8059,-30,0,0,0,0,0
2557,1235,8073,-24,0,0,0,0,0
2558,1238,8063,-46,0,0,0,0,0
2559,1225,8057,-30,0,0,0,0,0
2560,1229,8055,-27,0,0,0,0,0
2561,1234,8060,-16,0,0,0,0,0
2562,1242,8055,-29,0,0,0,0,0
2563,1232,8064,-32,0,0,0,0,0
2564,1236,8064,-43,0,0,0,0,0
2565,1243,8059,-27,0,0,0,0,0
2566,1241,8062,-31,0,0,0,0,0
2567,1238,8059,-19,0,0,0,0,0
2568,1239,8072,-23,0,0,0,0,0
2569,1226,8040,-32,0,0,0,0,0
2570,1252,8064,-21,0,0,0,0,0
2571,1218,8070,-29,0,0,0,0,0
2572,1228,8072,-40,0,0,0,0,0
2573,1237,8033,-30,0,0,0,0,0
2574,1237,8064,-32,0,0,0,0,0
2575,1246,8064,-25,0,0,0,0,0
2576,1226,8044,-17,0,0,0,0,0
2577,1241,8064,-35,0,0,0,0,0
2578,1235,8064,-34,0,0,0,0,0
2579,1229,8058,-36,0,0,0,0,0
2580,1243,8064,-24,0,0,0,0,0
2581,1236,8064,-22,0,0,0,0,0
2582,1244,8053,-28,0,0,0,0,0
2583,1237,8054,-32,0,0,0,0,0
2584,1236,8068,-26,0,0,0,0,0
2585,1235,8066,-30,0,0,0,0,0
2586,1234,8052,-36,0,0,0,0,0
2587,1234,8065,-18,0,0,0,0,0
2588,1238,8062,-29,0,0,0,0,0
2589,1231,8050,-31,0,0,0,0,0
2590,1241,8064,-20,0,0,0,0,0
2591,1234,8064,-30,0,0,0,0,0
2592,1243,8057,-37,0,0,0,0,0
2593,1232,8047,-21,0,0,0,0,0
2594,1238,8068,-36,0,0,0,0,0
2595,1236,8057,-26,0,0,0,0,0
2596,1245,8058,-45,0,0,0,0,0
2597,1240,8063,-23,0,0,0,0,0
2598,1243,8067,-40,0,0,0,0,0
2599,1234,8046,-32,0,0,0,0,0
2600,1246,8072,-39,0,0,0,0,0
2601,1234,8048,-40,0,0,0,0,0
2602,1214,8065,-14,0,0,0,0,0
2603,1241,8067,-11,0,0,0,0,0
2604,1237,8066,-6,0,0,0,0,0
2605,1229,8056,-28,0,0,0,0,0
2606,1231,8060,-36,0,0,0,0,0
2607,1242,8062,-62,0,0,0,0,0
2608,1235,8067,-36,0,0,0,0,0
2609,1226,8055,-28,0,0,0,0,0
2610,1236,8059,-19,0,0,0,0,0
2611,1242,8065,-14,0,0,0,0,0
2612,1232,8055,-29,0,0,0,0,0
2613,1235,8058,-30,0,0,0,0,0
2614,1247,8058,-27,0,0,0,0,0
2615,1231,8048,-44,0,0,0,0,0
2616,1243,8072,-34,0,0,0,0,0
2617,1253,8066,-20,0,0,0,0,0
2618,1235,8058,-43,0,0,0,0,0
2619,1228,8050,-38,0,0,0,0,0
2620,1240,8067,-46,0,0,0,0,0
2621,1243,8050,-40,0,0,0,0,0
2622,1236,8052,-22,0,0,0,0,0
2623,1227,8056,-42,0,0,0,0,0
2624,1246,8070,-17,0,0,0,0,0
2625,1236,8051,-44,0,0,0,0,0
2626,1238,8043,-25,0,0,0,0,0
2627,1237,8049,-38,0,0,0,0,0
2628,1236,8054,-41,0,0,0,0,0
2629,1231,8072,-31,0,0,0,0,0
2630,1240,8070,-21,0,0,0,0,0
2631,1242,8053,-24,0,0,0,0,0
2632,1236,8062,-24,0,0,0,0,0
2633,1237,8058,-34,0,0,0,0,0
2634,1237,8058,-36,0,0,0,0,0
2635,1236,8061,-20,0,0,0,0,0
2636,1231,8058,-38,0,0,0,0,0
2637,1247,8072,-39,0,0,0,0,0
2638,1235,8060,-24,0,0,0,0,0
2639,1239,8060,-31,0,0,0,0,0
2640,1232,8076,29,0,0,0,0,0
2641,1243,8062,-62,0,0,0,0,0
2642,1230,8045,-38,0,0,0,0,0
2643,1246,8068,-20,0,0,0,0,0
2644,1242,8060,-11,0,0,0,0,0
2645,1226,8054,-56,0,0,0,0,0
2646,1222,8054,-32,0,0,0,0,0
2647,1233,8067,-18,0,0,0,0,0
2648,1248,8076,-23,0,0,0,0,0
2649,1246,8069,-21,0,0,0,0,0
2650,1242,8056,-19,0,0,0,0,0
2651,1240,8060,-26,0,0,0,0,0
2652,1233,8064,-26,0,0,0,0,0
2653,1242,8053,-39,0,0,0,0,0
2654,1239,8060,-48,0,0,0,0,0
2655,1210,8056,-61,0,0,0,0,0
2656,1270,8066,10,0,0,0,0,0
2657,1179,8063,-28,0,0,0,0,0
2658,1260,8048,-41,0,0,0,0,0
2659,1240,8056,0,0,0,0,0,0
2660,1262,8062,-20,0,0,0,0,0
2661,1216,8042,-25,0,0,0,0,0
2662,1240,8067,-61,0,0,0,0,0
2663,1243,8044,-44,0,0,0,0,0
2664,1214,8080,-39,0,0,0,0,0
2665,1234,8066,9,0,0,0,0,0
2666,1248,8027,-7,0,0,0,0,0
2667,1221,8067,-20,0,0,0,0,0
2668,1242,8076,-59,0,0,0,0,0
2669,1236,8044,-49,0,0,0,0,0
2670,1230,8055,-60,0,0,0,0,0
2671,1220,8067,-20,0,0,0,0,0
2672,1253,8052,15,0,0,0,0,0
2673,1248,8068,8,0,0,0,0,0
2674,1221,8033,-26,0,0,0,0,0
2675,1230,8096,58,0,0,0,0,0
2676,1238,8074,-24,0,0,0,0,0
2677,1254,8115,-13,0,0,0,0,0
2678,1224,8090,-22,0,0,0,0,0
2679,1244,8081,-10,0,0,0,0,0
2680,1251,8066,-44,0,0,0,0,0
2681,1245,8039,6,0,0,0,0,0
2682,1224,8090,-256,0,0,0,0,0
2683,1234,8062,-40,0,0,0,0,0
2684,1232,8043,-32,0,0,0,0,0
2685,1252,8098,-11,0,0,0,0,0
2686,1238,8064,-48,0,0,0,0,0
2687,1238,8005,-66,0,0,0,0,0
2688,1248,8082,-18,0,0,0,0,0
2689,1245,8078,-40,0,0,0,0,0
2690,1204,8051,-30,0,0,0,0,0
2691,1240,8056,-11,0,0,0,0,0
2692,1244,8066,-28,0,0,0,0,0
2693,1232,8044,-52,0,0,0,0,0
2694,1237,8088,-43,0,0,0,0,0
2695,1232,8048,-27,0,0,0,0,0
2696,1223,8076,-21,0,0,0,0,0
2697,1243,8078,-41,0,0,0,0,0
2698,1225,8055,-27,0,0,0,0,0
2699,1261,8071,-11,0,0,0,0,0
2700,1214,8056,-37,0,0,0,0,0
2701,1251,8072,-18,0,0,0,0,0
2702,1223,8076,-82,0,0,0,0,0
2703,1255,8055,-46,0,0,0,0,0
2704,1237,8054,-23,0,0,0,0,0
2705,1235,8054,-38,0,0,0,0,0
2706,1238,8067,-42,0,0,0,0,0
2707,1237,8092,-52,0,0,0,0,0
2708,1270,8029,-23,0,0,0,0,0
2709,1211,8031,-155,0,0,0,0,0
2710,1264,8080,43,0,0,0,0,0
2711,1262,8060,-84,0,0,0,0,0
2712,1258,8081,-17,0,0,0,0,0
2713,1222,8056,10,0,0,0,0,0
2714,1262,8072,-12,0,0,0,0,0
2715,1244,8056,-12,0,0,0,0,0
2716,1230,8054,-21,0,0,0,0,0
2717,1233,8072,-38,0,0,0,0,0
2718,1242,8082,-38,0,0,0,0,0
2719,1224,8049,-13,0,0,0,0,0
2720,1254,7978,-3,0,0,0,0,0
2721,1238,8000,-36,0,0,0,0,0
2722,1250,8141,44,0,0,0,0,0
2723,1222,8092,-88,0,0,0,0,0
2724,1224,8032,-72,0,0,0,0,0
2725,1237,8052,4,0,0,0,0,0
2726,1258,8045,-60,0,0,0,0,0
2727,1238,8071,-21,0,0,0,0,0
2728,1216,8059,-34,0,0,0,0,0
2729,1236,8058,-50,0,0,0,0,0
2730,1252,8079,-50,0,0,0,0,0
2731,1230,8044,-14,0,0,0,0,0
2732,1233,8062,-38,0,0,0,0,0
2733,1256,8086,-2,0,0,0,0,0
2734,1226,8055,-35,0,0,0,0,0
2735,1216,8072,-68,0,0,0,0,0
2736,1266,8054,-45,0,0,0,0,0
2737,1224,8063,11,0,0,0,0,0
2738,1236,8064,-4,0,0,0,0,0
2739,1259,8060,-35,0,0,0,0,0
2740,1232,8062,-22,0,0,0,0,0
2741,1229,8088,-43,0,0,0,0,0
2742,1188,7928,-162,0,0,0,0,0
2743,1193,8057,-40,0,0,0,0,0
2744,1248,8022,-255,0,0,0,0,0
2745,1239,8072,-39,0,0,0,0,0
2746,1232,8040,55,0,0,0,0,0
2747,1235,8052,-63,0,0,0,0,0
2748,1249,8060,1,0,0,0,0,0
2749,1252,8094,-25,0,0,0,0,0
2750,1246,8056,-56,0,0,0,0,0
2751,1202,8026,-73,0,0,0,0,0
2752,1225,8076,-52,0,0,0,0,0
2753,1243,8039,-76,0,0,0,0,0
2754,1218,8038,-11,0,0,0,0,0
2755,1243,8089,28,0,0,0,0,0
2756,1240,8037,-66,0,0,0,0,0
2757,1221,8058,6,0,0,0,0,0
2758,1234,8079,-52,0,0,0,0,0
2759,1231,8071,8,0,0,0,0,0
2760,1186,8083,54,0,0,0,0,0
2761,1192,8037,-52,0,0,0,0,0
2762,1228,7919,-576,0,0,0,0,0
2763,1225,8098,4,0,0,0,0,0
2764,1210,8064,-10,0,0,0,0,0
2765,1228,8056,-9,0,0,0,0,0
2766,1239,8060,-112,0,0,0,0,0
2767,1187,8070,-33,0,0,0,0,0
2768,1202,8056,-74,0,0,0,0,0
2769,1248,8054,-107,0,0,0,0,0
2770,1176,8060,-9,0,0,0,0,0
2771,1219,8096,-51,0,0,0,0,0
2772,1183,8042,-21,0,0,0,0,0
2773,1224,8060,-18,0,0,0,0,0
2774,1211,8035,-82,0,0,0,0,0
2775,1234,8054,-59,0,0,0,0,0
2776,1225,8070,-21,0,0,0,0,0
2777,1219,8054,-29,0,0,0,0,0
2778,1236,8062,-11,0,0,0,0,0
2779,1228,8092,-26,0,0,0,0,0
2780,1228,8062,-56,0,0,0,0,0
2781,1227,8058,-54,0,0,0,0,0
2782,1238,8062,-49,0,0,0,0,0
2783,1221,8068,-19,0,0,0,0,0
2784,1226,8070,-45,0,0,0,0,0
2785,1234,8055,-42,0,0,0,0,0
2786,1230,8064,-50,0,0,0,0,0
2787,1227,8062,-40,0,0,0,0,0
2788,1229,8058,-29,0,0,0,0,0
2789,1226,8067,-25,0,0,0,0,0
2790,1230,8054,-36,0,0,0,0,0
2791,1227,8058,-42,0,0,0,0,0
2792,1231,8060,-41,0,0,0,0,0
2793,1220,8059,-40,0,0,0,0,0
2794,1200,8064,-17,0,0,0,0,0
2795,1227,8069,-33,0,0,0,0,0
2796,1238,8061,-41,0,0,0,0,0
2797,1222,8060,-43,0,0,0,0,0
2798,1221,8078,-16,0,0,0,0,0
2799,1232,8056,-38,0,0,0,0,0
2800,1214,8060,-47,0,0,0,0,0
2801,1210,8058,-34,0,0,0,0,0
2802,1245,8093,-32,0,0,0,0,0
2803,1264,8090,36,0,0,0,0,0
2804,1202,8039,-70,0,0,0,0,0
2805,1247,8059,-39,0,0,0,0,0
2806,1223,8067,-34,0,0,0,0,0
2807,1230,8070,-52,0,0,0,0,0
2808,1218,8055,-58,0,0,0,0,0
2809,1228,8062,-33,0,0,0,0,0
2810,1243,8063,-27,0,0,0,0,0
2811,1233,8048,-32,0,0,0,0,0
2812,1216,8063,-45,0,0,0,0,0
2813,1230,8062,-41,0,0,0,0,0
2814,1218,8059,-47,0,0,0,0,0
2815,1210,8059,-34,0,0,0,0,0
2816,1234,8054,-32,0,0,0,0,0
2817,1230,8064,-33,0,0,0,0,0
2818,1234,8068,-12,0,0,0,0,0
2819,1214,8057,-9,0,0,0,0,0
2820,1224,8050,-58,0,0,0,0,0
2821,1221,8068,-56,0,0,0,0,0
2822,1232,8048,-26,0,0,0,0,0
2823,1206,8050,-42,0,0,0,0,0
2824,1234,8106,-15,0,0,0,0,0
2825,1184,8088,-65,0,0,0,0,0
2826,1276,8050,-53,0,0,0,0,0
2827,1205,8082,-26,0,0,0,0,0
2828,1236,8062,-32,0,0,0,0,0
2829,1222,8018,-24,0,0,0,0,0
2830,1244,8094,-62,0,0,0,0,0
2831,1221,8086,-83,0,0,0,0,0
2832,1207,8034,-57,0,0,0,0,0
2833,1248,8081,-42,0,0,0,0,0
2834,1232,8056,-40,0,0,0,0,0
2835,1210,8035,-30,0,0,0,0,0
2836,1246,8070,-44,0,0,0,0,0
2837,1239,8084,-50,0,0,0,0,0
2838,1212,8050,-62,0,0,0,0,0
2839,1227,8074,-55,0,0,0,0,0
2840,1224,8058,-25,0,0,0,0,0
2841,1220,8066,-31,0,0,0,0,0
2842,1233,8067,-37,0,0,0,0,0
2843,1228,8066,-63,0,0,0,0,0
2844,1213,8055,-45,0,0,0,0,0
2845,1225,8057,-37,0,0,0,0,0
2846,1232,8063,-39,0,0,0,0,0
2847,1234,8055,-46,0,0,0,0,0
2848,1231,8078,-46,0,0,0,0,0
2849,1232,8066,-52,0,0,0,0,0
2850,1230,8060,-43,0,0,0,0,0
2851,1218,8070,-44,0,0,0,0,0
2852,1230,8049,-44,0,0,0,0,0
2853,1225,8066,-38,0,0,0,0,0
2854,1226,8060,-42,0,0,0,0,0
2855,1228,8046,-48,0,0,0,0,0
2856,1225,8064,-55,0,0,0,0,0
2857,1220,8064,-41,0,0,0,0,0
2858,1225,8056,-33,0,0,0,0,0
2859,1226,8061,-37,0,0,0,0,0
2860,1231,8077,-48,0,0,0,0,0
2861,1218,8065,-48,0,0,0,0,0
2862,1234,8067,-25,0,0,0,0,0
2863,1223,8059,-46,0,0,0,0,0
2864,1229,8057,-50,0,0,0,0,0
2865,1215,8070,-52,0,0,0,0,0
2866,1228,8058,-50,0,0,0,0,0
2867,1220,8045,-47,0,0,0,0,0
2868,1236,8089,-51,0,0,0,0,0
2869,1219,8059,-50,0,0,0,0,0
2870,1218,8052,-41,0,0,0,0,0
2871,1228,8077,-53,0,0,0,0,0
2872,1229,8055,-50,0,0,0,0,0
2873,1218,8056,-30,0,0,0,0,0
2874,1230,8067,-38,0,0,0,0,0
2875,1218,8059,-55,0,0,0,0,0
2876,1221,8050,-47,0,0,0,0,0
2877,1225,8072,-51,0,0,0,0,0
2878,1221,8056,-41,0,0,0,0,0
2879,1224,8077,-42,0,0,0,0,0
2880,1220,8068,-52,0,0,0,0,0
2881,1231,8052,-45,0,0,0,0,0
2882,1235,8076,-45,0,0,0,0,0
2883,1214,8062,-55,0,0,0,0,0
2884,1228,8051,-51,0,0,0,0,0
2885,1221,8065,-42,0,0,0,0,0
2886,1225,8073,-52,0,0,0,0,0
2887,1222,8050,-34,0,0,0,0,0
2888,1227,8064,-50,0,0,0,0,0
2889,1219,8070,-47,0,0,0,0,0
2890,1230,8062,-19,0,0,0,0,0
2891,1224,8052,-42,0,0,0,0,0
2892,1225,8068,-51,0,0,0,0,0
2893,1224,8058,-50,0,0,0,0,0
2894,1240,8082,-48,0,0,0,0,0
2895,1220,8082,-36,0,0,0,0,0
2896,1216,8053,-21,0,0,0,0,0
2897,1237,8062,-36,0,0,0,0,0
2898,1214,8056,-51,0,0,0,0,0
2899,1222,8047,-45,0,0,0,0,0
2900,1237,8083,-36,0,0,0,0,0
2901,1229,8058,-26,0,0,0,0,0
2902,1210,8051,-42,0,0,0,0,0
2903,1222,8069,-57,0,0,0,0,0
2904,1236,8057,-55,0,0,0,0,0
2905,1214,8066,-48,0,0,0,0,0
2906,1230,8069,-44,0,0,0,0,0
2907,1229,8067,-31,0,0,0,0,0
2908,1222,8068,-54,0,0,0,0,0
2909,1222,8066,-62,0,0,0,0,0
2910,1228,8056,-34,0,0,0,0,0
2911,1222,8076,-30,0,0,0,0,0
2912,1216,8061,-50,0,0,0,0,0
2913,1222,8066,-20,0,0,0,0,0
2914,1242,8074,-28,0,0,0,0,0
2915,1222,8071,-44,0,0,0,0,0
2916,1219,8060,-50,0,0,0,0,0
2917,1231,8073,-40,0,0,0,0,0
2918,1220,8062,-44,0,0,0,0,0
2919,1225,8079,-21,0,0,0,0,0
2920,1228,8066,-52,0,0,0,0,0
2921,1224,8060,-50,0,0,0,0,0
2922,1218,8063,-56,0,0,0,0,0
2923,1229,8070,-36,0,0,0,0,0
2924,1223,8052,-51,0,0,0,0,0
2925,1222,8070,-47,0,0,0,0,0
2926,1213,8065,-46,0,0,0,0,0
2927,1227,8061,-18,0,0,0,0,0
2928,1216,8078,-18,0,0,0,0,0
2929,1219,8058,-46,0,0,0,0,0
2930,1214,8052,-59,0,0,0,0,0
2931,1230,8079,-60,0,0,0,0,0
2932,1248,8069,-36,0,0,0,0,0
2933,1224,8044,-16,0,0,0,0,0
2934,1220,8071,-64,0,0,0,0,0
2935,1237,8091,-50,0,0,0,0,0
2936,1236,8032,-58,0,0,0,0,0
2937,1224,8055,-71,0,0,0,0,0
2938,1202,8063,-65,0,0,0,0,0
2939,1234,8063,-34,0,0,0,0,0
2940,1240,8061,-26,0,0,0,0,0
2941,1218,8080,-33,0,0,0,0,0
2942,1221,8064,-66,0,0,0,0,0
2943,1221,8054,-64,0,0,0,0,0
2944,1236,8063,-48,0,0,0,0,0
2945,1217,8068,-42,0,0,0,0,0
2946,1235,8055,-18,0,0,0,0,0
2947,1226,8068,-62,0,0,0,0,0
2948,1227,8049,-60,0,0,0,0,0
2949,1232,8071,-48,0,0,0,0,0
2950,1230,8073,-36,0,0,0,0,0
2951,1226,8045,-41,0,0,0,0,0
2952,1231,8064,-31,0,0,0,0,0
2953,1224,8065,-53,0,0,0,0,0
2954,1227,8058,-54,0,0,0,0,0
2955,1215,8072,-42,0,0,0,0,0
2956,1229,8074,-40,0,0,0,0,0
2957,1210,8065,-56,0,0,0,0,0
2958,1230,8055,-52,0,0,0,0,0
2959,1236,8064,-35,0,0,0,0,0
2960,1219,8056,-33,0,0,0,0,0
2961,1228,8052,-40,0,0,0,0,0
2962,1220,8062,-24,0,0,0,0,0
2963,1243,8042,-12,0,0,0,0,0
2964,1166,8006,-78,0,0,0,0,0
2965,1267,8154,-64,0,0,0,0,0
2966,1252,8148,-82,0,0,0,0,0
2967,1164,7950,-82,0,0,0,0,0
2968,1147,7984,-84,0,0,0,0,0
2969,1263,8106,-86,0,0,0,0,0
2970,1251,8060,-42,0,0,0,0,0
2971,1268,8032,-32,0,0,0,0,0
2972,1162,8086,-80,0,0,0,0,0
2973,1238,8074,-32,0,0,0,0,0
2974,1206,8017,-67,0,0,0,0,0
2975,1255,8074,-59,0,0,0,0,0
2976,1186,8098,-42,0,0,0,0,0
2977,1206,8035,-41,0,0,0,0,0
2978,1232,8081,-60,0,0,0,0,0
2979,1242,8087,-28,0,0,0,0,0
2980,1189,8044,-88,0,0,0,0,0
2981,1240,8036,-39,0,0,0,0,0
2982,1234,8061,-81,0,0,0,0,0
2983,1221,8056,-31,0,0,0,0,0
2984,1204,8060,-23,0,0,0,0,0
2985,1242,8089,-9,0,0,0,0,0
2986,1232,8068,-15,0,0,0,0,0
2987,1213,8043,-30,0,0,0,0,0
2988,1220,8066,-40,0,0,0,0,0
2989,1226,8065,-71,0,0,0,0,0
2990,1226,8052,-60,0,0,0,0,0
2991,1208,8067,-49,0,0,0,0,0
2992,1212,8074,-43,0,0,0,0,0
2993,1220,8054,-41,0,0,0,0,0
2994,1227,8068,-29,0,0,0,0,0
2995,1234,8073,-37,0,0,0,0,0
2996,1228,8062,-25,0,0,0,0,0
2997,1220,8054,-38,0,0,0,0,0
2998,1234,8069,-46,0,0,0,0,0
2999,1219,8056,-51,0,0,0,0,0
3000,1211,8053,-40,0,0,0,0,0
3001,1225,8070,-37,0,0,0,0,0
3002,1225,8062,-38,0,0,0,0,0
3003,1224,8070,-33,0,0,0,0,0
3004,1231,8062,-46,0,0,0,0,0
3005,1209,8058,-36,0,0,0,0,0
3006,1214,8104,21,0,0,0,0,0
3007,1229,8064,-15,0,0,0,0,0
3008,1215,8074,-22,0,0,0,0,0
3009,1220,8074,-31,0,0,0,0,0
3010,1226,8065,-37,0,0,0,0,0
3011,1213,8071,-30,0,0,0,0,0
3012,1216,8062,-41,0,0,0,0,0
3013,1230,8061,-45,0,0,0,0,0
3014,1218,8050,-49,0,0,0,0,0
3015,1208,8068,-42,0,0,0,0,0
3016,1219,8064,-38,0,0,0,0,0
3017,1232,8066,-44,0,0,0,0,0
3018,1222,8060,-29,0,0,0,0,0
3019,1219,8071,-32,0,0,0,0,0
3020,1228,8061,-41,0,0,0,0,0
3021,1225,8062,-36,0,0,0,0,0
3022,1216,8082,-36,0,0,0,0,0
3023,1228,8067,-41,0,0,0,0,0
3024,1213,8056,-30,0,0,0,0,0
3025,1234,8080,-34,0,0,0,0,0
3026,1228,8073,-48,0,0,0,0,0
3027,1218,8060,-40,0,0,0,0,0
3028,1218,8061,-38,0,0,0,0,0
3029,1244,8068,-34,0,0,0,0,0
3030,1230,8054,-35,0,0,0,0,0
3031,1214,8079,-34,0,0,0,0,0
3032,1216,8071,-35,0,0,0,0,0
3033,1220,8057,-47,0,0,0,0,0
3034,1216,8060,-34,0,0,0,0,0
3035,1222,8075,-38,0,0,0,0,0
3036,1223,8047,-41,0,0,0,0,0
3037,1216,8068,-41,0,0,0,0,0
3038,1216,8056,-48,0,0,0,0,0
3039,1215,8056,-51,0,0,0,0,0
3040,1229,8070,-46,0,0,0,0,0
3041,1226,8063,-44,0,0,0,0,0
3042,1224,8054,-32,0,0,0,0,0
3043,1226,8074,-35,0,0,0,0,0
3044,1228,8077,-37,0,0,0,0,0
3045,1216,8058,-37,0,0,0,0,0
3046,1213,8051,-47,0,0,0,0,0
3047,1230,8084,-36,0,0,0,0,0
3048,1215,8063,-52,0,0,0,0,0
3049,1226,8050,-35,0,0,0,0,0
3050,1214,8076,-49,0,0,0,0,0
3051,1223,8046,-36,0,0,0,0,0
3052,1224,8059,-32,0,0,0,0,0
3053,1223,8072,-44,0,0,0,0,0
3054,1223,8062,-42,0,0,0,0,0
3055,1217,8061,-46,0,0,0,0,0
3056,1223,8055,-46,0,0,0,0,0
3057,1221,8046,-52,0,0,0,0,0
3058,1230,8090,-45,0,0,0,0,0
3059,1220,8065,-55,0,0,0,0,0
3060,1241,8073,-16,0,0,0,0,0
3061,1229,8046,-62,0,0,0,0,0
3062,1216,8068,-38,0,0,0,0,0
3063,1204,8078,-54,0,0,0,0,0
3064,1226,8051,-37,0,0,0,0,0
3065,1247,8066,-38,0,0,0,0,0
3066,1212,8075,-45,0,0,0,0,0
3067,1236,8053,-35,0,0,0,0,0
3068,1236,8052,-34,0,0,0,0,0
3069,1220,8079,-45,0,0,0,0,0
3070,1218,8058,-46,0,0,0,0,0
3071,1213,8052,-53,0,0,0,0,0
3072,1227,8072,-41,0,0,0,0,0
3073,1225,8068,-40,0,0,0,0,0
3074,1203,8062,-44,0,0,0,0,0
3075,1234,8078,-31,0,0,0,0,0
3076,1223,8071,-47,0,0,0,0,0
3077,1229,8062,-51,0,0,0,0,0
3078,1218,8062,-45,0,0,0,0,0
3079,1204,8056,-37,0,0,0,0,0
3080,1237,8057,-24,0,0,0,0,0
3081,1240,8061,-22,0,0,0,0,0
3082,1170,8065,-66,0,0,0,0,0
3083,1195,8055,-34,0,0,0,0,0
3084,1258,8067,-44,0,0,0,0,0
3085,1245,8065,-47,0,0,0,0,0
3086,1185,8052,-38,0,0,0,0,0
3087,1223,8072,-26,0,0,0,0,0
3088,1260,8091,-47,0,0,0,0,0
3089,1214,8014,-58,0,0,0,0,0
3090,1188,8037,-51,0,0,0,0,0
3091,1216,8095,-54,0,0,0,0,0
3092,1236,8068,-40,0,0,0,0,0
3093,1207,8034,-28,0,0,0,0,0
3094,1217,8079,-30,0,0,0,0,0
3095,1240,8074,-35,0,0,0,0,0
3096,1233,8046,-43,0,0,0,0,0
3097,1222,8066,-50,0,0,0,0,0
3098,1230,8070,-45,0,0,0,0,0
3099,1239,8045,-44,0,0,0,0,0
3100,1241,8060,-16,0,0,0,0,0
3101,1193,8086,-58,0,0,0,0,0
3102,1197,8051,-41,0,0,0,0,0
3103,1230,8050,-20,0,0,0,0,0
3104,1226,8088,-40,0,0,0,0,0
3105,1243,8058,-54,0,0,0,0,0
3106,1178,8053,-59,0,0,0,0,0
3107,1230,8064,-36,0,0,0,0,0
3108,1238,8078,-54,0,0,0,0,0
3109,1206,8053,-57,0,0,0,0,0
3110,1225,8078,-11,0,0,0,0,0
3111,1222,8064,-48,0,0,0,0,0
3112,1243,8054,-21,0,0,0,0,0
3113,1209,8058,-28,0,0,0,0,0
3114,1208,8064,-43,0,0,0,0,0
3115,1205,8059,-71,0,0,0,0,0
3116,1233,8054,-59,0,0,0,0,0
3117,1208,8067,-47,0,0,0,0,0
3118,1193,8053,-44,0,0,0,0,0
3119,1250,8046,-45,0,0,0,0,0
3120,1228,8073,-16,0,0,0,0,0
3121,1217,8076,-26,0,0,0,0,0
3122,1212,8070,-35,0,0,0,0,0
3123,1234,8061,-35,0,0,0,0,0
3124,1201,8076,-36,0,0,0,0,0
3125,1238,8070,-32,0,0,0,0,0
3126,1218,8072,-36,0,0,0,0,0
3127,1218,8054,-30,0,0,0,0,0
3128,1222,8064,-28,0,0,0,0,0
3129,1226,8063,-47,0,0,0,0,0
3130,1214,8070,-42,0,0,0,0,0
3131,1223,8070,-34,0,0,0,0,0
3132,1222,8051,-44,0,0,0,0,0
3133,1224,8076,-44,0,0,0,0,0
3134,1223,8054,-21,0,0,0,0,0
3135,1168,8062,-74,0,0,0,0,0
3136,1269,8072,-21,0,0,0,0,0
3137,1220,8028,-85,0,0,0,0,0
3138,1192,8046,-12,0,0,0,0,0
3139,1200,8080,-44,0,0,0,0,0
3140,1230,8079,-44,0,0,0,0,0
3141,1253,8069,-44,0,0,0,0,0
3142,1228,8066,-24,0,0,0,0,0
3143,1220,8057,-30,0,0,0,0,0
3144,1224,8070,-44,0,0,0,0,0
3145,1214,8053,-36,0,0,0,0,0
3146,1221,8057,-35,0,0,0,0,0
3147,1197,8073,-49,0,0,0,0,0
3148,1169,8060,-67,0,0,0,0,0
3149,1233,8034,-44,0,0,0,0,0
3150,1239,8066,-68,0,0,0,0,0
3151,1234,8076,-5,0,0,0,0,0
3152,1199,8056,-14,0,0,0,0,0
3153,1236,8061,-26,0,0,0,0,0
3154,1222,8060,-50,0,0,0,0,0
3155,1228,8066,-53,0,0,0,0,0
3156,1211,8058,-58,0,0,0,0,0
3157,1215,8061,-48,0,0,0,0,0
3158,1238,8064,-45,0,0,0,0,0
3159,1222,8070,-22,0,0,0,0,0
3160,1215,8057,-28,0,0,0,0,0
3161,1219,8048,-44,0,0,0,0,0
3162,1220,8073,-41,0,0,0,0,0
3163,1219,8064,-44,0,0,0,0,0
3164,1233,8054,-42,0,0,0,0,0
3165,1220,8064,-46,0,0,0,0,0
3166,1219,8072,-30,0,0,0,0,0
3167,1216,8057,-41,0,0,0,0,0
3168,1230,8061,-38,0,0,0,0,0
3169,1216,8069,-46,0,0,0,0,0
3170,1219,8069,-50,0,0,0,0,0
3171,1226,8066,-36,0,0,0,0,0
3172,1212,8058,-27,0,0,0,0,0
3173,1212,8062,-32,0,0,0,0,0
3174,1234,8072,-40,0,0,0,0,0
3175,1217,8064,-42,0,0,0,0,0
3176,1222,8061,-45,0,0,0,0,0
3177,1222,8063,-56,0,0,0,0,0
3178,1222,8064,-28,0,0,0,0,0
3179,1213,8065,-34,0,0,0,0,0
3180,1219,8065,-39,0,0,0,0,0
3181,1223,8058,-49,0,0,0,0,0
3182,1225,8065,-28,0,0,0,0,0
3183,1226,8063,-43,0,0,0,0,0
3184,1219,8051,-37,0,0,0,0,0
3185,1225,8070,-41,0,0,0,0,0
3186,1216,8072,-46,0,0,0,0,0
3187,1218,8060,-34,0,0,0,0,0
3188,1223,8062,-40,0,0,0,0,0
3189,1223,8056,-31,0,0,0,0,0
3190,1226,8057,-39,0,0,0,0,0
3191,1214,8064,-37,0,0,0,0,0
3192,1226,8066,-38,0,0,0,0,0
3193,1220,8067,-56,0,0,0,0,0
3194,1220,8062,-48,0,0,0,0,0
3195,1214,8070,-44,0,0,0,0,0
3196,1240,8065,-30,0,0,0,0,0
3197,1221,8064,-32,0,0,0,0,0
3198,1211,8066,-38,0,0,0,0,0
3199,1224,8064,-38,0,0,0,0,0
3200,1223,8074,-41,0,0,0,0,0
3201,1212,8064,-38,0,0,0,0,0
3202,1222,8065,-33,0,0,0,0,0
3203,1218,8061,-36,0,0,0,0,0
3204,1229,8073,-41,0,0,0,0,0
3205,1221,8059,-53,0,0,0,0,0
3206,1217,8062,-33,0,0,0,0,0
3207,1220,8070,-36,0,0,0,0,0
3208,1231,8066,-32,0,0,0,0,0
3209,1224,8066,-49,0,0,0,0,0
3210,1211,8060,-42,0,0,0,0,0
3211,1216,8066,-53,0,0,0,0,0
3212,1219,8066,-36,0,0,0,0,0
3213,1224,8069,-40,0,0,0,0,0
3214,1218,8059,-36,0,0,0,0,0
3215,1222,8068,-41,0,0,0,0,0
3216,1223,8053,-38,0,0,0,0,0
3217,1220,8074,-36,0,0,0,0,0
3218,1224,8064,-38,0,0,0,0,0
3219,1222,8058,-52,0,0,0,0,0
3220,1211,8061,-46,0,0,0,0,0
3221,1220,8065,-39,0,0,0,0,0
3222,1226,8060,-42,0,0,0,0,0
3223,1226,8066,-45,0,0,0,0,0
3224,1228,8072,-37,0,0,0,0,0
3225,1224,8070,-40,0,0,0,0,0
3226,1222,8062,-34,0,0,0,0,0
3227,1218,8070,-40,0,0,0,0,0
3228,1223,8066,-35,0,0,0,0,0
3229,1224,8054,-37,0,0,0,0,0
3230,1228,8066,-37,0,0,0,0,0
3231,1223,8067,-40,0,0,0,0,0
3232,1226,8066,-40,0,0,0,0,0
3233,1220,8057,-34,0,0,0,0,0
3234,1228,8067,-36,0,0,0,0,0
3235,1226,8060,-45,0,0,0,0,0
3236,1224,8062,-40,0,0,0,0,0
3237,1216,8063,-58,0,0,0,0,0
3238,1235,8077,-47,0,0,0,0,0
3239,1220,8057,-38,0,0,0,0,0
3240,1212,8064,-32,0,0,0,0,0
3241,1232,8061,-38,0,0,0,0,0
3242,1221,8065,-40,0,0,0,0,0
3243,1224,8066,-30,0,0,0,0,0
3244,1221,8068,-47,0,0,0,0,0
3245,1226,8062,-36,0,0,0,0,0
3246,1223,8067,-42,0,0,0,0,0
3247,1230,8070,-32,0,0,0,0,0
3248,1217,8067,-42,0,0,0,0,0
3249,1222,8062,-33,0,0,0,0,0
3250,1225,8069,-38,0,0,0,0,0
3251,1227,8062,-37,0,0,0,0,0
3252,1216,8057,-46,0,0,0,0,0
3253,1226,8066,-39,0,0,0,0,0
3254,1229,8062,-36,0,0,0,0,0
3255,1225,8065,-48,0,0,0,0,0
3256,1224,8064,-48,0,0,0,0,0
3257,1210,8061,-44,0,0,0,0,0
3258,1230,8070,-31,0,0,0,0,0
3259,1221,8059,-42,0,0,0,0,0
3260,1224,8067,-40,0,0,0,0,0
3261,1221,8062,-36,0,0,0,0,0
3262,1229,8060,-38,0,0,0,0,0
3263,1222,8065,-42,0,0,0,0,0
3264,1217,8064,-35,0,0,0,0,0
3265,1221,8060,-32,0,0,0,0,0
3266,1219,8061,-43,0,0,0,0,0
3267,1220,8063,-36,0,0,0,0,0
3268,1221,8059,-52,0,0,0,0,0
3269,1232,8074,-46,0,0,0,0,0
3270,1212,8055,-37,0,0,0,0,0
3271,1226,8059,-36,0,0,0,0,0
3272,1226,8062,-40,0,0,0,0,0
3273,1224,8064,-36,0,0,0,0,0
3274,1216,8052,-33,0,0,0,0,0
3275,1222,8067,-42,0,0,0,0,0
3276,1225,8065,-30,0,0,0,0,0
3277,1226,8066,-46,0,0,0,0,0
3278,1226,8058,-37,0,0,0,0,0
3279,1222,8061,-41,0,0,0,0,0
3280,1218,8067,-39,0,0,0,0,0
3281,1214,8069,-39,0,0,0,0,0
3282,1225,8060,-46,0,0,0,0,0
3283,1224,8056,-43,0,0,0,0,0
3284,1225,8072,-47,0,0,0,0,0
3285,1224,8073,-34,0,0,0,0,0
3286,1208,8055,-36,0,0,0,0,0
3287,1211,8065,-29,0,0,0,0,0
3288,1223,8072,-30,0,0,0,0,0
3289,1213,8054,-49,0,0,0,0,0
3290,1226,8072,-53,0,0,0,0,0
3291,1164,8000,-196,0,0,0,0,0
3292,1252,8087,12,0,0,0,0,0
3293,1230,8099,67,0,0,0,0,0
3294,1192,8034,-36,0,0,0,0,0
3295,1206,8076,-68,0,0,0,0,0
3296,1237,8082,-70,0,0,0,0,0
3297,1234,8042,-46,0,0,0,0,0
3298,1204,8048,-21,0,0,0,0,0
3299,1231,8068,-17,0,0,0,0,0
3300,1225,8070,-24,0,0,0,0,0
3301,1224,8048,-26,0,0,0,0,0
3302,1213,8058,-54,0,0,0,0,0
3303,1232,8067,-51,0,0,0,0,0
3304,1215,8066,-50,0,0,0,0,0
3305,1214,8066,-30,0,0,0,0,0
3306,1214,8060,-40,0,0,0,0,0
3307,1223,8067,-39,0,0,0,0,0
3308,1237,8070,-19,0,0,0,0,0
3309,1216,8063,-20,0,0,0,0,0
3310,1217,8064,-55,0,0,0,0,0
3311,1226,8063,-71,0,0,0,0,0
3312,1224,8066,-36,0,0,0,0,0
3313,1218,8055,-33,0,0,0,0,0
3314,1219,8072,-26,0,0,0,0,0
3315,1228,8060,-27,0,0,0,0,0
3316,1217,8052,-37,0,0,0,0,0
3317,1224,8070,-48,0,0,0,0,0
3318,1210,8070,-64,0,0,0,0,0
3319,1206,8068,-42,0,0,0,0,0
3320,1221,8042,-37,0,0,0,0,0
3321,1208,8051,-40,0,0,0,0,0
3322,1228,8066,-26,0,0,0,0,0
3323,1226,8063,-38,0,0,0,0,0
3324,1221,8044,-25,0,0,0,0,0
3325,1241,8063,-43,0,0,0,0,0
3326,1214,8073,-45,0,0,0,0,0
3327,1210,8053,-33,0,0,0,0,0
3328,1204,8061,-36,0,0,0,0,0
3329,1224,8070,-51,0,0,0,0,0
3330,1206,8058,-47,0,0,0,0,0
3331,1239,8071,-40,0,0,0,0,0
3332,1216,8067,-45,0,0,0,0,0
3333,1235,8054,-22,0,0,0,0,0
3334,1233,8065,-40,0,0,0,0,0
3335,1211,8061,-41,0,0,0,0,0
3336,1211,8061,-36,0,0,0,0,0
3337,1241,8080,-47,0,0,0,0,0
3338,1226,8070,-45,0,0,0,0,0
3339,1210,8055,-29,0,0,0,0,0
3340,1234,8070,-34,0,0,0,0,0
3341,1229,8068,-32,0,0,0,0,0
3342,1231,8065,-41,0,0,0,0,0
3343,1225,8068,-54,0,0,0,0,0
3344,1210,8058,-48,0,0,0,0,0
3345,1220,8064,-48,0,0,0,0,0
3346,1202,8037,-42,0,0,0,0,0
3347,1218,8079,-51,0,0,0,0,0
3348,1228,8066,-17,0,0,0,0,0
3349,1214,8049,-30,0,0,0,0,0
3350,1246,8068,-46,0,0,0,0,0
3351,1218,8048,-59,0,0,0,0,0
3352,1199,8078,-26,0,0,0,0,0
3353,1232,8070,-48,0,0,0,0,0
3354,1234,8058,-40,0,0,0,0,0
3355,1231,8074,-58,0,0,0,0,0
3356,1234,8071,-36,0,0,0,0,0
3357,1218,8058,-26,0,0,0,0,0
3358,1241,8056,-18,0,0,0,0,0
3359,1230,8053,-42,0,0,0,0,0
3360,1213,8068,-42,0,0,0,0,0
3361,1212,8057,-74,0,0,0,0,0
3362,1228,8062,-40,0,0,0,0,0
3363,1223,8058,-16,0,0,0,0,0
3364,1227,8054,-22,0,0,0,0,0
3365,1241,8076,-32,0,0,0,0,0
3366,1204,8067,-65,0,0,0,0,0
3367,1206,8050,-62,0,0,0,0,0
3368,1232,8068,-31,0,0,0,0,0
3369,1227,8063,-23,0,0,0,0,0
3370,1216,8053,-50,0,0,0,0,0
3371,1228,8080,-54,0,0,0,0,0
3372,1218,8066,-40,0,0,0,0,0
3373,1219,8041,-25,0,0,0,0,0
3374,1212,8061,-61,0,0,0,0,0
3375,1239,8048,-58,0,0,0,0,0
3376,1242,8078,-44,0,0,0,0,0
3377,1201,8050,-16,0,0,0,0,0
3378,1211,8056,-16,0,0,0,0,0
3379,1255,8068,-61,0,0,0,0,0
3380,1211,8069,-43,0,0,0,0,0
3381,1220,8085,-30,0,0,0,0,0
3382,1236,8058,-27,0,0,0,0,0
3383,1248,8080,-44,0,0,0,0,0
3384,1208,8094,-34,0,0,0,0,0
3385,1209,8093,-34,0,0,0,0,0
3386,1224,8042,-32,0,0,0,0,0
3387,1204,8045,-58,0,0,0,0,0
3388,1238,8094,-24,0,0,0,0,0
3389,1222,8044,-18,0,0,0,0,0
3390,1226,8048,-47,0,0,0,0,0
3391,1212,8070,-39,0,0,0,0,0
3392,1225,8073,-27,0,0,0,0,0
3393,1231,8063,-26,0,0,0,0,0
3394,1214,8068,-37,0,0,0,0,0
3395,1228,8073,-51,0,0,0,0,0
3396,1214,8068,-48,0,0,0,0,0
3397,1218,8060,-44,0,0,0,0,0
3398,1223,8069,-40,0,0,0,0,0
3399,1220,8065,-30,0,0,0,0,0
3400,1224,8078,-24,0,0,0,0,0
3401,1217,8068,-40,0,0,0,0,0
3402,1226,8058,-60,0,0,0,0,0
3403,1216,8064,-45,0,0,0,0,0
3404,1225,8083,-32,0,0,0,0,0
3405,1226,8052,-42,0,0,0,0,0
3406,1219,8054,-36,0,0,0,0,0
3407,1224,8082,-29,0,0,0,0,0
3408,1223,8058,-38,0,0,0,0,0
3409,1226,8063,-28,0,0,0,0,0
3410,1215,8064,-51,0,0,0,0,0
3411,1224,8058,-58,0,0,0,0,0
3412,1222,8054,-44,0,0,0,0,0
3413,1220,8077,-32,0,0,0,0,0
3414,1223,8058,-36,0,0,0,0,0
3415,1228,8060,-30,0,0,0,0,0
3416,1224,8076,-38,0,0,0,0,0
3417,1218,8061,-45,0,0,0,0,0
3418,1222,8061,-42,0,0,0,0,0
3419,1238,8072,-34,0,0,0,0,0
3420,1218,8070,-48,0,0,0,0,0
3421,1215,8058,-42,0,0,0,0,0
3422,1228,8066,-26,0,0,0,0,0
3423,1211,8062,-56,0,0,0,0,0
3424,1225,8068,-39,0,0,0,0,0
3425,1229,8061,-35,0,0,0,0,0
3426,1216,8055,-40,0,0,0,0,0
3427,1216,8065,-40,0,0,0,0,0
3428,1229,8064,-42,0,0,0,0,0
3429,1234,8060,-59,0,0,0,0,0
3430,1222,8062,-36,0,0,0,0,0
3431,1214,8069,-42,0,0,0,0,0
3432,1224,8053,-36,0,0,0,0,0
3433,1223,8073,-30,0,0,0,0,0
3434,1218,8056,-39,0,0,0,0,0
3435,1218,8056,-30,0,0,0,0,0
3436,1216,8072,-46,0,0,0,0,0
3437,1230,8078,-65,0,0,0,0,0
3438,1208,8045,-61,0,0,0,0,0
3439,1210,8051,-62,0,0,0,0,0
3440,1226,8078,-53,0,0,0,0,0
3441,1220,8068,-46,0,0,0,0,0
3442,1225,8063,-4,0,0,0,0,0
3443,1222,8064,-17,0,0,0,0,0
3444,1230,8067,-15,0,0,0,0,0
3445,1210,8042,-32,0,0,0,0,0
3446,1218,8082,-66,0,0,0,0,0
3447,1224,8057,-62,0,0,0,0,0
3448,1218,8048,-36,0,0,0,0,0
3449,1228,8073,-20,0,0,0,0,0
3450,1226,8068,-13,0,0,0,0,0
3451,1232,8060,-17,0,0,0,0,0
3452,1211,8065,-64,0,0,0,0,0
3453,1226,8062,-95,0,0,0,0,0
3454,1224,8068,-83,0,0,0,0,0
3455,1226,8076,-8,0,0,0,0,0
3456,1228,8050,1,0,0,0,0,0
3457,1216,8071,-44,0,0,0,0,0
3458,1224,8063,-34,0,0,0,0,0
3459,1216,8033,-68,0,0,0,0,0
3460,1221,8086,-58,0,0,0,0,0
3461,1207,8062,-22,0,0,0,0,0
3462,1228,8050,-10,0,0,0,0,0
3463,1230,8080,-30,0,0,0,0,0
3464,1215,8065,-52,0,0,0,0,0
3465,1225,8060,-42,0,0,0,0,0
3466,1230,8063,-39,0,0,0,0,0
3467,1215,8058,-37,0,0,0,0,0
3468,1212,8056,-27,0,0,0,0,0
3469,1218,8050,-56,0,0,0,0,0
3470,1228,8086,-29,0,0,0,0,0
3471,1223,8042,-38,0,0,0,0,0
3472,1220,8064,-57,0,0,0,0,0
3473,1223,8069,-49,0,0,0,0,0
3474,1209,8041,-20,0,0,0,0,0
3475,1219,8072,-22,0,0,0,0,0
3476,1226,8080,-64,0,0,0,0,0
3477,1232,8040,-56,0,0,0,0,0
3478,1219,8070,-26,0,0,0,0,0
3479,1230,8065,-28,0,0,0,0,0
3480,1226,8049,-33,0,0,0,0,0
3481,1213,8068,-52,0,0,0,0,0
3482,1214,8076,-44,0,0,0,0,0
3483,1215,8048,-28,0,0,0,0,0
3484,1223,8060,-37,0,0,0,0,0
3485,1223,8062,-54,0,0,0,0,0
3486,1220,8075,-47,0,0,0,0,0
3487,1221,8051,-34,0,0,0,0,0
3488,1224,8058,-28,0,0,0,0,0
3489,1226,8064,-39,0,0,0,0,0
3490,1230,8058,-44,0,0,0,0,0
3491,1228,8066,-35,0,0,0,0,0
3492,1220,8060,-32,0,0,0,0,0
3493,1221,8060,-56,0,0,0,0,0
3494,1231,8077,-42,0,0,0,0,0
3495,1224,8054,-48,0,0,0,0,0
3496,1227,8078,-34,0,0,0,0,0
3497,1229,8060,-29,0,0,0,0,0
3498,1216,8055,-33,0,0,0,0,0
3499,1218,8072,-39,0,0,0,0,0
3500,1222,8058,-66,0,0,0,0,0
3501,1224,8050,-49,0,0,0,0,0
3502,1217,8063,-26,0,0,0,0,0
3503,1220,8056,-30,0,0,0,0,0
3504,1222,8076,-32,0,0,0,0,0
3505,1216,8060,-31,0,0,0,0,0
3506,1226,8072,-45,0,0,0,0,0
3507,1224,8061,-56,0,0,0,0,0
3508,1218,8052,-43,0,0,0,0,0
3509,1225,8055,-32,0,0,0,0,0
3510,1231,8075,-44,0,0,0,0,0
3511,1229,8066,-37,0,0,0,0,0
3512,1224,8072,-32,0,0,0,0,0
3513,1222,8057,-40,0,0,0,0,0
3514,1216,8064,-46,0,0,0,0,0
3515,1224,8067,-34,0,0,0,0,0
3516,1226,8048,-42,0,0,0,0,0
3517,1214,8068,-42,0,0,0,0,0
3518,1222,8061,-41,0,0,0,0,0
3519,1232,8062,-38,0,0,0,0,0
3520,1219,8076,-34,0,0,0,0,0
3521,1215,8054,-46,0,0,0,0,0
3522,1233,8065,-45,0,0,0,0,0
3523,1228,8068,-36,0,0,0,0,0
3524,1217,8069,-29,0,0,0,0,0
3525,1225,8068,-39,0,0,0,0,0
3526,1222,8056,-52,0,0,0,0,0
3527,1227,8071,-37,0,0,0,0,0
3528,1224,8066,-40,0,0,0,0,0
3529,1214,8058,-51,0,0,0,0,0
3530,1231,8075,-42,0,0,0,0,0
3531,1232,8067,-35,0,0,0,0,0
3532,1214,8046,-34,0,0,0,0,0
3533,1210,8068,-44,0,0,0,0,0
3534,1247,8069,-43,0,0,0,0,0
3535,1207,8065,-72,0,0,0,0,0
3536,1224,8092,-40,0,0,0,0,0
3537,1228,8044,-14,0,0,0,0,0
3538,1219,8068,-26,0,0,0,0,0
3539,1203,8073,-27,0,0,0,0,0
3540,1237,8048,-44,0,0,0,0,0
3541,1212,8049,-48,0,0,0,0,0
3542,1223,8073,-21,0,0,0,0,0
3543,1220,8067,-28,0,0,0,0,0
3544,1228,8048,-41,0,0,0,0,0
3545,1226,8067,-50,0,0,0,0,0
3546,1219,8069,-50,0,0,0,0,0
3547,1216,8055,-47,0,0,0,0,0
3548,1233,8071,-28,0,0,0,0,0
3549,1222,8060,-22,0,0,0,0,0
3550,1214,8070,-28,0,0,0,0,0
3551,1221,8066,-61,0,0,0,0,0
3552,1210,8056,-62,0,0,0,0,0
3553,1212,8068,-44,0,0,0,0,0
3554,1226,8070,-20,0,0,0,0,0
3555,1221,8040,-23,0,0,0,0,0
3556,1219,8062,-28,0,0,0,0,0
3557,1217,8060,-65,0,0,0,0,0
3558,1220,8062,-32,0,0,0,0,0
3559,1236,8068,-30,0,0,0,0,0
3560,1225,8060,-17,0,0,0,0,0
3561,1213,8045,-28,0,0,0,0,0
3562,1240,8056,-51,0,0,0,0,0
3563,1214,8066,-49,0,0,0,0,0
3564,1210,8074,-29,0,0,0,0,0
3565,1231,8044,-25,0,0,0,0,0
3566,1220,8044,-26,0,0,0,0,0
3567,1214,8079,-16,0,0,0,0,0
3568,1226,8055,-42,0,0,0,0,0
3569,1217,8059,-84,0,0,0,0,0
3570,1238,8064,-30,0,0,0,0,0
3571,1225,8064,-35,0,0,0,0,0
3572,1216,8062,-18,0,0,0,0,0
3573,1221,8060,-49,0,0,0,0,0
3574,1213,8068,-36,0,0,0,0,0
3575,1230,8064,-36,0,0,0,0,0
3576,1228,8071,-44,0,0,0,0,0
3577,1210,8060,-56,0,0,0,0,0
3578,1223,8071,-50,0,0,0,0,0
3579,1234,8060,-41,0,0,0,0,0
3580,1214,8068,-37,0,0,0,0,0
3581,1224,8063,-38,0,0,0,0,0
3582,1226,8058,-36,0,0,0,0,0
3583,1222,8054,-47,0,0,0,0,0
3584,1233,8074,-42,0,0,0,0,0
3585,1223,8073,-33,0,0,0,0,0
3586,1192,8034,-57,0,0,0,0,0
3587,1260,8043,-35,0,0,0,0,0
3588,1210,8076,-32,0,0,0,0,0
3589,1199,8069,-49,0,0,0,0,0
3590,1246,8094,-41,0,0,0,0,0
3591,1219,8041,-33,0,0,0,0,0
3592,1210,8046,-50,0,0,0,0,0
3593,1242,8082,-48,0,0,0,0,0
3594,1222,8057,-36,0,0,0,0,0
3595,1218,8066,-50,0,0,0,0,0
3596,1228,8053,-42,0,0,0,0,0
3597,1222,8070,-42,0,0,0,0,0
3598,1224,8057,-56,0,0,0,0,0
3599,1223,8059,-42,0,0,0,0,0
3600,1213,8061,-32,0,0,0,0,0
3601,1230,8062,-34,0,0,0,0,0
3602,1212,8061,-42,0,0,0,0,0
3603,1220,8055,-45,0,0,0,0,0
3604,1228,8070,-41,0,0,0,0,0
3605,1218,8069,-34,0,0,0,0,0
3606,1240,8064,-48,0,0,0,0,0
3607,1240,8082,-42,0,0,0,0,0
3608,1217,8046,-48,0,0,0,0,0
3609,1224,8053,-46,0,0,0,0,0
3610,1232,8078,-39,0,0,0,0,0
3611,1220,8051,-48,0,0,0,0,0
3612,1253,8062,2,0,0,0,0,0
3613,1233,8054,-57,0,0,0,0,0
3614,1218,8070,-31,0,0,0,0,0
3615,1225,8069,-38,0,0,0,0,0
3616,1214,8062,-31,0,0,0,0,0
3617,1232,8059,-31,0,0,0,0,0
3618,1232,8075,-47,0,0,0,0,0
3619,1204,8053,-53,0,0,0,0,0
3620,1213,8070,-28,0,0,0,0,0
3621,1232,8066,-29,0,0,0,0,0
3622,1226,8062,-51,0,0,0,0,0
3623,1229,8066,-42,0,0,0,0,0
3624,1229,8065,-30,0,0,0,0,0
3625,1215,8054,-28,0,0,0,0,0
3626,1232,8066,-16,0,0,0,0,0
3627,1228,8064,-48,0,0,0,0,0
3628,1211,8064,-30,0,0,0,0,0
3629,1229,8060,-38,0,0,0,0,0
3630,1218,8071,-33,0,0,0,0,0
3631,1228,8060,-47,0,0,0,0,0
3632,1213,8059,-36,0,0,0,0,0
3633,1216,8070,-46,0,0,0,0,0
3634,1230,8070,-46,0,0,0,0,0
3635,1224,8048,-43,0,0,0,0,0
3636,1216,8070,-40,0,0,0,0,0
3637,1228,8065,-51,0,0,0,0,0
3638,1232,8061,-42,0,0,0,0,0
3639,1221,8063,-40,0,0,0,0,0
3640,1221,8062,-25,0,0,0,0,0
3641,1231,8053,-38,0,0,0,0,0
3642,1217,8073,-37,0,0,0,0,0
3643,1228,8063,-36,0,0,0,0,0
3644,1219,8059,-52,0,0,0,0,0
3645,1227,8061,-33,0,0,0,0,0
3646,1220,8064,-35,0,0,0,0,0
3647,1224,8060,-40,0,0,0,0,0
3648,1228,8068,-49,0,0,0,0,0
3649,1214,8059,-45,0,0,0,0,0
3650,1215,8065,-39,0,0,0,0,0
3651,1220,8077,-34,0,0,0,0,0
3652,1224,8066,-38,0,0,0,0,0
3653,1212,8062,-35,0,0,0,0,0
3654,1218,8070,-38,0,0,0,0,0
3655,1222,8054,-36,0,0,0,0,0
3656,1220,8071,-44,0,0,0,0,0
3657,1223,8060,-49,0,0,0,0,0
3658,1222,8057,-36,0,0,0,0,0
3659,1222,8057,-34,0,0,0,0,0
3660,1219,8064,-41,0,0,0,0,0
3661,1229,8071,-33,0,0,0,0,0
3662,1229,8062,-42,0,0,0,0,0
3663,1222,8076,-31,0,0,0,0,0
3664,1226,8050,-41,0,0,0,0,0
3665,1226,8060,-38,0,0,0,0,0
3666,1229,8074,-41,0,0,0,0,0
3667,1221,8075,-38,0,0,0,0,0
3668,1225,8052,-36,0,0,0,0,0
3669,1224,8075,-38,0,0,0,0,0
3670,1223,8068,-41,0,0,0,0,0
3671,1228,8052,-38,0,0,0,0,0
3672,1221,8070,-38,0,0,0,0,0
3673,1228,8067,-32,0,0,0,0,0
3674,1226,8055,-43,0,0,0,0,0
3675,1222,8067,-40,0,0,0,0,0
3676,1232,8068,-33,0,0,0,0,0
3677,1220,8063,-40,0,0,0,0,0
3678,1212,8059,-38,0,0,0,0,0
3679,1214,8068,-41,0,0,0,0,0
3680,1220,8056,-42,0,0,0,0,0
3681,1215,8061,-34,0,0,0,0,0
3682,1226,8069,-41,0,0,0,0,0
3683,1227,8060,-33,0,0,0,0,0
3684,1212,8066,-49,0,0,0,0,0
3685,1230,8062,-38,0,0,0,0,0
3686,1218,8057,-38,0,0,0,0,0
3687,1222,8065,-47,0,0,0,0,0
3688,1222,8066,-43,0,0,0,0,0
3689,1233,8059,-37,0,0,0,0,0
3690,1224,8058,-49,0,0,0,0,0
3691,1228,8066,-36,0,0,0,0,0
3692,1222,8062,-47,0,0,0,0,0
3693,1220,8064,-36,0,0,0,0,0
3694,1226,8068,-38,0,0,0,0,0
3695,1227,8057,-40,0,0,0,0,0
3696,1212,8065,-38,0,0,0,0,0
3697,1224,8066,-35,0,0,0,0,0
3698,1214,8056,-46,0,0,0,0,0
3699,1216,8054,-46,0,0,0,0,0
3700,1213,8074,-45,0,0,0,0,0
3701,1225,8056,-44,0,0,0,0,0
3702,1212,8070,-44,0,0,0,0,0
3703,1214,8064,-43,0,0,0,0,0
3704,1205,8054,-40,0,0,0,0,0
3705,1216,8060,-40,0,0,0,0,0
3706,1237,8067,-49,0,0,0,0,0
3707,1216,8057,-44,0,0,0,0,0
3708,1218,8061,-41,0,0,0,0,0
3709,1220,8066,-42,0,0,0,0,0
3710,1218,8059,-15,0,0,0,0,0
3711,1228,8067,-28,0,0,0,0,0
3712,1222,8058,-53,0,0,0,0,0
3713,1224,8066,-40,0,0,0,0,0
3714,1215,8066,-56,0,0,0,0,0
3715,1221,8058,-56,0,0,0,0,0
3716,1227,8065,-27,0,0,0,0,0
3717,1228,8062,-20,0,0,0,0,0
3718,1212,8048,-28,0,0,0,0,0
3719,1209,8088,-24,0,0,0,0,0
3720,1230,8056,-36,0,0,0,0,0
3721,1238,8045,-56,0,0,0,0,0
3722,1205,8078,-64,0,0,0,0,0
3723,1212,8050,-39,0,0,0,0,0
3724,1238,8060,-28,0,0,0,0,0
3725,1204,8053,-25,0,0,0,0,0
3726,1211,8053,-34,0,0,0,0,0
3727,1232,8065,-49,0,0,0,0,0
3728,1226,8048,-66,0,0,0,0,0
3729,1211,8075,-38,0,0,0,0,0
3730,1214,8065,-34,0,0,0,0,0
3731,1232,8056,-68,0,0,0,0,0
3732,1245,8069,-33,0,0,0,0,0
3733,1199,8042,-17,0,0,0,0,0
3734,1217,8050,-14,0,0,0,0,0
3735,1228,8073,-29,0,0,0,0,0
3736,1236,8068,-58,0,0,0,0,0
3737,1203,8053,-80,0,0,0,0,0
3738,1227,8064,-16,0,0,0,0,0
3739,1224,8053,-18,0,0,0,0,0
3740,1224,8075,-44,0,0,0,0,0
3741,1230,8065,-58,0,0,0,0,0
3742,1229,8048,-66,0,0,0,0,0
3743,1226,8088,-15,0,0,0,0,0
3744,1221,8054,-7,0,0,0,0,0
3745,1222,8051,-27,0,0,0,0,0
3746,1234,8084,-19,0,0,0,0,0
3747,1227,8050,-47,0,0,0,0,0
3748,1215,8062,-75,0,0,0,0,0
3749,1220,8071,-57,0,0,0,0,0
3750,1234,8053,-42,0,0,0,0,0
3751,1228,8060,-19,0,0,0,0,0
3752,1210,8064,-18,0,0,0,0,0
3753,1219,8066,-18,0,0,0,0,0
3754,1226,8054,-25,0,0,0,0,0
3755,1227,8070,-41,0,0,0,0,0
3756,1216,8063,-74,0,0,0,0,0
3757,1217,8057,-62,0,0,0,0,0
3758,1222,8069,-38,0,0,0,0,0
3759,1224,8066,-34,0,0,0,0,0
3760,1222,8075,-11,0,0,0,0,0
3761,1218,8068,-19,0,0,0,0,0
3762,1225,8049,-55,0,0,0,0,0
3763,1221,8070,-48,0,0,0,0,0
3764,1218,8070,-46,0,0,0,0,0
3765,1225,8043,-31,0,0,0,0,0
3766,1224,8068,-28,0,0,0,0,0
3767,1228,8075,-27,0,0,0,0,0
3768,1216,8058,-42,0,0,0,0,0
3769,1206,8060,-59,0,0,0,0,0
3770,1231,8068,-64,0,0,0,0,0
3771,1228,8055,-34,0,0,0,0,0
3772,1216,8067,-18,0,0,0,0,0
3773,1233,8076,-46,0,0,0,0,0
3774,1212,8054,-48,0,0,0,0,0
3775,1222,8061,-22,0,0,0,0,0
3776,1233,8071,-42,0,0,0,0,0
3777,1213,8062,-46,0,0,0,0,0
3778,1221,8043,-29,0,0,0,0,0
3779,1231,8076,-44,0,0,0,0,0
3780,1216,8072,-27,0,0,0,0,0
3781,1216,8049,-34,0,0,0,0,0
3782,1221,8072,-34,0,0,0,0,0
3783,1208,8050,-42,0,0,0,0,0
3784,1222,8064,-52,0,0,0,0,0
3785,1224,8076,-38,0,0,0,0,0
3786,1226,8060,-38,0,0,0,0,0
3787,1239,8065,-28,0,0,0,0,0
3788,1203,8046,-25,0,0,0,0,0
3789,1228,8065,-32,0,0,0,0,0
3790,1226,8064,-18,0,0,0,0,0
3791,1241,8071,-70,0,0,0,0,0
3792,1185,8062,-18,0,0,0,0,0
3793,1234,8054,-20,0,0,0,0,0
3794,1245,8066,-42,0,0,0,0,0
3795,1205,8062,-32,0,0,0,0,0
3796,1208,8056,-44,0,0,0,0,0
3797,1225,8066,-42,0,0,0,0,0
3798,1221,8067,-45,0,0,0,0,0
3799,1218,8073,-46,0,0,0,0,0
3800,1240,8057,-30,0,0,0,0,0
3801,1210,8052,-28,0,0,0,0,0
3802,1226,8056,-25,0,0,0,0,0
3803,1224,8066,-34,0,0,0,0,0
3804,1219,8075,-50,0,0,0,0,0
3805,1224,8081,-4,0,0,0,0,0
3806,1212,8048,-12,0,0,0,0,0
3807,1218,8075,-39,0,0,0,0,0
3808,1232,8059,-60,0,0,0,0,0
3809,1224,8082,-35,0,0,0,0,0
3810,1214,8066,-52,0,0,0,0,0
3811,1227,8058,-24,0,0,0,0,0
3812,1210,8059,-34,0,0,0,0,0
3813,1220,8073,-31,0,0,0,0,0
3814,1219,8066,-40,0,0,0,0,0
3815,1218,8060,-39,0,0,0,0,0
3816,1222,8064,-43,0,0,0,0,0
3817,1225,8062,-30,0,0,0,0,0
3818,1215,8066,-48,0,0,0,0,0
3819,1216,8052,-55,0,0,0,0,0
3820,1231,8070,-34,0,0,0,0,0
3821,1222,8060,-41,0,0,0,0,0
3822,1228,8060,-34,0,0,0,0,0
3823,1232,8061,-42,0,0,0,0,0
3824,1220,8070,-38,0,0,0,0,0
3825,1218,8054,-41,0,0,0,0,0
3826,1214,8070,-34,0,0,0,0,0
3827,1223,8068,-34,0,0,0,0,0
3828,1222,8062,-28,0,0,0,0,0
3829,1235,8060,-36,0,0,0,0,0
3830,1229,8066,-38,0,0,0,0,0
3831,1218,8060,-40,0,0,0,0,0
3832,1206,8065,-42,0,0,0,0,0
3833,1219,8065,-40,0,0,0,0,0
3834,1221,8056,-46,0,0,0,0,0
3835,1218,8066,-26,0,0,0,0,0
3836,1230,8062,-36,0,0,0,0,0
3837,1224,8064,-41,0,0,0,0,0
3838,1225,8068,-39,0,0,0,0,0
3839,1227,8056,-41,0,0,0,0,0
3840,1227,8061,-26,0,0,0,0,0
3841,1218,8064,-32,0,0,0,0,0
3842,1221,8062,-42,0,0,0,0,0
3843,1225,8069,-37,0,0,0,0,0
3844,1221,8063,-32,0,0,0,0,0
3845,1220,8067,-39,0,0,0,0,0
3846,1226,8060,-42,0,0,0,0,0
3847,1225,8063,-46,0,0,0,0,0
3848,1222,8066,-34,0,0,0,0,0
3849,1192,8035,-23,0,0,0,0,0
3850,1200,8036,-145,0,0,0,0,0
3851,1242,8032,-109,0,0,0,0,0
3852,1217,8121,14,0,0,0,0,0
3853,1208,8030,46,0,0,0,0,0
3854,1224,8024,28,0,0,0,0,0
3855,1210,8122,25,0,0,0,0,0
3856,1250,8032,-33,0,0,0,0,0
3857,1233,8058,-45,0,0,0,0,0
3858,1197,8071,-110,0,0,0,0,0
3859,1231,8041,-135,0,0,0,0,0
3860,1246,8053,-69,0,0,0,0,0
3861,1197,8046,4,0,0,0,0,0
3862,1230,8050,57,0,0,0,0,0
3863,1243,8086,58,0,0,0,0,0
3864,1225,8038,-4,0,0,0,0,0
3865,1220,8039,-44,0,0,0,0,0
3866,1220,8060,-48,0,0,0,0,0
3867,1219,8056,-21,0,0,0,0,0
3868,1217,8077,-27,0,0,0,0,0
3869,1234,8066,-40,0,0,0,0,0
3870,1232,8049,-52,0,0,0,0,0
3871,1231,8091,-15,0,0,0,0,0
3872,1200,8009,-20,0,0,0,0,0
3873,1212,8050,-44,0,0,0,0,0
3874,1217,8029,-28,0,0,0,0,0
3875,1224,8028,-29,0,0,0,0,0
3876,1217,8093,-49,0,0,0,0,0
3877,1222,8077,-21,0,0,0,0,0
3878,1231,8034,-18,0,0,0,0,0
3879,1222,8080,-36,0,0,0,0,0
3880,1200,8067,-59,0,0,0,0,0
3881,1198,8032,-52,0,0,0,0,0
3882,1254,8068,-26,0,0,0,0,0
3883,1250,8068,-14,0,0,0,0,0
3884,1186,8042,-24,0,0,0,0,0
3885,1214,8052,-40,0,0,0,0,0
3886,1241,8072,-53,0,0,0,0,0
3887,1230,8060,-41,0,0,0,0,0
3888,1221,8064,-24,0,0,0,0,0
3889,1210,8065,-8,0,0,0,0,0
3890,1235,8069,-8,0,0,0,0,0
3891,1230,8058,-1,0,0,0,0,0
3892,1210,8064,-31,0,0,0,0,0
3893,1209,8066,-55,0,0,0,0,0
3894,1232,8068,-56,0,0,0,0,0
3895,1251,8064,-81,0,0,0,0,0
3896,1225,8058,-47,0,0,0,0,0
3897,1198,8067,-15,0,0,0,0,0
3898,1225,8052,-10,0,0,0,0,0
3899,1237,8055,0,0,0,0,0,0
3900,1212,8075,-8,0,0,0,0,0
3901,1227,8069,-32,0,0,0,0,0
3902,1245,8064,-46,0,0,0,0,0
3903,1216,8049,-56,0,0,0,0,0
3904,1215,8072,-54,0,0,0,0,0
3905,1233,8054,-48,0,0,0,0,0
3906,1232,8070,7,0,0,0,0,0
3907,1216,8046,-20,0,0,0,0,0
3908,1226,8062,-32,0,0,0,0,0
3909,1216,8076,-33,0,0,0,0,0
3910,1231,8057,-11,0,0,0,0,0
3911,1232,8058,-37,0,0,0,0,0
3912,1224,8068,-46,0,0,0,0,0
3913,1230,8058,-38,0,0,0,0,0
3914,1214,8075,-31,0,0,0,0,0
3915,1222,8069,-10,0,0,0,0,0
3916,1230,8052,-4,0,0,0,0,0
3917,1228,8069,-11,0,0,0,0,0
3918,1224,8057,-10,0,0,0,0,0
3919,1227,8064,-37,0,0,0,0,0
3920,1244,8073,-26,0,0,0,0,0
3921,1195,8056,-27,0,0,0,0,0
3922,1210,8074,-52,0,0,0,0,0
3923,1257,8078,-22,0,0,0,0,0
3924,1220,8057,-4,0,0,0,0,0
3925,1199,8062,-8,0,0,0,0,0
3926,1248,8085,16,0,0,0,0,0
3927,1223,8055,20,0,0,0,0,0
3928,1198,8027,-97,0,0,0,0,0
3929,1228,8062,-54,0,0,0,0,0
3930,1248,8066,-56,0,0,0,0,0
3931,1209,8054,-44,0,0,0,0,0
3932,1226,8084,-46,0,0,0,0,0
3933,1241,8060,-12,0,0,0,0,0
3934,1218,8051,-21,0,0,0,0,0
3935,1216,8070,-12,0,0,0,0,0
3936,1232,8076,-11,0,0,0,0,0
3937,1227,8053,-27,0,0,0,0,0
3938,1223,8060,-49,0,0,0,0,0
3939,1226,8051,-33,0,0,0,0,0
3940,1226,8075,-57,0,0,0,0,0
3941,1236,8068,-28,0,0,0,0,0
3942,1235,8071,-33,0,0,0,0,0
3943,1219,8058,-18,0,0,0,0,0
3944,1224,8069,-19,0,0,0,0,0
3945,1224,8048,-43,0,0,0,0,0
3946,1240,8075,-41,0,0,0,0,0
3947,1209,8058,-44,0,0,0,0,0
3948,1216,8048,-40,0,0,0,0,0
3949,1238,8082,-24,0,0,0,0,0
3950,1217,8062,-21,0,0,0,0,0
3951,1212,8057,-16,0,0,0,0,0
3952,1220,8069,-30,0,0,0,0,0
3953,1214,8060,-24,0,0,0,0,0
3954,1232,8068,-34,0,0,0,0,0
3955,1232,8068,-52,0,0,0,0,0
3956,1216,8049,-38,0,0,0,0,0
3957,1227,8066,-26,0,0,0,0,0
3958,1221,8060,-33,0,0,0,0,0
3959,1214,8071,-34,0,0,0,0,0
3960,1228,8060,-25,0,0,0,0,0
3961,1230,8062,-36,0,0,0,0,0
3962,1229,8065,-36,0,0,0,0,0
3963,1229,8059,-32,0,0,0,0,0
3964,1219,8054,-26,0,0,0,0,0
3965,1214,8066,-21,0,0,0,0,0
3966,1229,8051,-28,0,0,0,0,0
3967,1236,8063,-19,0,0,0,0,0
3968,1217,8060,-38,0,0,0,0,0
3969,1216,8067,-37,0,0,0,0,0
3970,1236,8057,-29,0,0,0,0,0
3971,1223,8070,-37,0,0,0,0,0
3972,1216,8071,-16,0,0,0,0,0
3973,1226,8052,-27,0,0,0,0,0
3974,1227,8073,-32,0,0,0,0,0
3975,1237,8056,-38,0,0,0,0,0
3976,1219,8052,-32,0,0,0,0,0
3977,1232,8073,-22,0,0,0,0,0
3978,1224,8057,-38,0,0,0,0,0
3979,1227,8060,-38,0,0,0,0,0
3980,1226,8076,-30,0,0,0,0,0
3981,1221,8065,-38,0,0,0,0,0
3982,1236,8061,-18,0,0,0,0,0
3983,1218,8062,-34,0,0,0,0,0
3984,1222,8062,-29,0,0,0,0,0
3985,1232,8055,-24,0,0,0,0,0
3986,1216,8068,-28,0,0,0,0,0
3987,1224,8046,-30,0,0,0,0,0
3988,1216,8075,-36,0,0,0,0,0
3989,1222,8058,-40,0,0,0,0,0
3990,1218,8064,-36,0,0,0,0,0
3991,1218,8052,-42,0,0,0,0,0
3992,1232,8078,-33,0,0,0,0,0
3993,1227,8058,-28,0,0,0,0,0
3994,1221,8058,-21,0,0,0,0,0
3995,1224,8073,-27,0,0,0,0,0
3996,1226,8059,-16,0,0,0,0,0
3997,1215,8061,-26,0,0,0,0,0
3998,1224,8057,-56,0,0,0,0,0
3999,1226,8061,-42,0,0,0,0,0
4000,1218,8061,-44,0,0,0,0,0
4001,1216,8051,-30,0,0,0,0,0
4002,1227,8070,-15,0,0,0,0,0
4003,1233,8066,-20,0,0,0,0,0
4004,1226,8059,-31,0,0,0,0,0
4005,1222,8056,-30,0,0,0,0,0
4006,1228,8068,-32,0,0,0,0,0
4007,1220,8048,-39,0,0,0,0,0
4008,1217,8066,-31,0,0,0,0,0
4009,1222,8052,-28,0,0,0,0,0
4010,1224,8066,-16,0,0,0,0,0
4011,1220,8064,-37,0,0,0,0,0
4012,1223,8057,-32,0,0,0,0,0
4013,1222,8071,-26,0,0,0,0,0
4014,1228,8058,-29,0,0,0,0,0
4015,1231,8055,-28,0,0,0,0,0
4016,1216,8060,-28,0,0,0,0,0
4017,1228,8060,-34,0,0,0,0,0
4018,1230,8064,-32,0,0,0,0,0
4019,1226,8064,-35,0,0,0,0,0
4020,1228,8066,-20,0,0,0,0,0
4021,1228,8061,-32,0,0,0,0,0
4022,1217,8066,-26,0,0,0,0,0
4023,1216,8064,-28,0,0,0,0,0
4024,1230,8069,-34,0,0,0,0,0
4025,1231,8070,-35,0,0,0,0,0
4026,1216,8055,-24,0,0,0,0,0
4027,1215,8071,-20,0,0,0,0,0
4028,1225,8054,-20,0,0,0,0,0
4029,1221,8056,-24,0,0,0,0,0
4030,1221,8071,-32,0,0,0,0,0
4031,1231,8069,-41,0,0,0,0,0
4032,1225,8063,-28,0,0,0,0,0
4033,1219,8058,-47,0,0,0,0,0
4034,1217,8058,-34,0,0,0,0,0
4035,1230,8080,-19,0,0,0,0,0
4036,1222,8061,-30,0,0,0,0,0
4037,1223,8070,-17,0,0,0,0,0
4038,1232,8073,-45,0,0,0,0,0
4039,1213,8054,-36,0,0,0,0,0
4040,1221,8071,-24,0,0,0,0,0
4041,1211,8064,-24,0,0,0,0,0
4042,1222,8060,-16,0,0,0,0,0
4043,1231,8066,-29,0,0,0,0,0
4044,1234,8057,-14,0,0,0,0,0
4045,1216,8056,-40,0,0,0,0,0
4046,1224,8067,-43,0,0,0,0,0
4047,1234,8058,-26,0,0,0,0,0
4048,1218,8063,-35,0,0,0,0,0
4049,1228,8067,-29,0,0,0,0,0
4050,1231,8056,-36,0,0,0,0,0
4051,1228,8060,-26,0,0,0,0,0
4052,1234,8060,-31,0,0,0,0,0
4053,1229,8064,-38,0,0,0,0,0
4054,1218,8068,-22,0,0,0,0,0
4055,1230,8062,-31,0,0,0,0,0
4056,1231,8062,-26,0,0,0,0,0
4057,1218,8071,-24,0,0,0,0,0
4058,1222,8074,-36,0,0,0,0,0
4059,1232,8056,-28,0,0,0,0,0
4060,1234,8062,-18,0,0,0,0,0
4061,1212,8059,-30,0,0,0,0,0
4062,1221,8063,-20,0,0,0,0,0
4063,1225,8068,-26,0,0,0,0,0
4064,1226,8055,-44,0,0,0,0,0
4065,1216,8066,-33,0,0,0,0,0
4066,1230,8060,-2,0,0,0,0,0
4067,1214,8044,-33,0,0,0,0,0
4068,1226,8078,-20,0,0,0,0,0
4069,1218,8054,-24,0,0,0,0,0
4070,1226,8072,-33,0,0,0,0,0
4071,1242,8069,-38,0,0,0,0,0
4072,1222,8071,-15,0,0,0,0,0
4073,1240,8044,-40,0,0,0,0,0
4074,1224,8083,-57,0,0,0,0,0
4075,1183,8044,-44,0,0,0,0,0
4076,1218,8045,0,0,0,0,0,0
4077,1259,8073,-38,0,0,0,0,0
4078,1232,8068,-13,0,0,0,0,0
4079,1178,8057,-44,0,0,0,0,0
4080,1246,8046,-35,0,0,0,0,0
4081,1232,8059,-22,0,0,0,0,0
4082,1178,8110,-25,0,0,0,0,0
4083,1252,8073,-33,0,0,0,0,0
4084,1219,8017,-36,0,0,0,0,0
4085,1270,8042,-76,0,0,0,0,0
4086,1255,8042,-50,0,0,0,0,0
4087,1180,8060,-11,0,0,0,0,0
4088,1224,8098,-20,0,0,0,0,0
4089,1250,8043,-58,0,0,0,0,0
4090,1228,8064,52,0,0,0,0,0
4091,772,8078,166,0,0,0,0,0
4092,1110,8388,-219,0,0,0,0,0
4093,1069,7901,211,0,0,0,0,0
4094,1136,7936,365,967,0,0,0,0
4095,1471,8238,219,0,0,0,0,0
4096,1034,7813,-177,0,0,0,0,0
4097,687,7942,-1209,0,0,0,0,0
4098,1072,8107,-23,0,0,0,0,0
4099,611,7884,629,0,0,0,0,0
4100,1149,7900,-739,0,0,0,0,0
4101,703,8202,-456,0,0,0,0,0
4102,1442,7573,-439,0,0,0,0,0
4103,996,7679,-244,0,0,0,0,0
4104,798,7662,-468,0,0,0,0,0
4105,762,8554,322,0,0,0,0,0
4106,1136,7939,324,0,0,0,0,0
4107,1074,7929,46,0,0,0,0,0
4108,1100,8155,26,0,0,0,0,0
4109,1042,7814,-616,0,0,0,0,0
4110,1052,7993,-234,0,0,0,0,0
4111,1095,7871,451,0,0,0,0,0
4112,892,8278,-1392,0,0,0,0,0
4113,1072,8204,-434,284,0,0,0,0
4114,859,8250,-15,0,0,0,0,0
4115,628,8040,-894,0,0,0,0,0
4116,1101,7844,223,0,0,0,0,0
4117,1390,8726,-157,0,0,0,0,0
4118,1251,8068,-570,0,0,0,0,0
4119,1048,7557,-370,0,0,0,0,0
4120,1138,8600,-713,0,0,0,0,0
4121,808,7698,-726,0,0,0,0,0
4122,636,7916,-160,0,0,0,0,0
4123,1203,8660,-554,0,0,0,0,0
4124,1262,7862,-385,0,0,0,0,0
4125,441,7693,-488,0,0,0,0,0
4126,1110,7382,-789,0,0,0,0,0
4127,1097,8404,-717,0,0,0,0,0
4128,1299,8218,-878,0,0,0,0,0
4129,890,8042,-907,0,0,0,0,0
4130,1197,7812,-1052,0,0,0,0,0
4131,570,7245,-416,0,0,0,0,0
4132,1153,7774,-481,0,0,0,0,0
4133,1162,8181,-202,0,0,0,0,0
4134,998,8148,-1403,0,0,0,0,0
4135,1359,8240,-239,0,0,0,0,0
4136,1189,8077,-968,0,0,0,0,0
4137,890,7764,-173,0,0,0,0,0
4138,1154,8080,-781,0,0,0,0,0
4139,937,8164,-2197,0,0,0,0,0
4140,1436,7332,-971,0,0,0,0,0
4141,836,8049,-553,64666,0,0,0,0
4142,1106,7674,-693,0,0,0,0,0
4143,1449,8229,-643,0,0,0,0,0
4144,855,7817,-392,0,0,0,0,0
4145,1414,8416,-1438,0,0,0,0,0
4146,1039,7689,-799,0,0,0,0,0
4147,1326,8020,-186,0,0,0,0,0
4148,1296,8093,-449,0,0,0,0,0
4149,1097,8128,-414,0,0,0,0,0
4150,1154,8092,-712,0,0,0,0,0
4151,1250,7979,-519,0,0,0,0,0
4152,1159,8040,-536,0,0,0,0,0
4153,1309,8124,-390,0,0,0,0,0
4154,444,7880,1338,0,0,0,0,0
4155,1272,8148,132,953,0,0,0,0
4156,1004,8050,-156,0,0,0,0,0
4157,1422,7153,1055,0,0,0,0,0
4158,895,8480,990,0,0,0,0,0
4159,1068,8086,490,0,0,0,0,0
4160,1426,7877,256,1024,0,0,0,0
4161,261,7170,136,0,0,0,0,0
4162,2244,8708,-1159,0,0,0,0,0
4163,1118,8375,4,1003,0,0,0,0
4164,1587,6748,-713,0,0,0,0,0
4165,2514,7816,356,0,0,0,0,0
4166,1910,8376,472,0,0,0,0,0
4167,1793,8204,266,0,0,0,0,0
4168,1615,8063,-553,0,0,0,0,0
4169,2340,7570,226,0,0,0,0,0
4170,1682,8164,-589,0,0,0,0,0
4171,2122,8005,-212,0,0,0,0,0
4172,1966,8127,838,0,0,0,0,0
4173,1935,8022,216,0,0,0,0,0
4174,1662,7901,-52,0,0,0,0,0
4175,1913,7373,72,672,0,0,0,0
4176,1670,8057,597,0,0,0,0,0
4177,1996,7550,58,673,0,0,0,0
4178,2343,8386,712,0,0,0,0,0
4179,1565,7428,-382,1108,0,0,0,0
4180,1616,7926,1055,0,0,0,0,0
4181,2194,8133,259,681,0,0,0,0
4182,1800,7266,-183,397,0,0,0,0
4183,1574,8136,-11,0,0,0,0,0
