index,GYRO_X,GYRO_Y,GYRO_Z,1,2,3,4,5
0,2,-8,1,0,0,0,0,0
1,4,-7,-1,0,0,0,0,0
2,1,-9,-1,0,0,0,0,0
3,5,-7,0,0,0,0,0,0
4,2,-7,0,0,0,0,0,0
5,1,-6,0,0,0,0,0,0
6,5,-8,-2,0,0,0,0,0
7,1,-7,0,0,0,0,0,0
8,3,-7,-1,0,0,0,0,0
9,3,-9,-2,0,0,0,0,0
10,0,-8,-1,0,0,0,0,0
11,3,-7,-1,0,0,0,0,0
12,5,-8,-1,0,0,0,0,0
13,2,-8,0,0,0,0,0,0
14,5,-9,0,0,0,0,0,0
15,0,-8,1,0,0,0,0,0
16,3,-8,-1,0,0,0,0,0
17,1,-8,0,0,0,0,0,0
18,1,-7,0,0,0,0,0,0
19,1,-8,-1,0,0,0,0,0
20,5,-7,-1,0,0,0,0,0
21,3,-7,1,0,0,0,0,0
22,5,-7,-1,0,0,0,0,0
23,4,-6,0,0,0,0,0,0
24,4,-8,0,0,0,0,0,0
25,0,-6,0,0,0,0,0,0
26,6,-6,-2,0,0,0,0,0
27,1,-8,-1,0,0,0,0,0
28,-3,-8,1,0,0,0,0,0
29,-2,-9,-1,0,0,0,0,0
30,8,-8,-1,0,0,0,0,0
31,2,-9,2,0,0,0,0,0
32,5,-8,-1,0,0,0,0,0
33,1,-8,-1,0,0,0,0,0
34,2,-9,0,0,0,0,0,0
35,5,-7,1,0,0,0,0,0
36,1,-8,-1,0,0,0,0,0
37,4,-7,0,0,0,0,0,0
38,2,-9,-1,0,0,0,0,0
39,1,-8,-2,0,0,0,0,0
40,5,-7,0,0,0,0,0,0
41,-1,-8,0,0,0,0,0,0
42,4,-8,0,0,0,0,0,0
43,1,-7,-1,0,0,0,0,0
44,2,-7,-1,0,0,0,0,0
45,5,-7,0,0,0,0,0,0
46,-1,-8,-1,0,0,0,0,0
47,0,-8,-1,0,0,0,0,0
48,4,-6,0,0,0,0,0,0
49,3,-9,-1,0,0,0,0,0
50,3,-8,0,0,0,0,0,0
51,2,-8,-1,0,0,0,0,0
52,4,-7,0,0,0,0,0,0
53,3,-7,0,0,0,0,0,0
54,2,-8,0,0,0,0,0,0
55,1,-7,0,0,0,0,0,0
56,2,-7,0,0,0,0,0,0
57,4,-8,-1,0,0,0,0,0
58,3,-6,-1,0,0,0,0,0
59,3,-7,0,0,0,0,0,0
60,2,-7,-1,0,0,0,0,0
61,3,-9,0,0,0,0,0,0
62,1,-6,-1,0,0,0,0,0
63,2,-6,-1,0,0,0,0,0
64,4,-7,0,0,0,0,0,0
65,4,-7,0,0,0,0,0,0
66,2,-8,-1,0,0,0,0,0
67,5,-7,-1,0,0,0,0,0
68,3,-7,1,0,0,0,0,0
69,2,-8,-2,0,0,0,0,0
70,0,-7,-1,0,0,0,0,0
71,3,-8,-1,0,0,0,0,0
72,2,-8,-1,0,0,0,0,0
73,2,-8,0,0,0,0,0,0
74,4,-7,0,0,0,0,0,0
75,3,-6,-2,0,0,0,0,0
76,3,-8,0,0,0,0,0,0
77,5,-6,0,0,0,0,0,0
78,1,-7,-1,0,0,0,0,0
79,3,-7,-1,0,0,0,0,0
80,2,-9,0,0,0,0,0,0
81,1,-7,1,0,0,0,0,0
82,2,-7,0,0,0,0,0,0
83,2,-8,-1,0,0,0,0,0
84,2,-6,0,0,0,0,0,0
85,3,-7,0,0,0,0,0,0
86,2,-8,-1,0,0,0,0,0
87,2,-7,0,0,0,0,0,0
88,3,-7,-1,0,0,0,0,0
89,3,-9,0,0,0,0,0,0
90,4,-7,-1,0,0,0,0,0
91,5,-9,0,0,0,0,0,0
92,4,-8,-1,0,0,0,0,0
93,2,-7,0,0,0,0,0,0
94,1,-5,-1,0,0,0,0,0
95,2,-6,0,0,0,0,0,0
96,3,-8,-1,0,0,0,0,0
97,3,-7,-2,0,0,0,0,0
98,4,-7,0,0,0,0,0,0
99,3,-6,1,0,0,0,0,0
100,3,-8,-1,0,0,0,0,0
101,2,-7,0,0,0,0,0,0
102,4,-7,1,0,0,0,0,0
103,4,-8,0,0,0,0,0,0
104,5,-7,0,0,0,0,0,0
105,3,-8,-1,0,0,0,0,0
106,4,-7,-1,0,0,0,0,0
107,3,-8,-1,0,0,0,0,0
108,2,-8,0,0,0,0,0,0
109,2,-6,1,0,0,0,0,0
110,2,-7,0,0,0,0,0,0
111,2,-8,0,0,0,0,0,0
112,4,-7,-1,0,0,0,0,0
113,3,-7,-1,0,0,0,0,0
114,3,-8,0,0,0,0,0,0
115,2,-7,-1,0,0,0,0,0
116,3,-6,-1,0,0,0,0,0
117,2,-9,-1,0,0,0,0,0
118,2,-6,-1,0,0,0,0,0
119,1,-8,-1,0,0,0,0,0
120,3,-7,0,0,0,0,0,0
121,3,-8,-2,0,0,0,0,0
122,2,-8,0,0,0,0,0,0
123,2,-8,-1,0,0,0,0,0
124,3,-6,-2,0,0,0,0,0
125,3,-7,0,0,0,0,0,0
126,2,-7,1,0,0,0,0,0
127,4,-7,-1,0,0,0,0,0
128,2,-7,0,0,0,0,0,0
129,3,-8,0,0,0,0,0,0
130,2,-6,-1,0,0,0,0,0
131,4,-6,-1,0,0,0,0,0
132,3,-7,-1,0,0,0,0,0
133,5,-6,-1,0,0,0,0,0
134,1,-6,-1,0,0,0,0,0
135,3,-10,0,0,0,0,0,0
136,4,-6,0,0,0,0,0,0
137,1,-7,0,0,0,0,0,0
138,4,-7,-1,0,0,0,0,0
139,5,-8,0,0,0,0,0,0
140,2,-8,-1,0,0,0,0,0
141,2,-8,-1,0,0,0,0,0
142,2,-8,-2,0,0,0,0,0
143,2,-8,-1,0,0,0,0,0
144,4,-8,0,0,0,0,0,0
145,1,-7,0,0,0,0,0,0
146,3,-7,0,0,0,0,0,0
147,2,-8,-1,0,0,0,0,0
148,1,-5,0,0,0,0,0,0
149,2,-7,0,0,0,0,0,0
150,1,-8,-1,0,0,0,0,0
151,2,-8,0,0,0,0,0,0
152,1,-7,0,0,0,0,0,0
153,3,-7,-1,0,0,0,0,0
154,3,-7,-1,0,0,0,0,0
155,3,-7,-1,0,0,0,0,0
156,2,-8,0,0,0,0,0,0
157,-1,-9,0,0,0,0,0,0
158,0,-8,-1,0,0,0,0,0
159,2,-7,-2,0,0,0,0,0
160,3,-7,0,0,0,0,0,0
161,1,-9,0,0,0,0,0,0
162,3,-7,-1,0,0,0,0,0
163,5,-9,-1,0,0,0,0,0
164,2,-7,-1,0,0,0,0,0
165,2,-8,-1,0,0,0,0,0
166,3,-8,0,0,0,0,0,0
167,3,-7,-1,0,0,0,0,0
168,1,-7,-1,0,0,0,0,0
169,2,-8,-1,0,0,0,0,0
170,2,-7,1,0,0,0,0,0
171,5,-9,0,0,0,0,0,0
172,3,-9,-1,0,0,0,0,0
173,2,-8,-1,0,0,0,0,0
174,2,-8,0,0,0,0,0,0
175,1,-7,-2,0,0,0,0,0
176,4,-7,0,0,0,0,0,0
177,2,-7,-1,0,0,0,0,0
178,4,-8,0,0,0,0,0,0
179,3,-8,-2,0,0,0,0,0
180,3,-7,1,0,0,0,0,0
181,3,-8,-1,0,0,0,0,0
182,1,-7,-1,0,0,0,0,0
183,3,-7,1,0,0,0,0,0
184,3,-8,1,0,0,0,0,0
185,2,-7,-1,0,0,0,0,0
186,5,-6,0,0,0,0,0,0
187,3,-8,0,0,0,0,0,0
188,3,-9,0,0,0,0,0,0
189,2,-7,-1,0,0,0,0,0
190,4,-7,0,0,0,0,0,0
191,1,-8,0,0,0,0,0,0
192,2,-8,-256,0,0,0,0,0
193,1,-8,0,0,0,0,0,0
194,4,-6,0,0,0,0,0,0
195,5,-7,-3,0,0,0,0,0
196,4,-6,-1,0,0,0,0,0
197,2,-8,1,0,0,0,0,0
198,4,-6,-1,0,0,0,0,0
199,2,-6,-1,0,0,0,0,0
200,2,-8,-1,0,0,0,0,0
201,4,-8,0,0,0,0,0,0
202,3,-7,0,0,0,0,0,0
203,3,-9,-1,0,0,0,0,0
204,2,-8,1,0,0,0,0,0
205,4,-9,0,0,0,0,0,0
206,4,-8,0,0,0,0,0,0
207,3,-10,-2,0,0,0,0,0
208,5,-9,-1,0,0,0,0,0
209,2,-6,1,0,0,0,0,0
210,3,-9,0,0,0,0,0,0
211,3,-6,0,0,0,0,0,0
212,3,-9,0,0,0,0,0,0
213,3,-6,0,0,0,0,0,0
214,5,-9,-1,0,0,0,0,0
215,1,-7,-1,0,0,0,0,0
216,5,-7,-1,0,0,0,0,0
217,3,-7,0,0,0,0,0,0
218,1,-6,0,0,0,0,0,0
219,2,-8,-2,0,0,0,0,0
220,6,-6,-2,0,0,0,0,0
221,7,-8,-1,0,0,0,0,0
222,4,-6,0,0,0,0,0,0
223,3,-7,-1,0,0,0,0,0
224,4,-6,0,0,0,0,0,0
225,2,-9,0,0,0,0,0,0
226,3,-8,0,0,0,0,0,0
227,3,-8,1,0,0,0,0,0
228,1,-7,-1,0,0,0,0,0
229,4,-8,-2,0,0,0,0,0
230,2,-7,0,0,0,0,0,0
231,2,-7,0,0,0,0,0,0
232,1,-7,0,0,0,0,0,0
233,3,-7,-1,0,0,0,0,0
234,1,-8,-1,0,0,0,0,0
235,3,-7,-1,0,0,0,0,0
236,4,-7,0,0,0,0,0,0
237,4,-8,-1,0,0,0,0,0
238,3,-8,0,0,0,0,0,0
239,3,-7,0,0,0,0,0,0
240,1,-7,-1,0,0,0,0,0
241,3,-7,1,0,0,0,0,0
242,3,-7,-1,0,0,0,0,0
243,4,-7,-1,0,0,0,0,0
244,2,-8,0,0,0,0,0,0
245,2,-8,-1,0,0,0,0,0
246,3,-8,0,0,0,0,0,0
247,2,-7,0,0,0,0,0,0
248,2,-6,-1,0,0,0,0,0
249,1,-8,0,0,0,0,0,0
250,3,-8,-1,0,0,0,0,0
251,2,-8,-1,0,0,0,0,0
252,4,-8,0,0,0,0,0,0
253,0,-8,-1,0,0,0,0,0
254,3,-7,0,0,0,0,0,0
255,3,-8,-1,0,0,0,0,0
256,2,-9,0,0,0,0,0,0
257,3,-9,0,0,0,0,0,0
258,3,-8,-1,0,0,0,0,0
259,3,-6,-1,0,0,0,0,0
260,2,-8,0,0,0,0,0,0
261,3,-7,-1,0,0,0,0,0
262,3,-8,255,0,0,0,0,0
263,2,-6,-1,0,0,0,0,0
264,2,-9,-1,0,0,0,0,0
265,4,-8,-1,0,0,0,0,0
266,2,-7,-1,0,0,0,0,0
267,2,-7,-1,0,0,0,0,0
268,4,-7,-1,0,0,0,0,0
269,3,-8,-1,0,0,0,0,0
270,1,-7,0,0,0,0,0,0
271,3,-7,-1,0,0,0,0,0
272,4,-8,-1,0,0,0,0,0
273,1,-9,0,0,0,0,0,0
274,3,-8,-1,0,0,0,0,0
275,3,-8,0,0,0,0,0,0
276,4,-7,-1,0,0,0,0,0
277,1,-6,-2,0,0,0,0,0
278,1,-7,-1,0,0,0,0,0
279,2,-7,0,0,0,0,0,0
280,4,-10,0,0,0,0,0,0
281,2,-6,-1,0,0,0,0,0
282,4,-9,0,0,0,0,0,0
283,4,-7,-1,0,0,0,0,0
284,2,-6,0,0,0,0,0,0
285,1,-7,0,0,0,0,0,0
286,4,-7,0,0,0,0,0,0
287,2,-6,-1,0,0,0,0,0
288,3,-8,0,0,0,0,0,0
289,3,-7,-2,0,0,0,0,0
290,2,-7,0,0,0,0,0,0
291,3,-10,-1,0,0,0,0,0
292,2,-9,0,0,0,0,0,0
293,4,-6,0,0,0,0,0,0
294,1,-8,-1,0,0,0,0,0
295,-1,-7,0,0,0,0,0,0
296,3,-8,-1,0,0,0,0,0
297,-2,-8,2,0,0,0,0,0
298,3,-17,14,0,0,0,0,0
299,-11,-12,15,0,0,0,0,0
300,30,-17,29,0,0,0,0,0
301,5,-8,0,0,0,0,0,0
302,2,-7,-2,0,0,0,0,0
303,8,0,-11,0,0,0,0,0
304,4,3,-22,0,0,0,0,0
305,-3,-2,-10,0,0,0,0,0
306,-3,-9,0,0,0,0,0,0
307,1,-9,0,0,0,0,0,0
308,-1,-7,-1,0,0,0,0,0
309,2,-8,0,0,0,0,0,0
310,4,-9,-1,0,0,0,0,0
311,4,-8,0,0,0,0,0,0
312,3,-7,-1,0,0,0,0,0
313,3,-7,-1,0,0,0,0,0
314,3,-6,1,0,0,0,0,0
315,3,-7,0,0,0,0,0,0
316,4,-9,-2,0,0,0,0,0
317,1,-6,0,0,0,0,0,0
318,1,-7,0,0,0,0,0,0
319,2,-8,-2,0,0,0,0,0
320,3,-7,0,0,0,0,0,0
321,3,-8,1,0,0,0,0,0
322,5,-8,-1,0,0,0,0,0
323,2,-6,1,0,0,0,0,0
324,3,-7,0,0,0,0,0,0
325,3,-7,-1,0,0,0,0,0
326,3,-7,0,0,0,0,0,0
327,2,-8,-1,0,0,0,0,0
328,4,-8,-1,0,0,0,0,0
329,4,-6,-1,0,0,0,0,0
330,3,-8,0,0,0,0,0,0
331,2,-7,0,0,0,0,0,0
332,1,-8,0,0,0,0,0,0
333,4,-9,1,0,0,0,0,0
334,2,-7,0,0,0,0,0,0
335,2,-7,-1,0,0,0,0,0
336,3,-6,-1,0,0,0,0,0
337,2,-9,-1,0,0,0,0,0
338,3,-7,-1,0,0,0,0,0
339,1,-7,-2,0,0,0,0,0
340,3,-7,1,0,0,0,0,0
341,2,-6,0,0,0,0,0,0
342,3,-8,-1,0,0,0,0,0
343,1,-7,0,0,0,0,0,0
344,1,-9,-1,0,0,0,0,0
345,4,-9,-1,0,0,0,0,0
346,3,-8,-1,0,0,0,0,0
347,1,-7,0,0,0,0,0,0
348,2,-8,-1,0,0,0,0,0
349,3,-8,0,0,0,0,0,0
350,3,-9,-1,0,0,0,0,0
351,1,-8,0,0,0,0,0,0
352,3,-8,0,0,0,0,0,0
353,3,-7,-1,0,0,0,0,0
354,4,-7,255,0,0,0,0,0
355,4,-7,-1,0,0,0,0,0
356,0,-7,-1,0,0,0,0,0
357,2,-6,-1,0,0,0,0,0
358,3,-8,-1,0,0,0,0,0
359,3,-6,1,0,0,0,0,0
360,3,-7,0,0,0,0,0,0
361,2,-8,0,0,0,0,0,0
362,2,-7,0,0,0,0,0,0
363,0,-9,0,0,0,0,0,0
364,1,-8,-1,0,0,0,0,0
365,3,-7,1,0,0,0,0,0
366,3,-6,-1,0,0,0,0,0
367,3,-7,0,0,0,0,0,0
368,2,-8,-1,0,0,0,0,0
369,2,-8,0,0,0,0,0,0
370,2,-6,1,0,0,0,0,0
371,3,-8,-1,0,0,0,0,0
372,4,-8,-1,0,0,0,0,0
373,2,-7,-1,0,0,0,0,0
374,3,-7,-1,0,0,0,0,0
375,7,-6,-2,0,0,0,0,0
376,2,-8,1,0,0,0,0,0
377,-1,-8,1,0,0,0,0,0
378,4,-8,-1,0,0,0,0,0
379,4,-7,-1,0,0,0,0,0
380,5,-6,-1,0,0,0,0,0
381,3,-8,1,0,0,0,0,0
382,0,-8,-1,0,0,0,0,0
383,3,-9,-1,0,0,0,0,0
384,3,-7,0,0,0,0,0,0
385,4,-7,0,0,0,0,0,0
386,3,-7,0,0,0,0,0,0
387,3,-7,0,0,0,0,0,0
388,2,-8,0,0,0,0,0,0
389,2,-7,-1,0,0,0,0,0
390,3,-8,-1,0,0,0,0,0
391,4,-6,-1,0,0,0,0,0
392,2,-6,0,0,0,0,0,0
393,3,-8,-1,0,0,0,0,0
394,1,-9,-2,0,0,0,0,0
395,2,-8,-2,0,0,0,0,0
396,3,-9,0,0,0,0,0,0
397,1,-9,-1,0,0,0,0,0
398,3,-7,-1,0,0,0,0,0
399,2,-8,0,0,0,0,0,0
400,2,-8,-1,0,0,0,0,0
401,1,-8,0,0,0,0,0,0
402,2,-6,-2,0,0,0,0,0
403,2,-6,-1,0,0,0,0,0
404,3,-6,1,0,0,0,0,0
405,3,-9,-1,0,0,0,0,0
406,1,-9,-1,0,0,0,0,0
407,3,-7,0,0,0,0,0,0
408,2,-7,0,0,0,0,0,0
409,2,-7,0,0,0,0,0,0
410,10,-6,-1,0,0,0,0,0
411,5,-6,1,0,0,0,0,0
412,3,-8,-1,0,0,0,0,0
413,4,-7,0,0,0,0,0,0
414,1,-9,-1,0,0,0,0,0
415,-1,-7,0,0,0,0,0,0
416,6,-7,-1,0,0,0,0,0
417,3,-8,-1,0,0,0,0,0
418,2,-7,-1,0,0,0,0,0
419,3,-7,-1,0,0,0,0,0
420,2,-8,-2,0,0,0,0,0
421,3,-7,-1,0,0,0,0,0
422,2,-7,-1,0,0,0,0,0
423,3,-8,-1,0,0,0,0,0
424,2,-7,-1,0,0,0,0,0
425,4,-7,0,0,0,0,0,0
426,2,-8,1,0,0,0,0,0
427,4,-8,0,0,0,0,0,0
428,3,-6,-2,0,0,0,0,0
429,2,-8,1,0,0,0,0,0
430,3,-6,0,0,0,0,0,0
431,4,-7,0,0,0,0,0,0
432,0,-7,-1,0,0,0,0,0
433,3,-7,-1,0,0,0,0,0
434,2,-7,-1,0,0,0,0,0
435,3,-8,0,0,0,0,0,0
436,3,-7,0,0,0,0,0,0
437,3,-7,-1,0,0,0,0,0
438,4,-8,-1,0,0,0,0,0
439,3,-7,-1,0,0,0,0,0
440,4,-8,0,0,0,0,0,0
441,2,-8,-1,0,0,0,0,0
442,3,-7,0,0,0,0,0,0
443,2,-7,-1,0,0,0,0,0
444,1,-8,-1,0,0,0,0,0
445,3,-8,0,0,0,0,0,0
446,3,-7,-1,0,0,0,0,0
447,3,-7,-1,0,0,0,0,0
448,2,-7,-1,0,0,0,0,0
449,2,-9,-1,0,0,0,0,0
450,4,-7,-1,0,0,0,0,0
451,3,-7,0,0,0,0,0,0
452,3,-8,-1,0,0,0,0,0
453,3,-6,0,0,0,0,0,0
454,3,-7,-1,0,0,0,0,0
455,4,-8,0,0,0,0,0,0
456,4,-7,0,0,0,0,0,0
457,2,-7,-1,0,0,0,0,0
458,2,-8,1,0,0,0,0,0
459,1,-7,-1,0,0,0,0,0
460,2,-7,0,0,0,0,0,0
461,4,-6,-1,0,0,0,0,0
462,4,-7,-1,0,0,0,0,0
463,2,-7,1,0,0,0,0,0
464,3,-9,-1,0,0,0,0,0
465,2,-8,0,0,0,0,0,0
466,4,-7,0,0,0,0,0,0
467,4,-6,-1,0,0,0,0,0
468,4,-8,1,0,0,0,0,0
469,2,-6,1,0,0,0,0,0
470,4,-6,0,0,0,0,0,0
471,-4,-7,-2,0,0,0,0,0
472,0,-7,0,0,0,0,0,0
473,0,-10,-1,0,0,0,0,0
474,1,-8,-1,0,0,0,0,0
475,-1,-6,1,0,0,0,0,0
476,-1,-6,-1,0,0,0,0,0
477,4,-7,-1,0,0,0,0,0
478,3,-7,0,0,0,0,0,0
479,3,-6,0,0,0,0,0,0
480,3,-7,-2,0,0,0,0,0
481,2,-6,0,0,0,0,0,0
482,4,-9,0,0,0,0,0,0
483,2,-6,0,0,0,0,0,0
484,4,-8,0,0,0,0,0,0
485,1,-7,1,0,0,0,0,0
486,3,-7,-1,0,0,0,0,0
487,2,-6,1,0,0,0,0,0
488,2,-7,1,0,0,0,0,0
489,4,-7,1,0,0,0,0,0
490,3,-9,1,0,0,0,0,0
491,3,-7,-1,0,0,0,0,0
492,3,-8,0,0,0,0,0,0
493,2,-7,-1,0,0,0,0,0
494,2,-7,0,0,0,0,0,0
495,3,-8,-1,0,0,0,0,0
496,2,-7,-1,0,0,0,0,0
497,4,-8,1,0,0,0,0,0
498,2,-6,0,0,0,0,0,0
499,4,-7,0,0,0,0,0,0
500,3,-8,-1,0,0,0,0,0
501,4,-8,0,0,0,0,0,0
502,7,-6,-1,0,0,0,0,0
503,5,-6,-1,0,0,0,0,0
504,2,-9,-1,0,0,0,0,0
505,3,-9,0,0,0,0,0,0
506,4,-8,-1,0,0,0,0,0
507,3,-8,-2,0,0,0,0,0
508,3,-6,0,0,0,0,0,0
509,2,-6,-1,0,0,0,0,0
510,6,-8,-1,0,0,0,0,0
511,1,-8,0,0,0,0,0,0
512,5,-6,0,0,0,0,0,0
513,3,-9,0,0,0,0,0,0
514,3,-7,-1,0,0,0,0,0
515,2,-7,0,0,0,0,0,0
516,2,-8,-1,0,0,0,0,0
517,-10,-7,0,0,0,0,0,0
518,2,-10,0,0,0,0,0,0
519,6,-7,-2,0,0,0,0,0
520,-1,-8,-2,0,0,0,0,0
521,2,-7,0,0,0,0,0,0
522,2,-8,0,0,0,0,0,0
523,-1,-8,-1,0,0,0,0,0
524,2,-6,0,0,0,0,0,0
525,5,-8,0,0,0,0,0,0
526,4,-7,-2,0,0,0,0,0
527,3,-7,0,0,0,0,0,0
528,3,-9,0,0,0,0,0,0
529,1,-8,-2,0,0,0,0,0
530,4,-7,-1,0,0,0,0,0
531,4,-7,-1,0,0,0,0,0
532,2,-8,-1,0,0,0,0,0
533,3,-9,0,0,0,0,0,0
534,1,-7,-2,0,0,0,0,0
535,2,-8,-1,0,0,0,0,0
536,3,-8,-1,0,0,0,0,0
537,1,-8,0,0,0,0,0,0
538,2,-7,0,0,0,0,0,0
539,2,-7,0,0,0,0,0,0
540,2,-7,-1,0,0,0,0,0
541,3,-7,0,0,0,0,0,0
542,3,-8,0,0,0,0,0,0
543,2,-6,-1,0,0,0,0,0
544,3,-6,-3,0,0,0,0,0
545,2,-7,0,0,0,0,0,0
546,2,-7,-1,0,0,0,0,0
547,4,-9,-1,0,0,0,0,0
548,3,-7,0,0,0,0,0,0
549,1,-7,0,0,0,0,0,0
550,0,-8,2,0,0,0,0,0
551,1,-8,2,0,0,0,0,0
552,4,-6,0,0,0,0,0,0
553,2,-8,1,0,0,0,0,0
554,5,-7,-1,0,0,0,0,0
555,6,-8,0,0,0,0,0,0
556,3,-7,-2,0,0,0,0,0
557,5,-7,0,0,0,0,0,0
558,3,-6,-1,0,0,0,0,0
559,3,-7,-1,0,0,0,0,0
560,2,-7,-1,0,0,0,0,0
561,3,-8,0,0,0,0,0,0
562,2,-8,0,0,0,0,0,0
563,1,-8,-1,0,0,0,0,0
564,2,-8,-1,0,0,0,0,0
565,2,-7,-2,0,0,0,0,0
566,1,-7,255,0,0,0,0,0
567,3,-8,-1,0,0,0,0,0
568,2,-7,1,0,0,0,0,0
569,3,-8,-1,0,0,0,0,0
570,3,-8,-1,0,0,0,0,0
571,4,-7,0,0,0,0,0,0
572,3,-8,1,0,0,0,0,0
573,5,-8,-1,0,0,0,0,0
574,1,-8,-1,0,0,0,0,0
575,3,-6,0,0,0,0,0,0
576,3,-8,-1,0,0,0,0,0
577,1,-9,-1,0,0,0,0,0
578,3,-6,1,0,0,0,0,0
579,3,-6,0,0,0,0,0,0
580,4,-6,-1,0,0,0,0,0
581,2,-6,-1,0,0,0,0,0
582,2,-8,0,0,0,0,0,0
583,3,-9,-1,0,0,0,0,0
584,3,-7,0,0,0,0,0,0
585,2,-6,-1,0,0,0,0,0
586,4,-8,0,0,0,0,0,0
587,3,-7,-1,0,0,0,0,0
588,4,-9,-1,0,0,0,0,0
589,4,-6,0,0,0,0,0,0
590,1,-6,-1,0,0,0,0,0
591,4,-6,0,0,0,0,0,0
592,2,-8,0,0,0,0,0,0
593,3,-6,-1,0,0,0,0,0
594,4,-7,1,0,0,0,0,0
595,4,-6,0,0,0,0,0,0
596,3,-9,0,0,0,0,0,0
597,3,-8,0,0,0,0,0,0
598,3,-8,0,0,0,0,0,0
599,2,-7,0,0,0,0,0,0
600,3,-7,0,0,0,0,0,0
601,4,-7,1,0,0,0,0,0
602,2,-8,0,0,0,0,0,0
603,2,-6,-1,0,0,0,0,0
604,5,-7,1,0,0,0,0,0
605,1,-6,0,0,0,0,0,0
606,2,-8,-2,0,0,0,0,0
607,2,-7,1,0,0,0,0,0
608,3,-7,0,0,0,0,0,0
609,3,-8,0,0,0,0,0,0
610,1,-7,0,0,0,0,0,0
611,4,-7,-1,0,0,0,0,0
612,3,-9,-1,0,0,0,0,0
613,3,-8,1,0,0,0,0,0
614,1,-8,0,0,0,0,0,0
615,2,-9,0,0,0,0,0,0
616,5,-8,0,0,0,0,0,0
617,2,-7,0,0,0,0,0,0
618,3,-6,1,0,0,0,0,0
619,3,-8,-1,0,0,0,0,0
620,4,-6,-1,0,0,0,0,0
621,6,-9,-1,0,0,0,0,0
622,2,-7,0,0,0,0,0,0
623,3,-8,0,0,0,0,0,0
624,3,-6,0,0,0,0,0,0
625,2,-9,0,0,0,0,0,0
626,3,-6,0,0,0,0,0,0
627,2,-7,0,0,0,0,0,0
628,4,-7,-1,0,0,0,0,0
629,3,-9,-1,0,0,0,0,0
630,2,-7,0,0,0,0,0,0
631,3,-8,0,0,0,0,0,0
632,3,-6,-1,0,0,0,0,0
633,3,-8,0,0,0,0,0,0
634,2,-7,-1,0,0,0,0,0
635,1,-8,-2,0,0,0,0,0
636,1,-8,0,0,0,0,0,0
637,3,-8,0,0,0,0,0,0
638,1,-8,0,0,0,0,0,0
639,3,-8,1,0,0,0,0,0
640,2,-7,-1,0,0,0,0,0
641,1,-7,-2,0,0,0,0,0
642,2,-8,-1,0,0,0,0,0
643,1,-7,-1,0,0,0,0,0
644,4,-8,-1,0,0,0,0,0
645,0,-7,0,0,0,0,0,0
646,2,-8,-2,0,0,0,0,0
647,1,-6,0,0,0,0,0,0
648,3,-7,0,0,0,0,0,0
649,1,-8,0,0,0,0,0,0
650,1,-7,0,0,0,0,0,0
651,2,-8,-1,0,0,0,0,0
652,4,-9,-1,0,0,0,0,0
653,3,-7,-1,0,0,0,0,0
654,3,-6,0,0,0,0,0,0
655,3,-7,-1,0,0,0,0,0
656,3,-8,0,0,0,0,0,0
657,1,-7,-1,0,0,0,0,0
658,3,-8,0,0,0,0,0,0
659,3,-7,0,0,0,0,0,0
660,2,-8,0,0,0,0,0,0
661,3,-7,0,0,0,0,0,0
662,5,-7,-1,0,0,0,0,0
663,2,-8,-1,0,0,0,0,0
664,3,-8,-1,0,0,0,0,0
665,3,-7,0,0,0,0,0,0
666,3,-7,-1,0,0,0,0,0
667,1,-7,-1,0,0,0,0,0
668,4,-8,-2,0,0,0,0,0
669,3,-6,0,0,0,0,0,0
670,4,-8,-1,0,0,0,0,0
671,4,-8,0,0,0,0,0,0
672,3,-8,0,0,0,0,0,0
673,3,-7,0,0,0,0,0,0
674,1,-9,-1,0,0,0,0,0
675,2,-7,0,0,0,0,0,0
676,1,-7,-1,0,0,0,0,0
677,4,-8,0,0,0,0,0,0
678,5,-7,0,0,0,0,0,0
679,3,-9,0,0,0,0,0,0
680,2,-7,1,0,0,0,0,0
681,2,-7,-1,0,0,0,0,0
682,3,-8,0,0,0,0,0,0
683,3,-7,0,0,0,0,0,0
684,3,-8,-1,0,0,0,0,0
685,2,-7,-1,0,0,0,0,0
686,4,-9,-1,0,0,0,0,0
687,1,-7,-1,0,0,0,0,0
688,1,-7,1,0,0,0,0,0
689,4,-8,-1,0,0,0,0,0
690,3,-7,0,0,0,0,0,0
691,3,-8,-1,0,0,0,0,0
692,3,-8,-1,0,0,0,0,0
693,2,-6,-1,0,0,0,0,0
694,3,-8,0,0,0,0,0,0
695,4,-9,0,0,0,0,0,0
696,2,-8,-1,0,0,0,0,0
697,3,-8,-1,0,0,0,0,0
698,3,-7,-1,0,0,0,0,0
699,2,-7,-1,0,0,0,0,0
700,1,-8,-1,0,0,0,0,0
701,4,-7,-1,0,0,0,0,0
702,2,-7,-1,0,0,0,0,0
703,2,-9,-1,0,0,0,0,0
704,2,-7,0,0,0,0,0,0
705,2,-8,-1,0,0,0,0,0
706,3,-8,-1,0,0,0,0,0
707,2,-7,1,0,0,0,0,0
708,3,-7,-1,0,0,0,0,0
709,3,-7,1,0,0,0,0,0
710,-1,-8,-1,0,0,0,0,0
711,3,-7,0,0,0,0,0,0
712,1,-7,0,0,0,0,0,0
713,3,-8,-1,0,0,0,0,0
714,3,-7,-1,0,0,0,0,0
715,2,-7,0,0,0,0,0,0
716,4,-7,-1,0,0,0,0,0
717,2,-7,0,0,0,0,0,0
718,4,-8,-1,0,0,0,0,0
719,0,-8,0,0,0,0,0,0
720,3,-7,0,0,0,0,0,0
721,1,-7,-1,0,0,0,0,0
722,4,-8,-1,0,0,0,0,0
723,3,-7,0,0,0,0,0,0
724,3,-8,-1,0,0,0,0,0
725,3,-8,0,0,0,0,0,0
726,1,-7,0,0,0,0,0,0
727,1,-7,0,0,0,0,0,0
728,3,-8,-1,0,0,0,0,0
729,1,-7,-1,0,0,0,0,0
730,2,-7,0,0,0,0,0,0
731,3,-8,0,0,0,0,0,0
732,2,-7,-1,0,0,0,0,0
733,4,-8,-1,0,0,0,0,0
734,3,-6,1,0,0,0,0,0
735,3,-8,0,0,0,0,0,0
736,1,-8,1,0,0,0,0,0
737,4,-8,1,0,0,0,0,0
738,3,-7,0,0,0,0,0,0
739,1,-8,-1,0,0,0,0,0
740,4,-8,-1,0,0,0,0,0
741,3,-8,0,0,0,0,0,0
742,1,-9,0,0,0,0,0,0
743,3,-6,-1,0,0,0,0,0
744,1,-8,-1,0,0,0,0,0
745,3,-6,-2,0,0,0,0,0
746,2,-7,0,0,0,0,0,0
747,1,-8,0,0,0,0,0,0
748,2,-7,-1,0,0,0,0,0
749,9,-5,-2,0,0,0,0,0
750,6,-7,-1,0,0,0,0,0
751,-2,-7,1,0,0,0,0,0
752,1,-7,0,0,0,0,0,0
753,4,-7,1,0,0,0,0,0
754,2,-7,2,0,0,0,0,0
755,2,-7,-2,0,0,0,0,0
756,4,-8,1,0,0,0,0,0
757,6,-6,-1,0,0,0,0,0
758,-1,-8,0,0,0,0,0,0
759,-2,-7,1,0,0,0,0,0
760,4,-7,-1,0,0,0,0,0
761,2,-8,-1,0,0,0,0,0
762,3,-7,0,0,0,0,0,0
763,-1,-6,0,0,0,0,0,0
764,0,-8,0,0,0,0,0,0
765,3,-7,-1,0,0,0,0,0
766,0,-7,0,0,0,0,0,0
767,5,-5,0,0,0,0,0,0
768,3,-6,-1,0,0,0,0,0
769,0,-9,0,0,0,0,0,0
770,-7,-5,-3,0,0,0,0,0
771,-7,-9,-4,0,0,0,0,0
772,10,-8,1,0,0,0,0,0
773,13,-7,1,0,0,0,0,0
774,5,-6,0,0,0,0,0,0
775,0,-7,-1,0,0,0,0,0
776,4,-6,0,0,0,0,0,0
777,2,-8,-1,0,0,0,0,0
778,2,-6,0,0,0,0,0,0
779,2,-7,-1,0,0,0,0,0
780,3,-6,0,0,0,0,0,0
781,3,-7,-1,0,0,0,0,0
782,3,-8,0,0,0,0,0,0
783,3,-7,0,0,0,0,0,0
784,4,-7,-1,0,0,0,0,0
785,3,-7,0,0,0,0,0,0
786,3,-7,0,0,0,0,0,0
787,2,-7,0,0,0,0,0,0
788,3,-8,0,0,0,0,0,0
789,2,-7,-1,0,0,0,0,0
790,3,-8,0,0,0,0,0,0
791,2,-8,0,0,0,0,0,0
792,4,-7,-1,0,0,0,0,0
793,2,-8,-1,0,0,0,0,0
794,1,-6,0,0,0,0,0,0
795,4,-8,-1,0,0,0,0,0
796,3,-7,0,0,0,0,0,0
797,0,-5,-1,0,0,0,0,0
798,6,-8,-1,0,0,0,0,0
799,4,-8,-1,0,0,0,0,0
800,3,-7,1,0,0,0,0,0
801,3,-7,1,0,0,0,0,0
802,4,-7,-1,0,0,0,0,0
803,2,-7,-1,0,0,0,0,0
804,4,-7,-1,0,0,0,0,0
805,3,-8,0,0,0,0,0,0
806,2,-6,0,0,0,0,0,0
807,1,-8,-2,0,0,0,0,0
808,2,-7,0,0,0,0,0,0
809,4,-7,0,0,0,0,0,0
810,1,-7,-1,0,0,0,0,0
811,4,-8,-1,0,0,0,0,0
812,4,-8,0,0,0,0,0,0
813,3,-9,-1,0,0,0,0,0
814,4,-7,-1,0,0,0,0,0
815,2,-7,-2,0,0,0,0,0
816,5,-7,-1,0,0,0,0,0
817,3,-8,1,0,0,0,0,0
818,3,-7,-1,0,0,0,0,0
819,3,-7,-2,0,0,0,0,0
820,2,-8,0,0,0,0,0,0
821,3,-8,0,0,0,0,0,0
822,3,-7,-1,0,0,0,0,0
823,3,-7,0,0,0,0,0,0
824,4,-7,0,0,0,0,0,0
825,1,-7,0,0,0,0,0,0
826,3,-8,0,0,0,0,0,0
827,4,-8,0,0,0,0,0,0
828,3,-7,0,0,0,0,0,0
829,3,-7,0,0,0,0,0,0
830,3,-7,1,0,0,0,0,0
831,4,-7,0,0,0,0,0,0
832,3,-7,-1,0,0,0,0,0
833,2,-8,-1,0,0,0,0,0
834,3,-7,-1,0,0,0,0,0
835,1,-6,1,0,0,0,0,0
836,2,-7,-1,0,0,0,0,0
837,3,-8,-2,0,0,0,0,0
838,4,-8,0,0,0,0,0,0
839,0,-7,-1,0,0,0,0,0
840,5,-9,0,0,0,0,0,0
841,2,-7,1,0,0,0,0,0
842,5,-8,0,0,0,0,0,0
843,4,-6,-1,0,0,0,0,0
844,4,-8,0,0,0,0,0,0
845,1,-6,0,0,0,0,0,0
846,4,-9,-1,0,0,0,0,0
847,2,-7,-1,0,0,0,0,0
848,1,-9,0,0,0,0,0,0
849,2,-6,0,0,0,0,0,0
850,4,-6,0,0,0,0,0,0
851,1,-7,-1,0,0,0,0,0
852,2,-8,0,0,0,0,0,0
853,3,-8,-1,0,0,0,0,0
854,2,-8,0,0,0,0,0,0
855,2,-8,0,0,0,0,0,0
856,3,-7,-1,0,0,0,0,0
857,4,-8,0,0,0,0,0,0
858,1,-8,0,0,0,0,0,0
859,3,-6,-1,0,0,0,0,0
860,3,-7,0,0,0,0,0,0
861,3,-8,0,0,0,0,0,0
862,2,-8,1,0,0,0,0,0
863,1,-8,0,0,0,0,0,0
864,2,-7,0,0,0,0,0,0
865,2,-8,-1,0,0,0,0,0
866,2,-8,1,0,0,0,0,0
867,2,-7,-1,0,0,0,0,0
868,3,-8,0,0,0,0,0,0
869,2,-8,255,0,0,0,0,0
870,3,-8,-1,0,0,0,0,0
871,4,-8,-1,0,0,0,0,0
872,3,-7,-1,0,0,0,0,0
873,2,-8,-1,0,0,0,0,0
874,3,-9,0,0,0,0,0,0
875,1,-7,0,0,0,0,0,0
876,3,-7,0,0,0,0,0,0
877,4,-8,-1,0,0,0,0,0
878,2,-7,-1,0,0,0,0,0
879,2,-7,-1,0,0,0,0,0
880,2,-9,-1,0,0,0,0,0
881,3,-6,-1,0,0,0,0,0
882,2,-8,0,0,0,0,0,0
883,3,-8,0,0,0,0,0,0
884,3,-8,-2,0,0,0,0,0
885,2,-8,-2,0,0,0,0,0
886,3,-6,-1,0,0,0,0,0
887,2,-8,-1,0,0,0,0,0
888,2,-7,-1,0,0,0,0,0
889,3,-7,0,0,0,0,0,0
890,2,-6,0,0,0,0,0,0
891,3,-7,0,0,0,0,0,0
892,1,-7,-1,0,0,0,0,0
893,3,-9,0,0,0,0,0,0
894,2,-7,-1,0,0,0,0,0
895,3,-7,0,0,0,0,0,0
896,2,-7,-1,0,0,0,0,0
897,3,-8,-1,0,0,0,0,0
898,2,-8,1,0,0,0,0,0
899,4,-9,-256,0,0,0,0,0
900,3,-8,-1,0,0,0,0,0
901,4,-9,-1,0,0,0,0,0
902,2,-7,-1,0,0,0,0,0
903,2,-7,-2,0,0,0,0,0
904,2,-8,0,0,0,0,0,0
905,2,-7,-1,0,0,0,0,0
906,3,-7,0,0,0,0,0,0
907,3,-7,0,0,0,0,0,0
908,5,-6,-1,0,0,0,0,0
909,2,-7,-1,0,0,0,0,0
910,3,-9,-1,0,0,0,0,0
911,3,-8,-1,0,0,0,0,0
912,2,-7,-1,0,0,0,0,0
913,2,-6,-1,0,0,0,0,0
914,2,-9,0,0,0,0,0,0
915,4,-6,0,0,0,0,0,0
916,1,-9,-2,0,0,0,0,0
917,2,-8,0,0,0,0,0,0
918,4,-7,0,0,0,0,0,0
919,3,-8,1,0,0,0,0,0
920,2,-7,0,0,0,0,0,0
921,3,-8,-1,0,0,0,0,0
922,3,-8,-1,0,0,0,0,0
923,2,-7,0,0,0,0,0,0
924,2,-7,0,0,0,0,0,0
925,3,-8,0,0,0,0,0,0
926,3,-6,-1,0,0,0,0,0
927,3,-8,0,0,0,0,0,0
928,3,-8,-1,0,0,0,0,0
929,5,-7,-1,0,0,0,0,0
930,3,-8,0,0,0,0,0,0
931,1,-7,-1,0,0,0,0,0
932,2,-8,-1,0,0,0,0,0
933,2,-7,-1,0,0,0,0,0
934,3,-7,0,0,0,0,0,0
935,2,-7,-2,0,0,0,0,0
936,3,-8,1,0,0,0,0,0
937,2,-7,-256,0,0,0,0,0
938,3,-8,0,0,0,0,0,0
939,3,-8,-1,0,0,0,0,0
940,3,-6,-1,0,0,0,0,0
941,2,-8,-1,0,0,0,0,0
942,2,-6,-2,0,0,0,0,0
943,4,-7,0,0,0,0,0,0
944,4,-7,1,0,0,0,0,0
945,2,-7,0,0,0,0,0,0
946,1,-7,0,0,0,0,0,0
947,3,-7,-1,0,0,0,0,0
948,1,-8,0,0,0,0,0,0
949,2,-7,0,0,0,0,0,0
950,4,-7,0,0,0,0,0,0
951,3,-8,0,0,0,0,0,0
952,3,-6,0,0,0,0,0,0
953,4,-9,0,0,0,0,0,0
954,2,-8,-1,0,0,0,0,0
955,2,-9,-1,0,0,0,0,0
956,2,-7,0,0,0,0,0,0
957,4,-9,0,0,0,0,0,0
958,3,-7,-1,0,0,0,0,0
959,4,-8,-1,0,0,0,0,0
960,3,-8,-1,0,0,0,0,0
961,4,-7,-1,0,0,0,0,0
962,3,-7,-1,0,0,0,0,0
963,3,-6,0,0,0,0,0,0
964,3,-8,0,0,0,0,0,0
965,4,-8,-1,0,0,0,0,0
966,3,-8,-1,0,0,0,0,0
967,3,-7,1,0,0,0,0,0
968,3,-7,0,0,0,0,0,0
969,3,-7,-1,0,0,0,0,0
970,2,-5,0,0,0,0,0,0
971,3,-9,-1,0,0,0,0,0
972,3,-7,0,0,0,0,0,0
973,3,-9,-1,0,0,0,0,0
974,1,-6,0,0,0,0,0,0
975,2,-8,-1,0,0,0,0,0
976,4,-8,-1,0,0,0,0,0
977,4,-6,0,0,0,0,0,0
978,1,-7,0,0,0,0,0,0
979,3,-8,-1,0,0,0,0,0
980,5,-8,-1,0,0,0,0,0
981,2,-6,0,0,0,0,0,0
982,3,-8,0,0,0,0,0,0
983,5,-8,-1,0,0,0,0,0
984,4,-7,-1,0,0,0,0,0
985,1,-7,-2,0,0,0,0,0
986,2,-8,0,0,0,0,0,0
987,2,-9,-1,0,0,0,0,0
988,3,-8,-1,0,0,0,0,0
989,2,-9,0,0,0,0,0,0
990,1,-8,-2,0,0,0,0,0
991,5,-8,-1,0,0,0,0,0
992,5,-7,-1,0,0,0,0,0
993,3,-7,-1,0,0,0,0,0
994,0,-7,0,0,0,0,0,0
995,5,-9,0,0,0,0,0,0
996,3,-8,-1,0,0,0,0,0
997,4,-8,0,0,0,0,0,0
998,0,-7,0,0,0,0,0,0
999,2,-7,0,0,0,0,0,0
1000,3,-7,-1,0,0,0,0,0
1001,3,-6,-1,0,0,0,0,0
1002,5,-7,0,0,0,0,0,0
1003,1,-6,-1,0,0,0,0,0
1004,2,-8,1,0,0,0,0,0
1005,2,-6,0,0,0,0,0,0
1006,3,-7,0,0,0,0,0,0
1007,4,-8,-1,0,0,0,0,0
1008,3,-7,1,0,0,0,0,0
1009,2,-8,0,0,0,0,0,0
1010,2,-7,0,0,0,0,0,0
1011,1,-7,0,0,0,0,0,0
1012,2,-7,1,0,0,0,0,0
1013,2,-8,-1,0,0,0,0,0
1014,3,-7,0,0,0,0,0,0
1015,2,-7,0,0,0,0,0,0
1016,1,-6,-1,0,0,0,0,0
1017,5,-8,0,0,0,0,0,0
1018,4,-7,-2,0,0,0,0,0
1019,2,-9,0,0,0,0,0,0
1020,4,-8,-1,0,0,0,0,0
1021,3,-8,-1,0,0,0,0,0
1022,2,-7,-2,0,0,0,0,0
1023,5,-8,-1,0,0,0,0,0
1024,1,-6,-1,0,0,0,0,0
1025,4,-7,-1,0,0,0,0,0
1026,3,-8,0,0,0,0,0,0
1027,2,-7,-1,0,0,0,0,0
1028,3,-6,-1,0,0,0,0,0
1029,3,-8,0,0,0,0,0,0
1030,3,-8,-1,0,0,0,0,0
1031,2,-8,0,0,0,0,0,0
1032,3,-7,-1,0,0,0,0,0
1033,1,-6,-1,0,0,0,0,0
1034,-1,-9,0,0,0,0,0,0
1035,-2,-8,0,0,0,0,0,0
1036,6,-7,0,0,0,0,0,0
1037,1,-8,0,0,0,0,0,0
1038,4,-7,0,0,0,0,0,0
1039,0,-9,-3,0,0,0,0,0
1040,2,-7,0,0,0,0,0,0
1041,3,-8,-1,0,0,0,0,0
1042,3,-8,-1,0,0,0,0,0
1043,1,-7,0,0,0,0,0,0
1044,5,-7,0,0,0,0,0,0
1045,2,-6,-1,0,0,0,0,0
1046,3,-7,-2,0,0,0,0,0
1047,2,-8,-1,0,0,0,0,0
1048,3,-7,0,0,0,0,0,0
1049,3,-7,1,0,0,0,0,0
1050,2,-7,0,0,0,0,0,0
1051,2,-7,-1,0,0,0,0,0
1052,3,-8,-1,0,0,0,0,0
1053,2,-6,1,0,0,0,0,0
1054,4,-9,0,0,0,0,0,0
1055,4,-7,-1,0,0,0,0,0
1056,4,-8,0,0,0,0,0,0
1057,4,-8,-2,0,0,0,0,0
1058,1,-7,0,0,0,0,0,0
1059,4,-9,0,0,0,0,0,0
1060,2,-8,-1,0,0,0,0,0
1061,2,-9,0,0,0,0,0,0
1062,2,-8,0,0,0,0,0,0
1063,3,-7,0,0,0,0,0,0
1064,3,-7,-1,0,0,0,0,0
1065,2,-9,-1,0,0,0,0,0
1066,2,-10,-1,0,0,0,0,0
1067,4,-7,1,0,0,0,0,0
1068,3,-9,-1,0,0,0,0,0
1069,3,-8,0,0,0,0,0,0
1070,4,-8,0,0,0,0,0,0
1071,2,-7,0,0,0,0,0,0
1072,4,-8,-1,0,0,0,0,0
1073,2,-6,1,0,0,0,0,0
1074,2,-8,-1,0,0,0,0,0
1075,1,-7,0,0,0,0,0,0
1076,2,-9,-1,0,0,0,0,0
1077,3,-7,1,0,0,0,0,0
1078,2,-8,-1,0,0,0,0,0
1079,3,-8,-1,0,0,0,0,0
1080,2,-7,0,0,0,0,0,0
1081,5,-7,0,0,0,0,0,0
1082,4,-7,-1,0,0,0,0,0
1083,2,-7,0,0,0,0,0,0
1084,5,-6,0,0,0,0,0,0
1085,1,-7,-1,0,0,0,0,0
1086,4,-6,-1,0,0,0,0,0
1087,3,-8,-2,0,0,0,0,0
1088,3,-6,-1,0,0,0,0,0
1089,2,-7,0,0,0,0,0,0
1090,4,-8,-1,0,0,0,0,0
1091,3,-7,1,0,0,0,0,0
1092,1,-9,-1,0,0,0,0,0
1093,-1,-7,1,0,0,0,0,0
1094,13,-4,-3,0,0,0,0,0
1095,0,-6,-2,0,0,0,0,0
1096,13,-8,0,0,0,0,0,0
1097,0,-9,-1,0,0,0,0,0
1098,7,-8,0,0,0,0,0,0
1099,-4,-11,-1,0,0,0,0,0
1100,1,-9,-3,0,0,0,0,0
1101,1,-7,0,0,0,0,0,0
1102,-11,-8,-5,0,0,0,0,0
1103,14,-8,-3,0,0,0,0,0
1104,-10,-9,1,0,0,0,0,0
1105,5,-7,0,0,0,0,0,0
1106,9,-7,0,0,0,0,0,0
1107,2,-7,0,0,0,0,0,0
1108,3,-8,0,0,0,0,0,0
1109,4,-7,-1,0,0,0,0,0
1110,4,-9,-1,0,0,0,0,0
1111,1,-7,-1,0,0,0,0,0
1112,4,-7,0,0,0,0,0,0
1113,2,-8,-1,0,0,0,0,0
1114,3,-7,-1,0,0,0,0,0
1115,2,-7,1,0,0,0,0,0
1116,3,-8,-2,0,0,0,0,0
1117,0,-8,0,0,0,0,0,0
1118,3,-9,0,0,0,0,0,0
1119,3,-7,0,0,0,0,0,0
1120,5,-5,-1,0,0,0,0,0
1121,4,-7,0,0,0,0,0,0
1122,3,-7,-1,0,0,0,0,0
1123,3,-8,-1,0,0,0,0,0
1124,4,-8,0,0,0,0,0,0
1125,3,-7,0,0,0,0,0,0
1126,4,-8,0,0,0,0,0,0
1127,2,-8,-1,0,0,0,0,0
1128,2,-6,-1,0,0,0,0,0
1129,3,-7,-1,0,0,0,0,0
1130,0,-7,-1,0,0,0,0,0
1131,7,-9,1,0,0,0,0,0
1132,0,-6,0,0,0,0,0,0
1133,3,-9,-1,0,0,0,0,0
1134,2,-8,-2,0,0,0,0,0
1135,4,-7,-1,0,0,0,0,0
1136,2,-8,0,0,0,0,0,0
1137,3,-7,0,0,0,0,0,0
1138,2,-8,0,0,0,0,0,0
1139,4,-8,0,0,0,0,0,0
1140,3,-6,-1,0,0,0,0,0
1141,3,-9,0,0,0,0,0,0
1142,2,-8,1,0,0,0,0,0
1143,3,-6,1,0,0,0,0,0
1144,1,-7,-2,0,0,0,0,0
1145,3,-10,-1,0,0,0,0,0
1146,2,-8,0,0,0,0,0,0
1147,3,-6,-2,0,0,0,0,0
1148,3,-7,0,0,0,0,0,0
1149,4,-8,0,0,0,0,0,0
1150,1,-9,-1,0,0,0,0,0
1151,2,-6,0,0,0,0,0,0
1152,3,-7,-1,0,0,0,0,0
1153,1,-8,-2,0,0,0,0,0
1154,5,-7,-1,0,0,0,0,0
1155,2,-8,-1,0,0,0,0,0
1156,3,-7,0,0,0,0,0,0
1157,2,-7,0,0,0,0,0,0
1158,2,-6,-1,0,0,0,0,0
1159,2,-8,1,0,0,0,0,0
1160,4,-6,-1,0,0,0,0,0
1161,2,-7,-1,0,0,0,0,0
1162,3,-6,-1,0,0,0,0,0
1163,1,-8,-1,0,0,0,0,0
1164,4,-7,0,0,0,0,0,0
1165,3,-8,-1,0,0,0,0,0
1166,2,-8,0,0,0,0,0,0
1167,2,-8,-1,0,0,0,0,0
1168,2,-7,-1,0,0,0,0,0
1169,3,-9,0,0,0,0,0,0
1170,2,-6,0,0,0,0,0,0
1171,3,-8,-1,0,0,0,0,0
1172,2,-7,1,0,0,0,0,0
1173,5,-6,0,0,0,0,0,0
1174,0,-7,-2,0,0,0,0,0
1175,4,-8,-2,0,0,0,0,0
1176,1,-8,0,0,0,0,0,0
1177,2,-7,-1,0,0,0,0,0
1178,-2,-7,-2,0,0,0,0,0
1179,-2,-7,0,0,0,0,0,0
1180,0,-8,0,0,0,0,0,0
1181,7,-6,-1,0,0,0,0,0
1182,1,-8,-2,0,0,0,0,0
1183,4,-7,0,0,0,0,0,0
1184,3,-8,-2,0,0,0,0,0
1185,3,-7,-1,0,0,0,0,0
1186,2,-8,0,0,0,0,0,0
1187,3,-7,-1,0,0,0,0,0
1188,5,-7,-1,0,0,0,0,0
1189,2,-8,0,0,0,0,0,0
1190,3,-8,-1,0,0,0,0,0
1191,1,-7,-1,0,0,0,0,0
1192,4,-7,0,0,0,0,0,0
1193,2,-9,0,0,0,0,0,0
1194,3,-8,0,0,0,0,0,0
1195,4,-6,0,0,0,0,0,0
1196,2,-7,0,0,0,0,0,0
1197,3,-7,-1,0,0,0,0,0
1198,0,-8,-2,0,0,0,0,0
1199,2,-7,0,0,0,0,0,0
1200,2,-7,-1,0,0,0,0,0
1201,2,-8,-1,0,0,0,0,0
1202,4,-9,1,0,0,0,0,0
1203,0,-6,0,0,0,0,0,0
1204,3,-9,-1,0,0,0,0,0
1205,1,-8,-1,0,0,0,0,0
1206,2,-7,1,0,0,0,0,0
1207,2,-7,-1,0,0,0,0,0
1208,4,-6,-1,0,0,0,0,0
1209,4,-8,-1,0,0,0,0,0
1210,1,-7,-1,0,0,0,0,0
1211,2,-8,-1,0,0,0,0,0
1212,2,-8,-1,0,0,0,0,0
1213,2,-7,-1,0,0,0,0,0
1214,1,-8,-1,0,0,0,0,0
1215,2,-6,-1,0,0,0,0,0
1216,0,-8,0,0,0,0,0,0
1217,2,-7,-1,0,0,0,0,0
1218,2,-8,-1,0,0,0,0,0
1219,1,-8,0,0,0,0,0,0
1220,4,-7,-2,0,0,0,0,0
1221,1,-6,-1,0,0,0,0,0
1222,4,-6,-1,0,0,0,0,0
1223,2,-9,-1,0,0,0,0,0
1224,2,-8,-1,0,0,0,0,0
1225,2,-8,0,0,0,0,0,0
1226,3,-8,0,0,0,0,0,0
1227,1,-6,0,0,0,0,0,0
1228,2,-8,-1,0,0,0,0,0
1229,1,-8,0,0,0,0,0,0
1230,3,-8,0,0,0,0,0,0
1231,2,-7,-1,0,0,0,0,0
1232,1,-6,-1,0,0,0,0,0
1233,3,-6,0,0,0,0,0,0
1234,1,-7,0,0,0,0,0,0
1235,2,-7,0,0,0,0,0,0
1236,4,-7,-1,0,0,0,0,0
1237,1,-8,-1,0,0,0,0,0
1238,3,-6,-1,0,0,0,0,0
1239,1,-9,0,0,0,0,0,0
1240,4,-7,0,0,0,0,0,0
1241,2,-6,0,0,0,0,0,0
1242,4,-6,-1,0,0,0,0,0
1243,2,-8,0,0,0,0,0,0
1244,4,-7,-1,0,0,0,0,0
1245,1,-7,0,0,0,0,0,0
1246,4,-7,-1,0,0,0,0,0
1247,2,-7,-2,0,0,0,0,0
1248,2,-7,-1,0,0,0,0,0
1249,2,-7,0,0,0,0,0,0
1250,4,-7,1,0,0,0,0,0
1251,4,-6,-1,0,0,0,0,0
1252,2,-8,0,0,0,0,0,0
1253,3,-6,-1,0,0,0,0,0
1254,3,-6,1,0,0,0,0,0
1255,5,-8,0,0,0,0,0,0
1256,3,-8,0,0,0,0,0,0
1257,4,-7,-1,0,0,0,0,0
1258,3,-7,0,0,0,0,0,0
1259,4,-7,-1,0,0,0,0,0
1260,4,-9,-256,0,0,0,0,0
1261,1,-7,0,0,0,0,0,0
1262,3,-7,-2,0,0,0,0,0
1263,2,-7,0,0,0,0,0,0
1264,4,-8,-1,0,0,0,0,0
1265,2,-7,1,0,0,0,0,0
1266,4,-6,-2,0,0,0,0,0
1267,3,-8,0,0,0,0,0,0
1268,3,-7,0,0,0,0,0,0
1269,2,-8,-1,0,0,0,0,0
1270,3,-5,-1,0,0,0,0,0
1271,3,-7,-1,0,0,0,0,0
1272,4,-7,0,0,0,0,0,0
1273,3,-8,1,0,0,0,0,0
1274,2,-8,-1,0,0,0,0,0
1275,3,-8,0,0,0,0,0,0
1276,2,-7,0,0,0,0,0,0
1277,2,-7,-1,0,0,0,0,0
1278,2,-9,255,0,0,0,0,0
1279,-1,-8,-1,0,0,0,0,0
1280,1,-8,-1,0,0,0,0,0
1281,4,-7,-1,0,0,0,0,0
1282,1,-8,0,0,0,0,0,0
1283,3,-8,0,0,0,0,0,0
1284,4,-9,0,0,0,0,0,0
1285,2,-7,1,0,0,0,0,0
1286,3,-7,-1,0,0,0,0,0
1287,3,-8,1,0,0,0,0,0
1288,2,-7,-1,0,0,0,0,0
1289,3,-7,-1,0,0,0,0,0
1290,5,-8,-1,0,0,0,0,0
1291,2,-8,-2,0,0,0,0,0
1292,4,-8,-1,0,0,0,0,0
1293,2,-7,-1,0,0,0,0,0
1294,1,-8,-1,0,0,0,0,0
1295,2,-7,1,0,0,0,0,0
1296,2,-9,0,0,0,0,0,0
1297,2,-7,-1,0,0,0,0,0
1298,4,-7,-1,0,0,0,0,0
1299,4,-6,0,0,0,0,0,0
1300,2,-7,0,0,0,0,0,0
1301,3,-8,-1,0,0,0,0,0
1302,3,-7,1,0,0,0,0,0
1303,1,-9,-1,0,0,0,0,0
1304,4,-7,-1,0,0,0,0,0
1305,6,-8,0,0,0,0,0,0
1306,1,-7,-1,0,0,0,0,0
1307,2,-7,-2,0,0,0,0,0
1308,2,-7,0,0,0,0,0,0
1309,2,-6,0,0,0,0,0,0
1310,3,-6,0,0,0,0,0,0
1311,4,-9,0,0,0,0,0,0
1312,3,-8,-1,0,0,0,0,0
1313,3,-7,-1,0,0,0,0,0
1314,3,-9,0,0,0,0,0,0
1315,3,-7,-1,0,0,0,0,0
1316,1,-8,-1,0,0,0,0,0
1317,4,-8,-1,0,0,0,0,0
1318,2,-8,-1,0,0,0,0,0
1319,1,-9,-1,0,0,0,0,0
1320,0,-6,0,0,0,0,0,0
1321,2,-7,0,0,0,0,0,0
1322,-1,-8,-256,0,0,0,0,0
1323,2,-6,-1,0,0,0,0,0
1324,2,-7,0,0,0,0,0,0
1325,4,-7,-1,0,0,0,0,0
1326,3,-8,1,0,0,0,0,0
1327,3,-6,0,0,0,0,0,0
1328,3,-8,1,0,0,0,0,0
1329,2,-7,0,0,0,0,0,0
1330,2,-9,-256,0,0,0,0,0
1331,1,-7,0,0,0,0,0,0
1332,6,-9,-1,0,0,0,0,0
1333,1,-8,-1,0,0,0,0,0
1334,1,-7,0,0,0,0,0,0
1335,3,-7,0,0,0,0,0,0
1336,4,-8,0,0,0,0,0,0
1337,5,-8,0,0,0,0,0,0
1338,1,-6,-2,0,0,0,0,0
1339,1,-8,0,0,0,0,0,0
1340,3,-8,0,0,0,0,0,0
1341,3,-7,-1,0,0,0,0,0
1342,2,-7,-1,0,0,0,0,0
1343,2,-9,-1,0,0,0,0,0
1344,7,-7,0,0,0,0,0,0
1345,6,-8,1,0,0,0,0,0
1346,-2,-8,0,0,0,0,0,0
1347,5,-8,-3,0,0,0,0,0
1348,2,-8,0,0,0,0,0,0
1349,6,-8,255,0,0,0,0,0
1350,2,-7,0,0,0,0,0,0
1351,3,-7,-1,0,0,0,0,0
1352,-2,-8,-1,0,0,0,0,0
1353,3,-7,-1,0,0,0,0,0
1354,3,-9,0,0,0,0,0,0
1355,1,-7,-1,0,0,0,0,0
1356,7,-7,-1,0,0,0,0,0
1357,4,-8,0,0,0,0,0,0
1358,1,-6,-1,0,0,0,0,0
1359,4,-7,-1,0,0,0,0,0
1360,1,-6,0,0,0,0,0,0
1361,4,-7,0,0,0,0,0,0
1362,-1,-5,-1,0,0,0,0,0
1363,2,-9,0,0,0,0,0,0
1364,1,-9,-1,0,0,0,0,0
1365,1,-7,-1,0,0,0,0,0
1366,4,-7,1,0,0,0,0,0
1367,-2,-7,-1,0,0,0,0,0
1368,3,-6,-2,0,0,0,0,0
1369,6,-5,0,0,0,0,0,0
1370,3,-9,-2,0,0,0,0,0
1371,0,-8,-1,0,0,0,0,0
1372,4,-5,1,0,0,0,0,0
1373,4,-7,-2,0,0,0,0,0
1374,0,-7,0,0,0,0,0,0
1375,2,-8,0,0,0,0,0,0
1376,4,-9,-1,0,0,0,0,0
1377,0,-6,-1,0,0,0,0,0
1378,4,-8,-1,0,0,0,0,0
1379,0,-8,-1,0,0,0,0,0
1380,2,-7,-1,0,0,0,0,0
1381,1,-6,0,0,0,0,0,0
1382,4,-9,-1,0,0,0,0,0
1383,1,-8,-1,0,0,0,0,0
1384,2,-8,-1,0,0,0,0,0
1385,2,-7,-1,0,0,0,0,0
1386,3,-8,0,0,0,0,0,0
1387,3,-8,-2,0,0,0,0,0
1388,3,-9,-1,0,0,0,0,0
1389,2,-7,-1,0,0,0,0,0
1390,3,-7,-1,0,0,0,0,0
1391,2,-8,1,0,0,0,0,0
1392,4,-9,0,0,0,0,0,0
1393,4,-7,-1,0,0,0,0,0
1394,3,-7,1,0,0,0,0,0
1395,3,-9,1,0,0,0,0,0
1396,3,-8,0,0,0,0,0,0
1397,2,-7,0,0,0,0,0,0
1398,3,-7,-1,0,0,0,0,0
1399,1,-7,0,0,0,0,0,0
1400,2,-9,0,0,0,0,0,0
1401,3,-8,1,0,0,0,0,0
1402,2,-7,1,0,0,0,0,0
1403,2,-7,0,0,0,0,0,0
1404,4,-6,0,0,0,0,0,0
1405,1,-9,0,0,0,0,0,0
1406,2,-8,0,0,0,0,0,0
1407,2,-7,0,0,0,0,0,0
1408,3,-8,-1,0,0,0,0,0
1409,2,-8,0,0,0,0,0,0
1410,2,-7,0,0,0,0,0,0
1411,3,-7,0,0,0,0,0,0
1412,1,-6,-1,0,0,0,0,0
1413,4,-7,0,0,0,0,0,0
1414,3,-9,-1,0,0,0,0,0
1415,2,-8,-1,0,0,0,0,0
1416,3,-6,-1,0,0,0,0,0
1417,3,-8,-1,0,0,0,0,0
1418,3,-8,-1,0,0,0,0,0
1419,1,-7,0,0,0,0,0,0
1420,2,-6,-1,0,0,0,0,0
1421,2,-9,0,0,0,0,0,0
1422,4,-6,0,0,0,0,0,0
1423,3,-8,-1,0,0,0,0,0
1424,3,-9,0,0,0,0,0,0
1425,2,-7,0,0,0,0,0,0
1426,2,-7,-2,0,0,0,0,0
1427,4,-9,0,0,0,0,0,0
1428,1,-8,-1,0,0,0,0,0
1429,1,-7,-1,0,0,0,0,0
1430,5,-7,1,0,0,0,0,0
1431,3,-8,-1,0,0,0,0,0
1432,1,-7,-1,0,0,0,0,0
1433,2,-7,-1,0,0,0,0,0
1434,1,-8,-2,0,0,0,0,0
1435,3,-8,0,0,0,0,0,0
1436,3,-6,0,0,0,0,0,0
1437,4,-9,0,0,0,0,0,0
1438,2,-7,0,0,0,0,0,0
1439,3,-7,0,0,0,0,0,0
1440,0,-7,0,0,0,0,0,0
1441,2,-8,-1,0,0,0,0,0
1442,3,-7,-1,0,0,0,0,0
1443,0,-9,0,0,0,0,0,0
1444,3,-7,-1,0,0,0,0,0
1445,3,-8,0,0,0,0,0,0
1446,4,-8,0,0,0,0,0,0
1447,3,-7,0,0,0,0,0,0
1448,2,-7,-1,0,0,0,0,0
1449,3,-8,0,0,0,0,0,0
1450,6,-7,1,0,0,0,0,0
1451,4,-7,-1,0,0,0,0,0
1452,2,-8,-1,0,0,0,0,0
1453,4,-8,0,0,0,0,0,0
1454,3,-7,0,0,0,0,0,0
1455,1,-8,0,0,0,0,0,0
1456,3,-8,-1,0,0,0,0,0
1457,1,-8,0,0,0,0,0,0
1458,3,-8,0,0,0,0,0,0
1459,3,-9,-1,0,0,0,0,0
1460,3,-7,0,0,0,0,0,0
1461,1,-7,-1,0,0,0,0,0
1462,3,-7,-1,0,0,0,0,0
1463,2,-7,0,0,0,0,0,0
1464,2,-7,1,0,0,0,0,0
1465,3,-8,-1,0,0,0,0,0
1466,2,-6,-1,0,0,0,0,0
1467,1,-7,-1,0,0,0,0,0
1468,3,-7,0,0,0,0,0,0
1469,1,-6,-1,0,0,0,0,0
1470,2,-6,-1,0,0,0,0,0
1471,2,-7,255,0,0,0,0,0
1472,2,-7,-2,0,0,0,0,0
1473,3,-8,0,0,0,0,0,0
1474,4,-7,1,0,0,0,0,0
1475,1,-7,-1,0,0,0,0,0
1476,2,-8,-1,0,0,0,0,0
1477,3,-7,0,0,0,0,0,0
1478,1,-7,0,0,0,0,0,0
1479,3,-8,0,0,0,0,0,0
1480,3,-7,0,0,0,0,0,0
1481,3,-7,0,0,0,0,0,0
1482,2,-8,0,0,0,0,0,0
1483,1,-8,0,0,0,0,0,0
1484,3,-6,0,0,0,0,0,0
1485,3,-8,0,0,0,0,0,0
1486,4,-7,0,0,0,0,0,0
1487,2,-7,-1,0,0,0,0,0
1488,2,-8,0,0,0,0,0,0
1489,3,-8,-1,0,0,0,0,0
1490,2,-7,0,0,0,0,0,0
1491,3,-9,0,0,0,0,0,0
1492,3,-7,-1,0,0,0,0,0
1493,2,-8,-1,0,0,0,0,0
1494,3,-6,-1,0,0,0,0,0
1495,2,-7,-1,0,0,0,0,0
1496,3,-8,0,0,0,0,0,0
1497,4,-8,0,0,0,0,0,0
1498,3,-7,0,0,0,0,0,0
1499,2,-8,0,0,0,0,0,0
1500,5,-7,0,0,0,0,0,0
1501,1,-8,0,0,0,0,0,0
1502,3,-7,-1,0,0,0,0,0
1503,4,-7,-1,0,0,0,0,0
1504,3,-7,0,0,0,0,0,0
1505,4,-7,-1,0,0,0,0,0
1506,4,-7,-2,0,0,0,0,0
1507,2,-6,-1,0,0,0,0,0
1508,4,-7,0,0,0,0,0,0
1509,1,-7,1,0,0,0,0,0
1510,3,-8,0,0,0,0,0,0
1511,3,-8,0,0,0,0,0,0
1512,3,-8,0,0,0,0,0,0
1513,3,-7,0,0,0,0,0,0
1514,2,-7,-1,0,0,0,0,0
1515,2,-8,-1,0,0,0,0,0
1516,3,-9,-1,0,0,0,0,0
1517,3,-7,-1,0,0,0,0,0
1518,3,-7,0,0,0,0,0,0
1519,2,-6,-1,0,0,0,0,0
1520,45,0,-1,0,0,0,0,0
1521,-4,-10,-2,0,0,0,0,0
1522,7,-10,0,0,0,0,0,0
1523,5,-6,-2,0,0,0,0,0
1524,2,-7,-1,0,0,0,0,0
1525,6,-8,-1,0,0,0,0,0
1526,4,-5,-2,0,0,0,0,0
1527,2,-9,0,0,0,0,0,0
1528,4,-7,0,0,0,0,0,0
1529,1,-9,0,0,0,0,0,0
1530,1,-6,-1,0,0,0,0,0
1531,2,-7,0,0,0,0,0,0
1532,5,-8,-1,0,0,0,0,0
1533,0,-7,0,0,0,0,0,0
1534,3,-6,-1,0,0,0,0,0
1535,4,-7,-1,0,0,0,0,0
1536,3,-8,-1,0,0,0,0,0
1537,3,-8,1,0,0,0,0,0
1538,2,-7,0,0,0,0,0,0
1539,2,-8,-2,0,0,0,0,0
1540,3,-7,0,0,0,0,0,0
1541,4,-7,1,0,0,0,0,0
1542,3,-7,0,0,0,0,0,0
1543,2,-7,0,0,0,0,0,0
1544,2,-7,0,0,0,0,0,0
1545,2,-7,-2,0,0,0,0,0
1546,2,-7,0,0,0,0,0,0
1547,3,-8,0,0,0,0,0,0
1548,3,-8,-1,0,0,0,0,0
1549,3,-7,-1,0,0,0,0,0
1550,4,-7,-1,0,0,0,0,0
1551,2,-6,-1,0,0,0,0,0
1552,1,-8,0,0,0,0,0,0
1553,3,-7,-1,0,0,0,0,0
1554,1,-8,0,0,0,0,0,0
1555,1,-8,0,0,0,0,0,0
1556,3,-8,0,0,0,0,0,0
1557,3,-7,-1,0,0,0,0,0
1558,1,-8,-2,0,0,0,0,0
1559,4,-9,1,0,0,0,0,0
1560,2,-7,1,0,0,0,0,0
1561,1,-7,0,0,0,0,0,0
1562,3,-8,-1,0,0,0,0,0
1563,3,-7,1,0,0,0,0,0
1564,2,-6,0,0,0,0,0,0
1565,2,-8,0,0,0,0,0,0
1566,3,-7,-1,0,0,0,0,0
1567,4,-6,0,0,0,0,0,0
1568,2,-6,-1,0,0,0,0,0
1569,2,-7,-1,0,0,0,0,0
1570,2,-7,-1,0,0,0,0,0
1571,2,-7,-1,0,0,0,0,0
1572,3,-6,0,0,0,0,0,0
1573,2,-8,0,0,0,0,0,0
1574,3,-7,-1,0,0,0,0,0
1575,2,-7,0,0,0,0,0,0
1576,2,-7,0,0,0,0,0,0
1577,3,-9,0,0,0,0,0,0
1578,3,-8,-2,0,0,0,0,0
1579,6,-6,-2,0,0,0,0,0
1580,2,-7,0,0,0,0,0,0
1581,3,-6,0,0,0,0,0,0
1582,1,-8,1,0,0,0,0,0
1583,4,-7,1,0,0,0,0,0
1584,5,-7,0,0,0,0,0,0
1585,3,-7,0,0,0,0,0,0
1586,4,-7,0,0,0,0,0,0
1587,2,-7,0,0,0,0,0,0
1588,3,-7,0,0,0,0,0,0
1589,2,-7,-2,0,0,0,0,0
1590,3,-9,1,0,0,0,0,0
1591,3,-7,0,0,0,0,0,0
1592,4,-7,0,0,0,0,0,0
1593,2,-7,-1,0,0,0,0,0
1594,3,-7,0,0,0,0,0,0
1595,3,-7,-1,0,0,0,0,0
1596,4,-8,-1,0,0,0,0,0
1597,1,-7,-1,0,0,0,0,0
1598,4,-7,-1,0,0,0,0,0
1599,3,-8,-2,0,0,0,0,0
1600,3,-8,-1,0,0,0,0,0
1601,1,-7,1,0,0,0,0,0
1602,3,-7,0,0,0,0,0,0
1603,2,-6,-1,0,0,0,0,0
1604,2,-7,-1,0,0,0,0,0
1605,2,-7,1,0,0,0,0,0
1606,3,-8,0,0,0,0,0,0
1607,3,-8,0,0,0,0,0,0
1608,2,-8,-1,0,0,0,0,0
1609,3,-6,0,0,0,0,0,0
1610,1,-7,0,0,0,0,0,0
1611,3,-8,-1,0,0,0,0,0
1612,2,-7,-1,0,0,0,0,0
1613,5,-8,-1,0,0,0,0,0
1614,1,-7,-1,0,0,0,0,0
1615,4,-8,0,0,0,0,0,0
1616,3,-9,1,0,0,0,0,0
1617,3,-7,-1,0,0,0,0,0
1618,3,-7,0,0,0,0,0,0
1619,3,-7,0,0,0,0,0,0
1620,3,-8,-1,0,0,0,0,0
1621,2,-8,0,0,0,0,0,0
1622,1,-7,-1,0,0,0,0,0
1623,5,-7,1,0,0,0,0,0
1624,4,-7,0,0,0,0,0,0
1625,0,-8,0,0,0,0,0,0
1626,5,-8,0,0,0,0,0,0
1627,3,-8,255,0,0,0,0,0
1628,3,-7,-1,0,0,0,0,0
1629,2,-7,0,0,0,0,0,0
1630,3,-7,0,0,0,0,0,0
1631,3,-7,-1,0,0,0,0,0
1632,4,-7,0,0,0,0,0,0
1633,1,-8,0,0,0,0,0,0
1634,4,-7,1,0,0,0,0,0
1635,2,-7,0,0,0,0,0,0
1636,2,-8,-1,0,0,0,0,0
1637,2,-6,-1,0,0,0,0,0
1638,2,-7,0,0,0,0,0,0
1639,2,-6,-1,0,0,0,0,0
1640,2,-8,0,0,0,0,0,0
1641,3,-7,0,0,0,0,0,0
1642,2,-7,-1,0,0,0,0,0
1643,2,-7,-1,0,0,0,0,0
1644,3,-8,0,0,0,0,0,0
1645,1,-7,0,0,0,0,0,0
1646,3,-7,1,0,0,0,0,0
1647,3,-8,0,0,0,0,0,0
1648,1,-7,1,0,0,0,0,0
1649,4,-6,0,0,0,0,0,0
1650,3,-7,0,0,0,0,0,0
1651,1,-6,0,0,0,0,0,0
1652,3,-7,0,0,0,0,0,0
1653,0,-6,0,0,0,0,0,0
1654,2,-7,-2,0,0,0,0,0
1655,2,-7,-2,0,0,0,0,0
1656,4,-8,-2,0,0,0,0,0
1657,0,-7,-1,0,0,0,0,0
1658,1,-8,-2,0,0,0,0,0
1659,2,-6,-1,0,0,0,0,0
1660,0,-6,-1,0,0,0,0,0
1661,4,-8,-1,0,0,0,0,0
1662,2,-8,-1,0,0,0,0,0
1663,0,-9,0,0,0,0,0,0
1664,0,-8,0,0,0,0,0,0
1665,0,-10,1,0,0,0,0,0
1666,7,-7,-2,0,0,0,0,0
1667,3,-8,0,0,0,0,0,0
1668,5,-5,0,0,0,0,0,0
1669,3,-7,0,0,0,0,0,0
1670,5,-8,-1,0,0,0,0,0
1671,1,-8,0,0,0,0,0,0
1672,3,-7,-1,0,0,0,0,0
1673,2,-9,-1,0,0,0,0,0
1674,3,-7,0,0,0,0,0,0
1675,3,-8,-1,0,0,0,0,0
1676,4,-7,-1,0,0,0,0,0
1677,3,-7,-1,0,0,0,0,0
1678,3,-6,0,0,0,0,0,0
1679,3,-8,-1,0,0,0,0,0
1680,3,-6,-256,0,0,0,0,0
1681,4,-8,0,0,0,0,0,0
1682,1,-8,0,0,0,0,0,0
1683,4,-8,0,0,0,0,0,0
1684,1,-8,-1,0,0,0,0,0
1685,5,-8,0,0,0,0,0,0
1686,2,-8,0,0,0,0,0,0
1687,2,-6,-1,0,0,0,0,0
1688,2,-8,0,0,0,0,0,0
1689,2,-8,-1,0,0,0,0,0
1690,1,-7,-1,0,0,0,0,0
1691,4,-8,-1,0,0,0,0,0
1692,-2,-7,-2,0,0,0,0,0
1693,11,-5,1,0,0,0,0,0
1694,10,-7,0,0,0,0,0,0
1695,2,-7,-1,0,0,0,0,0
1696,8,-7,0,0,0,0,0,0
1697,1,-9,-1,0,0,0,0,0
1698,2,-7,0,0,0,0,0,0
1699,3,-7,-1,0,0,0,0,0
1700,2,-7,0,0,0,0,0,0
1701,1,-8,-1,0,0,0,0,0
1702,3,-7,0,0,0,0,0,0
1703,1,-8,0,0,0,0,0,0
1704,2,-7,0,0,0,0,0,0
1705,2,-8,-1,0,0,0,0,0
1706,1,-7,0,0,0,0,0,0
1707,1,-7,0,0,0,0,0,0
1708,4,-8,0,0,0,0,0,0
1709,2,-7,-2,0,0,0,0,0
1710,4,-8,0,0,0,0,0,0
1711,3,-7,0,0,0,0,0,0
1712,3,-7,0,0,0,0,0,0
1713,2,-7,-1,0,0,0,0,0
1714,5,-8,0,0,0,0,0,0
1715,1,-7,0,0,0,0,0,0
1716,2,-9,-1,0,0,0,0,0
1717,1,-7,-1,0,0,0,0,0
1718,3,-7,-1,0,0,0,0,0
1719,2,-7,-1,0,0,0,0,0
1720,1,-7,255,0,0,0,0,0
1721,1,-7,-1,0,0,0,0,0
1722,2,-10,0,0,0,0,0,0
1723,3,-6,-1,0,0,0,0,0
1724,2,-7,-1,0,0,0,0,0
1725,2,-8,-1,0,0,0,0,0
1726,1,-6,1,0,0,0,0,0
1727,3,-7,0,0,0,0,0,0
1728,3,-6,-1,0,0,0,0,0
1729,1,-8,1,0,0,0,0,0
1730,2,-7,-1,0,0,0,0,0
1731,4,-8,-1,0,0,0,0,0
1732,2,-8,-2,0,0,0,0,0
1733,2,-8,1,0,0,0,0,0
1734,5,-7,0,0,0,0,0,0
1735,4,-8,0,0,0,0,0,0
1736,1,-6,1,0,0,0,0,0
1737,2,-8,-2,0,0,0,0,0
1738,1,-6,-1,0,0,0,0,0
1739,5,-7,0,0,0,0,0,0
1740,2,-8,-2,0,0,0,0,0
1741,2,-8,-1,0,0,0,0,0
1742,1,-8,1,0,0,0,0,0
1743,2,-7,0,0,0,0,0,0
1744,3,-8,-1,0,0,0,0,0
1745,2,-6,-1,0,0,0,0,0
1746,2,-8,0,0,0,0,0,0
1747,0,-7,0,0,0,0,0,0
1748,1,-8,0,0,0,0,0,0
1749,3,-8,0,0,0,0,0,0
1750,4,-6,-2,0,0,0,0,0
1751,0,-6,0,0,0,0,0,0
1752,4,-5,0,0,0,0,0,0
1753,3,-7,0,0,0,0,0,0
1754,7,-7,-1,0,0,0,0,0
1755,4,-7,-1,0,0,0,0,0
1756,-1,-7,-1,0,0,0,0,0
1757,12,-7,-1,0,0,0,0,0
1758,5,-7,0,0,0,0,0,0
1759,4,-9,0,0,0,0,0,0
1760,2,-7,0,0,0,0,0,0
1761,2,-9,0,0,0,0,0,0
1762,3,-7,-1,0,0,0,0,0
1763,2,-7,-1,0,0,0,0,0
1764,3,-7,0,0,0,0,0,0
1765,2,-7,0,0,0,0,0,0
1766,2,-8,0,0,0,0,0,0
1767,0,-7,0,0,0,0,0,0
1768,4,-6,0,0,0,0,0,0
1769,0,-6,0,0,0,0,0,0
1770,4,-8,0,0,0,0,0,0
1771,1,-7,0,0,0,0,0,0
1772,3,-8,-2,0,0,0,0,0
1773,0,-7,0,0,0,0,0,0
1774,3,-8,0,0,0,0,0,0
1775,2,-7,0,0,0,0,0,0
1776,4,-9,-1,0,0,0,0,0
1777,2,-6,0,0,0,0,0,0
1778,4,-7,0,0,0,0,0,0
1779,4,-7,-1,0,0,0,0,0
1780,4,-8,0,0,0,0,0,0
1781,1,-7,-1,0,0,0,0,0
1782,5,-8,0,0,0,0,0,0
1783,2,-7,0,0,0,0,0,0
1784,1,-9,0,0,0,0,0,0
1785,2,-8,-1,0,0,0,0,0
1786,4,-7,1,0,0,0,0,0
1787,3,-6,0,0,0,0,0,0
1788,4,-8,-1,0,0,0,0,0
1789,2,-8,1,0,0,0,0,0
1790,3,-7,-1,0,0,0,0,0
1791,2,-6,-1,0,0,0,0,0
1792,3,-7,0,0,0,0,0,0
1793,5,-7,0,0,0,0,0,0
1794,2,-8,0,0,0,0,0,0
1795,2,-8,0,0,0,0,0,0
1796,3,-8,-1,0,0,0,0,0
1797,3,-6,-2,0,0,0,0,0
1798,3,-7,0,0,0,0,0,0
1799,1,-7,0,0,0,0,0,0
1800,3,-10,-1,0,0,0,0,0
1801,3,-7,0,0,0,0,0,0
1802,4,-8,-1,0,0,0,0,0
1803,4,-7,1,0,0,0,0,0
1804,3,-8,-1,0,0,0,0,0
1805,3,-8,1,0,0,0,0,0
1806,3,-7,-1,0,0,0,0,0
1807,2,-7,0,0,0,0,0,0
1808,4,-9,1,0,0,0,0,0
1809,2,-8,-1,0,0,0,0,0
1810,4,-7,0,0,0,0,0,0
1811,3,-7,-1,0,0,0,0,0
1812,4,-8,0,0,0,0,0,0
1813,3,-6,0,0,0,0,0,0
1814,3,-7,0,0,0,0,0,0
1815,2,-9,1,0,0,0,0,0
1816,2,-7,-1,0,0,0,0,0
1817,2,-7,1,0,0,0,0,0
1818,2,-6,-1,0,0,0,0,0
1819,2,-7,0,0,0,0,0,0
1820,4,-8,1,0,0,0,0,0
1821,3,-6,-2,0,0,0,0,0
1822,5,-8,-1,0,0,0,0,0
1823,2,-7,-1,0,0,0,0,0
1824,3,-7,1,0,0,0,0,0
1825,2,-7,0,0,0,0,0,0
1826,3,-7,-1,0,0,0,0,0
1827,1,-6,0,0,0,0,0,0
1828,2,-7,-1,0,0,0,0,0
1829,4,-9,-1,0,0,0,0,0
1830,2,-7,0,0,0,0,0,0
1831,3,-8,0,0,0,0,0,0
1832,3,-7,0,0,0,0,0,0
1833,1,-9,1,0,0,0,0,0
1834,7,-6,0,0,0,0,0,0
1835,-2,-6,0,0,0,0,0,0
1836,2,-7,0,0,0,0,0,0
1837,4,-8,-1,0,0,0,0,0
1838,5,-6,1,0,0,0,0,0
1839,2,-8,-1,0,0,0,0,0
1840,3,-7,0,0,0,0,0,0
1841,2,-7,0,0,0,0,0,0
1842,2,-6,0,0,0,0,0,0
1843,2,-7,1,0,0,0,0,0
1844,3,-7,-1,0,0,0,0,0
1845,2,-7,-1,0,0,0,0,0
1846,1,-7,-1,0,0,0,0,0
1847,2,-8,1,0,0,0,0,0
1848,1,-7,0,0,0,0,0,0
1849,3,-9,0,0,0,0,0,0
1850,5,-7,-2,0,0,0,0,0
1851,-5,-10,3,0,0,0,0,0
1852,13,-7,-2,0,0,0,0,0
1853,6,-6,-3,0,0,0,0,0
1854,-2,-7,2,0,0,0,0,0
1855,5,-7,0,0,0,0,0,0
1856,10,-4,0,0,0,0,0,0
1857,-11,-12,-4,0,0,0,0,0
1858,-13,-8,-1,0,0,0,0,0
1859,5,-6,0,0,0,0,0,0
1860,6,-8,-1,0,0,0,0,0
1861,1,-6,1,0,0,0,0,0
1862,1,-7,1,0,0,0,0,0
1863,2,-7,0,0,0,0,0,0
1864,0,-8,0,0,0,0,0,0
1865,0,-8,-1,0,0,0,0,0
1866,5,-6,-1,0,0,0,0,0
1867,3,-7,1,0,0,0,0,0
1868,3,-7,-3,0,0,0,0,0
1869,5,-7,1,0,0,0,0,0
1870,3,-8,0,0,0,0,0,0
1871,5,-6,0,0,0,0,0,0
1872,-2,-7,-1,0,0,0,0,0
1873,1,-8,-1,0,0,0,0,0
1874,4,-7,-2,0,0,0,0,0
1875,4,-7,0,0,0,0,0,0
1876,2,-8,-1,0,0,0,0,0
1877,1,-8,0,0,0,0,0,0
1878,2,-8,0,0,0,0,0,0
1879,2,-8,0,0,0,0,0,0
1880,0,-8,-1,0,0,0,0,0
1881,3,-7,-1,0,0,0,0,0
1882,2,-8,-1,0,0,0,0,0
1883,2,-8,0,0,0,0,0,0
1884,2,-6,-1,0,0,0,0,0
1885,3,-8,0,0,0,0,0,0
1886,3,-8,-1,0,0,0,0,0
1887,3,-7,-1,0,0,0,0,0
1888,2,-9,0,0,0,0,0,0
1889,2,-7,-1,0,0,0,0,0
1890,3,-9,-1,0,0,0,0,0
1891,3,-6,-1,0,0,0,0,0
1892,5,-7,-1,0,0,0,0,0
1893,3,-8,-1,0,0,0,0,0
1894,4,-8,-1,0,0,0,0,0
1895,4,-8,-1,0,0,0,0,0
1896,1,-6,-2,0,0,0,0,0
1897,4,-8,1,0,0,0,0,0
1898,3,-8,0,0,0,0,0,0
1899,1,-7,0,0,0,0,0,0
1900,2,-7,0,0,0,0,0,0
1901,2,-7,1,0,0,0,0,0
1902,2,-7,1,0,0,0,0,0
1903,6,-7,-1,0,0,0,0,0
1904,5,-6,-1,0,0,0,0,0
1905,3,-6,0,0,0,0,0,0
1906,2,-7,0,0,0,0,0,0
1907,4,-7,0,0,0,0,0,0
1908,3,-7,-1,0,0,0,0,0
1909,2,-7,-1,0,0,0,0,0
1910,2,-8,-1,0,0,0,0,0
1911,2,-7,0,0,0,0,0,0
1912,-1,-7,0,0,0,0,0,0
1913,2,-9,0,0,0,0,0,0
1914,2,-7,-1,0,0,0,0,0
1915,2,-8,-1,0,0,0,0,0
1916,3,-8,-1,0,0,0,0,0
1917,4,-7,0,0,0,0,0,0
1918,2,-8,-1,0,0,0,0,0
1919,1,-8,0,0,0,0,0,0
1920,3,-8,-1,0,0,0,0,0
1921,2,-8,0,0,0,0,0,0
1922,1,-8,0,0,0,0,0,0
1923,1,-7,0,0,0,0,0,0
1924,1,-7,1,0,0,0,0,0
1925,4,-7,-1,0,0,0,0,0
1926,0,-8,-1,0,0,0,0,0
1927,2,-7,0,0,0,0,0,0
1928,2,-8,0,0,0,0,0,0
1929,0,-9,0,0,0,0,0,0
1930,3,-7,1,0,0,0,0,0
1931,2,-7,0,0,0,0,0,0
1932,4,-7,-1,0,0,0,0,0
1933,2,-7,0,0,0,0,0,0
1934,2,-8,0,0,0,0,0,0
1935,2,-7,-1,0,0,0,0,0
1936,2,-7,-2,0,0,0,0,0
1937,3,-7,1,0,0,0,0,0
1938,1,-9,0,0,0,0,0,0
1939,2,-7,-1,0,0,0,0,0
1940,3,-8,-1,0,0,0,0,0
1941,0,-7,1,0,0,0,0,0
1942,-5,-7,-4,0,0,0,0,0
1943,6,-9,2,0,0,0,0,0
1944,2,-6,3,0,0,0,0,0
1945,0,-8,1,0,0,0,0,0
1946,2,-8,-2,0,0,0,0,0
1947,2,-6,-2,0,0,0,0,0
1948,5,-7,0,0,0,0,0,0
1949,4,-8,0,0,0,0,0,0
1950,5,-9,0,0,0,0,0,0
1951,2,-6,-1,0,0,0,0,0
1952,3,-7,0,0,0,0,0,0
1953,2,-8,-1,0,0,0,0,0
1954,3,-7,-1,0,0,0,0,0
1955,2,-9,0,0,0,0,0,0
1956,4,-8,-1,0,0,0,0,0
1957,4,-6,-1,0,0,0,0,0
1958,-1,-5,0,0,0,0,0,0
1959,0,-7,-1,0,0,0,0,0
1960,4,-7,-1,0,0,0,0,0
1961,0,-7,1,0,0,0,0,0
1962,3,-7,0,0,0,0,0,0
1963,2,-6,0,0,0,0,0,0
1964,3,-7,0,0,0,0,0,0
1965,1,-7,-1,0,0,0,0,0
1966,3,-9,-1,0,0,0,0,0
1967,3,-8,1,0,0,0,0,0
1968,4,-8,-1,0,0,0,0,0
1969,2,-8,0,0,0,0,0,0
1970,2,-7,0,0,0,0,0,0
1971,3,-8,-1,0,0,0,0,0
1972,1,-7,-1,0,0,0,0,0
1973,4,-8,-1,0,0,0,0,0
1974,3,-8,-1,0,0,0,0,0
1975,2,-7,0,0,0,0,0,0
1976,2,-6,-1,0,0,0,0,0
1977,1,-9,-1,0,0,0,0,0
1978,2,-7,0,0,0,0,0,0
1979,3,-8,0,0,0,0,0,0
1980,1,-6,0,0,0,0,0,0
1981,4,-7,0,0,0,0,0,0
1982,3,-8,-1,0,0,0,0,0
1983,2,-7,0,0,0,0,0,0
1984,5,-5,1,0,0,0,0,0
1985,2,-7,-2,0,0,0,0,0
1986,1,-6,-2,0,0,0,0,0
1987,5,-6,-2,0,0,0,0,0
1988,0,-7,0,0,0,0,0,0
1989,3,-9,0,0,0,0,0,0
1990,4,-7,-1,0,0,0,0,0
1991,1,-7,0,0,0,0,0,0
1992,1,-5,0,0,0,0,0,0
1993,0,-8,-1,0,0,0,0,0
1994,3,-9,0,0,0,0,0,0
1995,1,-12,-1,0,0,0,0,0
1996,2,-11,0,0,0,0,0,0
1997,1,-7,-2,0,0,0,0,0
1998,4,-9,-1,0,0,0,0,0
1999,3,-10,0,0,0,0,0,0
2000,5,-8,0,0,0,0,0,0
2001,-3,-7,-1,0,0,0,0,0
2002,3,-6,-1,0,0,0,0,0
2003,3,-7,255,0,0,0,0,0
2004,1,-6,-1,0,0,0,0,0
2005,2,-7,0,0,0,0,0,0
2006,2,-8,-1,0,0,0,0,0
2007,4,-7,-1,0,0,0,0,0
2008,2,-7,-1,0,0,0,0,0
2009,2,-8,0,0,0,0,0,0
2010,3,-7,-1,0,0,0,0,0
2011,4,-7,-1,0,0,0,0,0
2012,1,-8,0,0,0,0,0,0
2013,2,-6,0,0,0,0,0,0
2014,3,-7,-1,0,0,0,0,0
2015,5,-7,-1,0,0,0,0,0
2016,3,-8,0,0,0,0,0,0
2017,2,-8,0,0,0,0,0,0
2018,2,-7,0,0,0,0,0,0
2019,5,-7,-1,0,0,0,0,0
2020,4,-8,-1,0,0,0,0,0
2021,1,-8,-1,0,0,0,0,0
2022,3,-6,-1,0,0,0,0,0
2023,4,-7,-2,0,0,0,0,0
2024,3,-7,0,0,0,0,0,0
2025,3,-8,-1,0,0,0,0,0
2026,-1,-7,-2,0,0,0,0,0
2027,4,-9,0,0,0,0,0,0
2028,1,-8,-2,0,0,0,0,0
2029,0,-7,0,0,0,0,0,0
2030,3,-6,-1,0,0,0,0,0
2031,0,-7,1,0,0,0,0,0
2032,1,-7,-1,0,0,0,0,0
2033,0,-9,0,0,0,0,0,0
2034,4,-8,0,0,0,0,0,0
2035,2,-7,-1,0,0,0,0,0
2036,3,-6,-1,0,0,0,0,0
2037,3,-6,-1,0,0,0,0,0
2038,3,-7,0,0,0,0,0,0
2039,3,-8,-1,0,0,0,0,0
2040,2,-7,-1,0,0,0,0,0
2041,3,-8,0,0,0,0,0,0
2042,3,-7,0,0,0,0,0,0
2043,2,-7,0,0,0,0,0,0
2044,3,-7,-1,0,0,0,0,0
2045,3,-8,-1,0,0,0,0,0
2046,1,-7,-2,0,0,0,0,0
2047,3,-8,0,0,0,0,0,0
2048,3,-8,-1,0,0,0,0,0
2049,2,-7,0,0,0,0,0,0
2050,3,-8,-1,0,0,0,0,0
2051,2,-7,0,0,0,0,0,0
2052,3,-8,0,0,0,0,0,0
2053,4,-7,-1,0,0,0,0,0
2054,4,-9,-1,0,0,0,0,0
2055,2,-8,-1,0,0,0,0,0
2056,4,-7,0,0,0,0,0,0
2057,2,-7,0,0,0,0,0,0
2058,2,-7,0,0,0,0,0,0
2059,5,-8,-1,0,0,0,0,0
2060,3,-8,-2,0,0,0,0,0
2061,4,-8,-1,0,0,0,0,0
2062,2,-6,-1,0,0,0,0,0
2063,4,-6,-1,0,0,0,0,0
2064,2,-6,0,0,0,0,0,0
2065,3,-8,1,0,0,0,0,0
2066,3,-7,0,0,0,0,0,0
2067,1,-8,0,0,0,0,0,0
2068,4,-9,0,0,0,0,0,0
2069,2,-7,0,0,0,0,0,0
2070,2,-6,1,0,0,0,0,0
2071,2,-8,0,0,0,0,0,0
2072,2,-8,0,0,0,0,0,0
2073,3,-9,-1,0,0,0,0,0
2074,2,-6,0,0,0,0,0,0
2075,3,-6,0,0,0,0,0,0
2076,1,-6,0,0,0,0,0,0
2077,3,-8,1,0,0,0,0,0
2078,2,-7,0,0,0,0,0,0
2079,3,-8,0,0,0,0,0,0
2080,1,-7,0,0,0,0,0,0
2081,2,-7,0,0,0,0,0,0
2082,2,-7,-1,0,0,0,0,0
2083,1,-7,0,0,0,0,0,0
2084,1,-8,0,0,0,0,0,0
2085,2,-7,-1,0,0,0,0,0
2086,-5,-9,0,0,0,0,0,0
2087,2,-7,-1,0,0,0,0,0
2088,-3,-8,0,0,0,0,0,0
2089,2,-7,-2,0,0,0,0,0
2090,5,-7,-1,0,0,0,0,0
2091,7,-8,0,0,0,0,0,0
2092,4,-6,0,0,0,0,0,0
2093,5,-6,0,0,0,0,0,0
2094,3,-6,0,0,0,0,0,0
2095,0,-6,-1,0,0,0,0,0
2096,2,-8,-1,0,0,0,0,0
2097,3,-8,0,0,0,0,0,0
2098,4,-7,0,0,0,0,0,0
2099,3,-7,0,0,0,0,0,0
2100,1,-6,-1,0,0,0,0,0
2101,4,-8,-1,0,0,0,0,0
2102,5,-5,0,0,0,0,0,0
2103,2,-7,0,0,0,0,0,0
2104,1,-7,-1,0,0,0,0,0
2105,2,-9,0,0,0,0,0,0
2106,1,-8,0,0,0,0,0,0
2107,5,-7,-1,0,0,0,0,0
2108,3,-8,-1,0,0,0,0,0
2109,2,-7,0,0,0,0,0,0
2110,2,-7,2,0,0,0,0,0
2111,0,-8,-1,0,0,0,0,0
2112,5,-7,0,0,0,0,0,0
2113,0,-8,-1,0,0,0,0,0
2114,3,-8,0,0,0,0,0,0
2115,4,-7,-1,0,0,0,0,0
2116,1,-7,0,0,0,0,0,0
2117,1,-7,-1,0,0,0,0,0
2118,2,-7,0,0,0,0,0,0
2119,4,-7,0,0,0,0,0,0
2120,3,-8,-1,0,0,0,0,0
2121,0,-8,0,0,0,0,0,0
2122,2,-8,0,0,0,0,0,0
2123,3,-8,-1,0,0,0,0,0
2124,1,-6,0,0,0,0,0,0
2125,4,-8,0,0,0,0,0,0
2126,0,-6,0,0,0,0,0,0
2127,1,-7,0,0,0,0,0,0
2128,2,-7,0,0,0,0,0,0
2129,6,-6,-1,0,0,0,0,0
2130,1,-6,-1,0,0,0,0,0
2131,1,-6,0,0,0,0,0,0
2132,4,-7,0,0,0,0,0,0
2133,2,-7,0,0,0,0,0,0
2134,5,-7,-2,0,0,0,0,0
2135,5,-6,-2,0,0,0,0,0
2136,2,-7,-1,0,0,0,0,0
2137,1,-7,0,0,0,0,0,0
2138,4,-7,-1,0,0,0,0,0
2139,4,-7,-1,0,0,0,0,0
2140,3,-7,-1,0,0,0,0,0
2141,2,-8,-1,0,0,0,0,0
2142,3,-8,0,0,0,0,0,0
2143,3,-6,-1,0,0,0,0,0
2144,1,-7,-1,0,0,0,0,0
2145,4,-8,0,0,0,0,0,0
2146,3,-5,0,0,0,0,0,0
2147,3,-6,-1,0,0,0,0,0
2148,4,-8,0,0,0,0,0,0
2149,6,-7,0,0,0,0,0,0
2150,0,-8,-1,0,0,0,0,0
2151,1,-8,0,0,0,0,0,0
2152,6,-6,0,0,0,0,0,0
2153,5,-8,1,0,0,0,0,0
2154,3,-7,0,0,0,0,0,0
2155,2,-8,0,0,0,0,0,0
2156,4,-7,-2,0,0,0,0,0
2157,2,-8,-1,0,0,0,0,0
2158,3,-7,-2,0,0,0,0,0
2159,5,-7,0,0,0,0,0,0
2160,3,-8,0,0,0,0,0,0
2161,3,-7,0,0,0,0,0,0
2162,4,-9,0,0,0,0,0,0
2163,-1,-8,-1,0,0,0,0,0
2164,1,-7,-1,0,0,0,0,0
2165,2,-7,-1,0,0,0,0,0
2166,5,-8,0,0,0,0,0,0
2167,4,-8,-1,0,0,0,0,0
2168,3,-7,1,0,0,0,0,0
2169,2,-8,-1,0,0,0,0,0
2170,3,-6,-1,0,0,0,0,0
2171,3,-8,0,0,0,0,0,0
2172,2,-8,-1,0,0,0,0,0
2173,3,-7,-1,0,0,0,0,0
2174,4,-7,1,0,0,0,0,0
2175,0,-8,-1,0,0,0,0,0
2176,2,-8,-1,0,0,0,0,0
2177,4,-7,0,0,0,0,0,0
2178,4,-8,-1,0,0,0,0,0
2179,4,-7,0,0,0,0,0,0
2180,1,-8,0,0,0,0,0,0
2181,4,-7,-1,0,0,0,0,0
2182,-2,-9,-1,0,0,0,0,0
2183,5,-9,1,0,0,0,0,0
2184,2,-7,0,0,0,0,0,0
2185,4,-8,-1,0,0,0,0,0
2186,4,-6,-1,0,0,0,0,0
2187,2,-7,0,0,0,0,0,0
2188,2,-7,0,0,0,0,0,0
2189,2,-7,-1,0,0,0,0,0
2190,1,-8,-2,0,0,0,0,0
2191,3,-8,-1,0,0,0,0,0
2192,2,-8,0,0,0,0,0,0
2193,3,-8,-1,0,0,0,0,0
2194,2,-8,0,0,0,0,0,0
2195,2,-7,0,0,0,0,0,0
2196,3,-7,0,0,0,0,0,0
2197,3,-8,-1,0,0,0,0,0
2198,5,-8,-1,0,0,0,0,0
2199,0,-8,0,0,0,0,0,0
2200,4,-8,1,0,0,0,0,0
2201,4,-7,255,0,0,0,0,0
2202,254,-8,0,0,0,0,0,0
2203,2,-7,-1,0,0,0,0,0
2204,2,-8,-1,0,0,0,0,0
2205,2,-7,0,0,0,0,0,0
2206,4,-7,0,0,0,0,0,0
2207,3,-7,-1,0,0,0,0,0
2208,3,-6,-1,0,0,0,0,0
2209,3,-8,-1,0,0,0,0,0
2210,2,-8,0,0,0,0,0,0
2211,2,-7,255,0,0,0,0,0
2212,5,-8,0,0,0,0,0,0
2213,3,-6,0,0,0,0,0,0
2214,2,-7,0,0,0,0,0,0
2215,2,-7,0,0,0,0,0,0
2216,4,-7,0,0,0,0,0,0
2217,2,-8,0,0,0,0,0,0
2218,3,-8,-2,0,0,0,0,0
2219,2,-7,0,0,0,0,0,0
2220,1,-7,0,0,0,0,0,0
2221,4,-8,0,0,0,0,0,0
2222,4,-7,-1,0,0,0,0,0
2223,3,-7,0,0,0,0,0,0
2224,3,-9,0,0,0,0,0,0
2225,1,-10,-1,0,0,0,0,0
2226,2,-7,-1,0,0,0,0,0
2227,4,-7,-1,0,0,0,0,0
2228,3,-6,0,0,0,0,0,0
2229,3,-8,0,0,0,0,0,0
2230,3,-8,-1,0,0,0,0,0
2231,3,-7,0,0,0,0,0,0
2232,1,-7,0,0,0,0,0,0
2233,3,-8,-1,0,0,0,0,0
2234,3,-7,0,0,0,0,0,0
2235,2,-8,0,0,0,0,0,0
2236,2,-9,0,0,0,0,0,0
2237,5,-7,-2,0,0,0,0,0
2238,4,-8,-1,0,0,0,0,0
2239,3,-7,0,0,0,0,0,0
2240,4,-8,-1,0,0,0,0,0
2241,4,-8,0,0,0,0,0,0
2242,1,-7,0,0,0,0,0,0
2243,4,-6,-1,0,0,0,0,0
2244,3,-7,-1,0,0,0,0,0
2245,3,-7,-1,0,0,0,0,0
2246,2,-7,-2,0,0,0,0,0
2247,2,-7,0,0,0,0,0,0
2248,3,-8,0,0,0,0,0,0
2249,1,-9,-1,0,0,0,0,0
2250,2,-6,0,0,0,0,0,0
2251,3,-6,-1,0,0,0,0,0
2252,3,-7,0,0,0,0,0,0
2253,3,-7,0,0,0,0,0,0
2254,3,-8,-1,0,0,0,0,0
2255,3,-7,0,0,0,0,0,0
2256,4,-7,0,0,0,0,0,0
2257,3,-8,0,0,0,0,0,0
2258,3,-8,0,0,0,0,0,0
2259,2,-7,-1,0,0,0,0,0
2260,3,-6,-1,0,0,0,0,0
2261,2,-8,-1,0,0,0,0,0
2262,2,-8,-2,0,0,0,0,0
2263,3,-8,0,0,0,0,0,0
2264,3,-7,0,0,0,0,0,0
2265,2,-6,1,0,0,0,0,0
2266,3,-8,-1,0,0,0,0,0
2267,4,-8,-1,0,0,0,0,0
2268,2,-8,-1,0,0,0,0,0
2269,3,-8,0,0,0,0,0,0
2270,3,-7,-1,0,0,0,0,0
2271,1,-7,0,0,0,0,0,0
2272,2,-6,-1,0,0,0,0,0
2273,2,-8,0,0,0,0,0,0
2274,2,-7,0,0,0,0,0,0
2275,3,-6,0,0,0,0,0,0
2276,2,-7,-1,0,0,0,0,0
2277,2,-7,-1,0,0,0,0,0
2278,1,-8,-1,0,0,0,0,0
2279,1,-7,0,0,0,0,0,0
2280,3,-8,0,0,0,0,0,0
2281,3,-8,0,0,0,0,0,0
2282,1,-7,0,0,0,0,0,0
2283,4,-8,0,0,0,0,0,0
2284,2,-7,-2,0,0,0,0,0
2285,3,-8,0,0,0,0,0,0
2286,1,-7,-1,0,0,0,0,0
2287,2,-6,-1,0,0,0,0,0
2288,3,-7,0,0,0,0,0,0
2289,3,-6,-1,0,0,0,0,0
2290,3,-8,0,0,0,0,0,0
2291,3,-7,-1,0,0,0,0,0
2292,1,-7,-1,0,0,0,0,0
2293,4,-7,0,0,0,0,0,0
2294,2,-8,0,0,0,0,0,0
2295,4,-7,-1,0,0,0,0,0
2296,3,-8,1,0,0,0,0,0
2297,2,-8,-1,0,0,0,0,0
2298,3,-8,0,0,0,0,0,0
2299,2,-6,0,0,0,0,0,0
2300,2,-7,1,0,0,0,0,0
2301,-7,-8,-2,0,0,0,0,0
2302,3,-9,1,0,0,0,0,0
2303,4,-6,-2,0,0,0,0,0
2304,-2,-7,0,0,0,0,0,0
2305,6,-7,1,0,0,0,0,0
2306,0,-10,-2,0,0,0,0,0
2307,1,-9,-2,0,0,0,0,0
2308,6,-6,0,0,0,0,0,0
2309,3,-7,0,0,0,0,0,0
2310,1,-7,-1,0,0,0,0,0
2311,4,-6,1,0,0,0,0,0
2312,1,-7,-1,0,0,0,0,0
2313,3,-8,-1,0,0,0,0,0
2314,2,-7,0,0,0,0,0,0
2315,3,-8,-1,0,0,0,0,0
2316,1,-7,-2,0,0,0,0,0
2317,2,-7,0,0,0,0,0,0
2318,5,-7,-1,0,0,0,0,0
2319,1,-6,1,0,0,0,0,0
2320,3,-8,0,0,0,0,0,0
2321,3,-7,-1,0,0,0,0,0
2322,4,-7,-2,0,0,0,0,0
2323,2,-7,0,0,0,0,0,0
2324,4,-9,-1,0,0,0,0,0
2325,3,-7,1,0,0,0,0,0
2326,2,-6,0,0,0,0,0,0
2327,3,-7,-1,0,0,0,0,0
2328,1,-7,0,0,0,0,0,0
2329,2,-7,0,0,0,0,0,0
2330,3,-7,0,0,0,0,0,0
2331,3,-8,0,0,0,0,0,0
2332,5,-8,0,0,0,0,0,0
2333,0,-8,1,0,0,0,0,0
2334,3,-7,1,0,0,0,0,0
2335,1,-9,-1,0,0,0,0,0
2336,-6,-11,-4,0,0,0,0,0
2337,3,-6,0,0,0,0,0,0
2338,2,-6,-1,0,0,0,0,0
2339,2,-6,-2,0,0,0,0,0
2340,2,-8,-1,0,0,0,0,0
2341,2,-6,0,0,0,0,0,0
2342,3,-6,0,0,0,0,0,0
2343,3,-6,0,0,0,0,0,0
2344,2,-6,0,0,0,0,0,0
2345,3,-7,0,0,0,0,0,0
2346,1,-9,-1,0,0,0,0,0
2347,2,-8,-1,0,0,0,0,0
2348,2,-8,0,0,0,0,0,0
2349,3,-8,-1,0,0,0,0,0
2350,4,-7,0,0,0,0,0,0
2351,2,-7,0,0,0,0,0,0
2352,4,-7,0,0,0,0,0,0
2353,3,-6,0,0,0,0,0,0
2354,5,-7,0,0,0,0,0,0
2355,2,-8,-1,0,0,0,0,0
2356,1,-9,-2,0,0,0,0,0
2357,3,-7,-1,0,0,0,0,0
2358,4,-7,-2,0,0,0,0,0
2359,2,-8,-1,0,0,0,0,0
2360,3,-5,-1,0,0,0,0,0
2361,3,-6,0,0,0,0,0,0
2362,3,-7,0,0,0,0,0,0
2363,0,-7,-1,0,0,0,0,0
2364,2,-8,-1,0,0,0,0,0
2365,3,-8,0,0,0,0,0,0
2366,3,-7,-1,0,0,0,0,0
2367,3,-7,-1,0,0,0,0,0
2368,2,-6,0,0,0,0,0,0
2369,4,-7,0,0,0,0,0,0
2370,4,-8,0,0,0,0,0,0
2371,3,-7,-1,0,0,0,0,0
2372,3,-9,-1,0,0,0,0,0
2373,2,-8,0,0,0,0,0,0
2374,2,-7,0,0,0,0,0,0
2375,3,-8,-1,0,0,0,0,0
2376,4,-7,-1,0,0,0,0,0
2377,3,-7,1,0,0,0,0,0
2378,3,-6,-1,0,0,0,0,0
2379,1,-6,-1,0,0,0,0,0
2380,3,-6,-2,0,0,0,0,0
2381,2,-6,0,0,0,0,0,0
2382,3,-7,-1,0,0,0,0,0
2383,3,-8,-1,0,0,0,0,0
2384,2,-7,-256,0,0,0,0,0
2385,3,-8,2,0,0,0,0,0
2386,4,-8,0,0,0,0,0,0
2387,1,-6,0,0,0,0,0,0
2388,3,-6,0,0,0,0,0,0
2389,3,-8,0,0,0,0,0,0
2390,1,-8,0,0,0,0,0,0
2391,3,-6,0,0,0,0,0,0
2392,2,-9,-1,0,0,0,0,0
2393,2,-8,0,0,0,0,0,0
2394,3,-7,0,0,0,0,0,0
2395,1,-8,0,0,0,0,0,0
2396,2,-8,0,0,0,0,0,0
2397,4,-8,0,0,0,0,0,0
2398,2,-7,0,0,0,0,0,0
2399,2,-6,0,0,0,0,0,0
2400,3,-8,-1,0,0,0,0,0
2401,2,-8,0,0,0,0,0,0
2402,3,-7,-1,0,0,0,0,0
2403,2,-7,0,0,0,0,0,0
2404,2,-9,-1,0,0,0,0,0
2405,2,-6,-1,0,0,0,0,0
2406,2,-7,-1,0,0,0,0,0
2407,2,-6,-1,0,0,0,0,0
2408,3,-7,-1,0,0,0,0,0
2409,3,-9,0,0,0,0,0,0
2410,2,-8,-2,0,0,0,0,0
2411,2,-8,0,0,0,0,0,0
2412,2,-8,-1,0,0,0,0,0
2413,2,-6,-1,0,0,0,0,0
2414,4,-8,1,0,0,0,0,0
2415,5,-7,0,0,0,0,0,0
2416,2,-8,0,0,0,0,0,0
2417,1,-9,0,0,0,0,0,0
2418,4,-6,0,0,0,0,0,0
2419,1,-9,0,0,0,0,0,0
2420,3,-7,1,0,0,0,0,0
2421,4,-7,0,0,0,0,0,0
2422,2,-8,1,0,0,0,0,0
2423,3,-6,0,0,0,0,0,0
2424,2,-9,0,0,0,0,0,0
2425,4,-7,0,0,0,0,0,0
2426,3,-8,-1,0,0,0,0,0
2427,2,-7,0,0,0,0,0,0
2428,3,-6,0,0,0,0,0,0
2429,1,-7,0,0,0,0,0,0
2430,2,-7,0,0,0,0,0,0
2431,3,-8,0,0,0,0,0,0
2432,1,-8,0,0,0,0,0,0
2433,3,-6,-1,0,0,0,0,0
2434,2,-6,-1,0,0,0,0,0
2435,3,-7,0,0,0,0,0,0
2436,4,-8,-1,0,0,0,0,0
2437,0,-7,-1,0,0,0,0,0
2438,3,-7,0,0,0,0,0,0
2439,4,-8,1,0,0,0,0,0
2440,2,-7,-1,0,0,0,0,0
2441,2,-9,-1,0,0,0,0,0
2442,4,-7,-1,0,0,0,0,0
2443,4,-8,-256,0,0,0,0,0
2444,3,-7,0,0,0,0,0,0
2445,4,-8,1,0,0,0,0,0
2446,3,-7,-1,0,0,0,0,0
2447,3,-8,0,0,0,0,0,0
2448,3,-5,0,0,0,0,0,0
2449,3,-7,0,0,0,0,0,0
2450,3,-6,-1,0,0,0,0,0
2451,1,-8,-1,0,0,0,0,0
2452,3,-6,-1,0,0,0,0,0
2453,1,-8,-1,0,0,0,0,0
2454,2,-7,0,0,0,0,0,0
2455,1,-7,-2,0,0,0,0,0
2456,5,-9,-256,0,0,0,0,0
2457,1,-6,0,0,0,0,0,0
2458,3,-7,0,0,0,0,0,0
2459,3,-8,0,0,0,0,0,0
2460,2,-7,0,0,0,0,0,0
2461,3,-6,0,0,0,0,0,0
2462,3,-7,0,0,0,0,0,0
2463,1,-7,-1,0,0,0,0,0
2464,3,-7,0,0,0,0,0,0
2465,3,-8,-1,0,0,0,0,0
2466,3,-8,-256,0,0,0,0,0
2467,2,-8,-1,0,0,0,0,0
2468,1,-7,0,0,0,0,0,0
2469,3,-7,-1,0,0,0,0,0
2470,2,-8,-1,0,0,0,0,0
2471,2,-7,0,0,0,0,0,0
2472,3,-8,-1,0,0,0,0,0
2473,2,-7,0,0,0,0,0,0
2474,3,-7,-1,0,0,0,0,0
2475,2,-7,0,0,0,0,0,0
2476,2,-7,0,0,0,0,0,0
2477,2,-7,-1,0,0,0,0,0
2478,3,-7,0,0,0,0,0,0
2479,4,-7,1,0,0,0,0,0
2480,2,-7,0,0,0,0,0,0
2481,3,-8,1,0,0,0,0,0
2482,3,-7,0,0,0,0,0,0
2483,1,-8,0,0,0,0,0,0
2484,2,-7,0,0,0,0,0,0
2485,2,-8,1,0,0,0,0,0
2486,4,-8,0,0,0,0,0,0
2487,2,-8,0,0,0,0,0,0
2488,2,-6,-1,0,0,0,0,0
2489,3,-8,-2,0,0,0,0,0
2490,4,-8,-1,0,0,0,0,0
2491,3,-6,0,0,0,0,0,0
2492,1,-7,0,0,0,0,0,0
2493,2,-7,-1,0,0,0,0,0
2494,1,-7,0,0,0,0,0,0
2495,2,-8,1,0,0,0,0,0
2496,3,-6,254,0,0,0,0,0
2497,3,-8,-1,0,0,0,0,0
2498,1,-7,0,0,0,0,0,0
2499,3,-7,-1,0,0,0,0,0
2500,3,-7,-2,0,0,0,0,0
2501,2,-7,-1,0,0,0,0,0
2502,4,-7,0,0,0,0,0,0
2503,1,-6,-1,0,0,0,0,0
2504,2,-7,-1,0,0,0,0,0
2505,1,-9,0,0,0,0,0,0
2506,3,-8,-1,0,0,0,0,0
2507,2,-7,-1,0,0,0,0,0
2508,3,-7,0,0,0,0,0,0
2509,4,-8,-1,0,0,0,0,0
2510,4,-7,0,0,0,0,0,0
2511,3,-8,0,0,0,0,0,0
2512,5,-8,0,0,0,0,0,0
2513,1,-6,0,0,0,0,0,0
2514,3,-9,-1,0,0,0,0,0
2515,1,-6,0,0,0,0,0,0
2516,4,-7,0,0,0,0,0,0
2517,3,-6,-1,0,0,0,0,0
2518,3,-6,0,0,0,0,0,0
2519,3,-8,0,0,0,0,0,0
2520,5,-7,0,0,0,0,0,0
2521,2,-7,0,0,0,0,0,0
2522,4,-7,1,0,0,0,0,0
2523,2,-8,-1,0,0,0,0,0
2524,2,-7,0,0,0,0,0,0
2525,3,-9,-1,0,0,0,0,0
2526,1,-7,0,0,0,0,0,0
2527,4,-7,-1,0,0,0,0,0
2528,2,-7,0,0,0,0,0,0
2529,2,-7,0,0,0,0,0,0
2530,2,-7,0,0,0,0,0,0
2531,3,-7,0,0,0,0,0,0
2532,2,-9,-1,0,0,0,0,0
2533,3,-8,-1,0,0,0,0,0
2534,4,-8,0,0,0,0,0,0
2535,3,-8,0,0,0,0,0,0
2536,2,-6,0,0,0,0,0,0
2537,3,-8,-1,0,0,0,0,0
2538,1,-7,0,0,0,0,0,0
2539,3,-7,-1,0,0,0,0,0
2540,2,-8,0,0,0,0,0,0
2541,3,-7,-1,0,0,0,0,0
2542,2,-9,0,0,0,0,0,0
2543,2,-7,0,0,0,0,0,0
2544,2,-7,0,0,0,0,0,0
2545,4,-8,0,0,0,0,0,0
2546,2,-8,-1,0,0,0,0,0
2547,2,-7,-1,0,0,0,0,0
2548,3,-7,0,0,0,0,0,0
2549,3,-8,0,0,0,0,0,0
2550,3,-6,0,0,0,0,0,0
2551,2,-8,0,0,0,0,0,0
2552,4,-8,-1,0,0,0,0,0
2553,2,-6,0,0,0,0,0,0
2554,2,-8,0,0,0,0,0,0
2555,1,-8,0,0,0,0,0,0
2556,2,-8,-1,0,0,0,0,0
2557,2,-7,0,0,0,0,0,0
2558,3,-7,-1,0,0,0,0,0
2559,3,-8,-1,0,0,0,0,0
2560,3,-8,-1,0,0,0,0,0
2561,3,-8,0,0,0,0,0,0
2562,3,-8,0,0,0,0,0,0
2563,3,-8,0,0,0,0,0,0
2564,4,-7,0,0,0,0,0,0
2565,3,-7,1,0,0,0,0,0
2566,3,-8,-1,0,0,0,0,0
2567,3,-7,-1,0,0,0,0,0
2568,1,-8,-1,0,0,0,0,0
2569,2,-6,0,0,0,0,0,0
2570,3,-7,-1,0,0,0,0,0
2571,3,-7,-1,0,0,0,0,0
2572,3,-7,0,0,0,0,0,0
2573,2,-7,-1,0,0,0,0,0
2574,3,-7,0,0,0,0,0,0
2575,2,-7,0,0,0,0,0,0
2576,1,-7,0,0,0,0,0,0
2577,3,-7,0,0,0,0,0,0
2578,3,-8,1,0,0,0,0,0
2579,3,-8,-1,0,0,0,0,0
2580,5,-7,0,0,0,0,0,0
2581,1,-8,-1,0,0,0,0,0
2582,2,-8,-1,0,0,0,0,0
2583,2,-8,-1,0,0,0,0,0
2584,3,-8,0,0,0,0,0,0
2585,3,-8,0,0,0,0,0,0
2586,3,-8,0,0,0,0,0,0
2587,3,-7,0,0,0,0,0,0
2588,2,-7,-1,0,0,0,0,0
2589,5,-8,-1,0,0,0,0,0
2590,3,-8,-1,0,0,0,0,0
2591,3,-6,0,0,0,0,0,0
2592,3,-7,0,0,0,0,0,0
2593,2,-7,-1,0,0,0,0,0
2594,1,-9,-1,0,0,0,0,0
2595,4,-7,0,0,0,0,0,0
2596,7,-8,1,0,0,0,0,0
2597,3,-7,-1,0,0,0,0,0
2598,4,-7,-255,0,0,0,0,0
2599,1,-7,0,0,0,0,0,0
2600,2,-7,0,0,0,0,0,0
2601,3,-7,-1,0,0,0,0,0
2602,3,-7,1,0,0,0,0,0
2603,4,-7,-1,0,0,0,0,0
2604,2,-7,0,0,0,0,0,0
2605,3,-7,1,0,0,0,0,0
2606,3,-9,0,0,0,0,0,0
2607,2,-7,-1,0,0,0,0,0
2608,3,-7,-1,0,0,0,0,0
2609,3,-8,0,0,0,0,0,0
2610,-1,-6,-1,0,0,0,0,0
2611,6,-8,-1,0,0,0,0,0
2612,4,-8,0,0,0,0,0,0
2613,0,-7,0,0,0,0,0,0
2614,5,-8,0,0,0,0,0,0
2615,5,-8,-2,0,0,0,0,0
2616,0,-8,-1,0,0,0,0,0
2617,-1,-8,0,0,0,0,0,0
2618,1,-6,-1,0,0,0,0,0
2619,4,-7,0,0,0,0,0,0
2620,5,-7,-1,0,0,0,0,0
2621,4,-7,0,0,0,0,0,0
2622,4,-7,0,0,0,0,0,0
2623,1,-9,-1,0,0,0,0,0
2624,1,-7,-2,0,0,0,0,0
2625,1,-8,-256,0,0,0,0,0
2626,6,-6,-2,0,0,0,0,0
2627,2,-6,2,0,0,0,0,0
2628,4,-8,0,0,0,0,0,0
2629,3,-7,0,0,0,0,0,0
2630,-1,-7,0,0,0,0,0,0
2631,3,-8,-1,0,0,0,0,0
2632,1,-7,-1,0,0,0,0,0
2633,2,-8,1,0,0,0,0,0
2634,2,-7,-1,0,0,0,0,0
2635,4,-7,0,0,0,0,0,0
2636,2,-7,0,0,0,0,0,0
2637,1,-7,-1,0,0,0,0,0
2638,3,-6,-1,0,0,0,0,0
2639,4,-8,0,0,0,0,0,0
2640,0,-7,0,0,0,0,0,0
2641,3,-8,-1,0,0,0,0,0
2642,0,-6,-1,0,0,0,0,0
2643,-10,-10,-1,0,0,0,0,0
2644,1,-8,-1,0,0,0,0,0
2645,3,-8,-1,0,0,0,0,0
2646,7,-11,0,0,0,0,0,0
2647,2,-6,0,0,0,0,0,0
2648,2,-8,-1,0,0,0,0,0
2649,0,-7,-1,0,0,0,0,0
2650,6,-9,-2,0,0,0,0,0
2651,3,-8,-2,0,0,0,0,0
2652,2,-8,-1,0,0,0,0,0
2653,0,-7,0,0,0,0,0,0
2654,4,-8,0,0,0,0,0,0
2655,10,-9,0,0,0,0,0,0
2656,-2,-8,-1,0,0,0,0,0
2657,-3,-7,-2,0,0,0,0,0
2658,0,-8,-1,0,0,0,0,0
2659,2,-6,-1,0,0,0,0,0
2660,4,-7,0,0,0,0,0,0
2661,2,-8,-1,0,0,0,0,0
2662,2,-7,-2,0,0,0,0,0
2663,4,-5,-1,0,0,0,0,0
2664,3,-6,-1,0,0,0,0,0
2665,5,-7,-1,0,0,0,0,0
2666,1,-6,0,0,0,0,0,0
2667,1,-7,-1,0,0,0,0,0
2668,5,-7,-1,0,0,0,0,0
2669,2,-6,1,0,0,0,0,0
2670,3,-9,-1,0,0,0,0,0
2671,3,-6,-1,0,0,0,0,0
2672,3,-8,1,0,0,0,0,0
2673,5,-7,1,0,0,0,0,0
2674,0,-7,0,0,0,0,0,0
2675,14,-8,-1,0,0,0,0,0
2676,-1,-10,-1,0,0,0,0,0
2677,7,-7,1,0,0,0,0,0
2678,0,-8,-1,0,0,0,0,0
2679,1,-8,0,0,0,0,0,0
2680,1,-7,-1,0,0,0,0,0
2681,4,-8,-1,0,0,0,0,0
2682,-2,-8,-1,0,0,0,0,0
2683,3,-8,-1,0,0,0,0,0
2684,0,-6,-1,0,0,0,0,0
2685,2,-8,1,0,0,0,0,0
2686,4,-7,1,0,0,0,0,0
2687,2,-5,-2,0,0,0,0,0
2688,-2,-9,-2,0,0,0,0,0
2689,3,-6,-2,0,0,0,0,0
2690,3,-8,0,0,0,0,0,0
2691,1,-8,-1,0,0,0,0,0
2692,5,-8,1,0,0,0,0,0
2693,0,-8,0,0,0,0,0,0
2694,3,-9,0,0,0,0,0,0
2695,4,-7,-1,0,0,0,0,0
2696,2,-8,0,0,0,0,0,0
2697,4,-8,0,0,0,0,0,0
2698,4,-7,1,0,0,0,0,0
2699,1,-5,-1,0,0,0,0,0
2700,3,-8,-1,0,0,0,0,0
2701,2,-7,0,0,0,0,0,0
2702,1,-7,0,0,0,0,0,0
2703,4,-8,-1,0,0,0,0,0
2704,2,-9,0,0,0,0,0,0
2705,2,-6,1,0,0,0,0,0
2706,1,-7,-1,0,0,0,0,0
2707,0,-8,0,0,0,0,0,0
2708,8,-8,-3,0,0,0,0,0
2709,7,-5,-1,0,0,0,0,0
2710,18,-7,-1,0,0,0,0,0
2711,-1,-7,0,0,0,0,0,0
2712,-2,-7,0,0,0,0,0,0
2713,7,-10,-2,0,0,0,0,0
2714,1,-8,0,0,0,0,0,0
2715,1,-9,-2,0,0,0,0,0
2716,3,-8,0,0,0,0,0,0
2717,6,-8,0,0,0,0,0,0
2718,4,-5,-2,0,0,0,0,0
2719,5,-8,0,0,0,0,0,0
2720,7,-7,-1,0,0,0,0,0
2721,-2,-7,0,0,0,0,0,0
2722,-1,-8,0,0,0,0,0,0
2723,11,-7,-1,0,0,0,0,0
2724,4,-9,-2,0,0,0,0,0
2725,7,-7,-1,0,0,0,0,0
2726,-1,-8,0,0,0,0,0,0
2727,-7,-17,-8,0,0,0,0,0
2728,8,-6,-1,0,0,0,0,0
2729,7,-6,-4,0,0,0,0,0
2730,17,-10,-7,0,0,0,0,0
2731,76,-33,3,0,0,0,0,0
2732,6,-13,-2,0,0,0,0,0
2733,3,-3,-2,0,0,0,0,0
2734,3,-7,0,0,0,0,0,0
2735,11,-8,-2,0,0,0,0,0
2736,5,-11,-3,0,0,0,0,0
2737,6,-10,-4,0,0,0,0,0
2738,7,-8,-2,0,0,0,0,0
2739,-17,-4,4,0,0,0,0,0
2740,-25,4,9,0,0,0,0,0
2741,-27,-10,1,0,0,0,0,0
2742,-10,0,5,0,0,0,0,0
2743,1,-6,0,0,0,0,0,0
2744,2,-7,1,0,0,0,0,0
2745,2,-7,0,0,0,0,0,0
2746,4,-7,-1,0,0,0,0,0
2747,0,-7,0,0,0,0,0,0
2748,5,-9,-1,0,0,0,0,0
2749,3,-7,0,0,0,0,0,0
2750,2,-9,0,0,0,0,0,0
2751,1,-7,0,0,0,0,0,0
2752,2,-7,-1,0,0,0,0,0
2753,2,-8,0,0,0,0,0,0
2754,4,-8,0,0,0,0,0,0
2755,3,-7,0,0,0,0,0,0
2756,3,-7,-1,0,0,0,0,0
2757,6,-8,0,0,0,0,0,0
2758,2,-7,-1,0,0,0,0,0
2759,2,-7,0,0,0,0,0,0
2760,4,-8,-1,0,0,0,0,0
2761,2,-7,0,0,0,0,0,0
2762,2,-8,-1,0,0,0,0,0
2763,2,-8,0,0,0,0,0,0
2764,2,-6,-1,0,0,0,0,0
2765,1,-8,-1,0,0,0,0,0
2766,2,-5,-1,0,0,0,0,0
2767,2,-7,0,0,0,0,0,0
2768,2,-8,0,0,0,0,0,0
2769,2,-8,0,0,0,0,0,0
2770,5,-9,0,0,0,0,0,0
2771,1,-7,-2,0,0,0,0,0
2772,-2,-8,0,0,0,0,0,0
2773,5,-5,-1,0,0,0,0,0
2774,3,-7,0,0,0,0,0,0
2775,4,-7,0,0,0,0,0,0
2776,3,-6,0,0,0,0,0,0
2777,2,-6,0,0,0,0,0,0
2778,4,-7,1,0,0,0,0,0
2779,3,-6,-1,0,0,0,0,0
2780,4,-8,-1,0,0,0,0,0
2781,3,-7,255,0,0,0,0,0
2782,3,-6,-1,0,0,0,0,0
2783,2,-7,0,0,0,0,0,0
2784,2,-8,0,0,0,0,0,0
2785,3,-6,0,0,0,0,0,0
2786,1,-8,0,0,0,0,0,0
2787,2,-7,0,0,0,0,0,0
2788,0,-7,-1,0,0,0,0,0
2789,3,-8,0,0,0,0,0,0
2790,3,-8,-2,0,0,0,0,0
2791,8,-8,-1,0,0,0,0,0
2792,5,-8,-1,0,0,0,0,0
2793,2,-8,1,0,0,0,0,0
2794,7,-9,0,0,0,0,0,0
2795,2,-7,-1,0,0,0,0,0
2796,5,-7,-1,0,0,0,0,0
2797,3,-9,1,0,0,0,0,0
2798,3,-8,-1,0,0,0,0,0
2799,0,-8,-2,0,0,0,0,0
2800,4,-8,0,0,0,0,0,0
2801,3,-7,-1,0,0,0,0,0
2802,3,-8,-1,0,0,0,0,0
2803,4,-8,0,0,0,0,0,0
2804,2,-7,-1,0,0,0,0,0
2805,3,-9,0,0,0,0,0,0
2806,2,-8,-1,0,0,0,0,0
2807,2,-7,-1,0,0,0,0,0
2808,3,-8,-1,0,0,0,0,0
2809,2,-8,0,0,0,0,0,0
2810,4,-7,0,0,0,0,0,0
2811,3,-8,0,0,0,0,0,0
2812,3,-7,0,0,0,0,0,0
2813,5,-7,-1,0,0,0,0,0
2814,4,-6,0,0,0,0,0,0
2815,3,-9,-1,0,0,0,0,0
2816,1,-8,0,0,0,0,0,0
2817,3,-6,-1,0,0,0,0,0
2818,3,-7,1,0,0,0,0,0
2819,1,-7,0,0,0,0,0,0
2820,2,-7,-1,0,0,0,0,0
2821,2,-7,0,0,0,0,0,0
2822,4,-8,-2,0,0,0,0,0
2823,2,-8,-1,0,0,0,0,0
2824,3,-6,0,0,0,0,0,0
2825,3,-7,1,0,0,0,0,0
2826,3,-7,1,0,0,0,0,0
2827,3,-7,-2,0,0,0,0,0
2828,2,-6,0,0,0,0,0,0
2829,2,-7,-256,0,0,0,0,0
2830,3,-7,0,0,0,0,0,0
2831,2,-8,0,0,0,0,0,0
2832,3,-7,-1,0,0,0,0,0
2833,4,-7,0,0,0,0,0,0
2834,1,-6,1,0,0,0,0,0
2835,3,-6,-1,0,0,0,0,0
2836,2,-7,0,0,0,0,0,0
2837,4,-7,-1,0,0,0,0,0
2838,3,-7,-1,0,0,0,0,0
2839,3,-6,0,0,0,0,0,0
2840,2,-7,-1,0,0,0,0,0
2841,2,-6,-1,0,0,0,0,0
2842,2,-8,0,0,0,0,0,0
2843,3,-7,0,0,0,0,0,0
2844,3,-6,-1,0,0,0,0,0
2845,2,-6,-1,0,0,0,0,0
2846,4,-9,0,0,0,0,0,0
2847,2,-7,-1,0,0,0,0,0
2848,4,-8,0,0,0,0,0,0
2849,2,-7,-1,0,0,0,0,0
2850,5,-8,0,0,0,0,0,0
2851,1,-7,-1,0,0,0,0,0
2852,4,-8,0,0,0,0,0,0
2853,2,-8,0,0,0,0,0,0
2854,2,-8,0,0,0,0,0,0
2855,2,-8,0,0,0,0,0,0
2856,1,-6,1,0,0,0,0,0
2857,3,-7,-1,0,0,0,0,0
2858,5,-7,0,0,0,0,0,0
2859,2,-8,-1,0,0,0,0,0
2860,3,-7,0,0,0,0,0,0
2861,3,-7,-1,0,0,0,0,0
2862,2,-6,0,0,0,0,0,0
2863,1,-6,-1,0,0,0,0,0
2864,3,-6,0,0,0,0,0,0
2865,2,-7,-1,0,0,0,0,0
2866,2,-6,0,0,0,0,0,0
2867,3,-8,-1,0,0,0,0,0
2868,1,-8,0,0,0,0,0,0
2869,1,-8,-1,0,0,0,0,0
2870,2,-8,0,0,0,0,0,0
2871,2,-7,-1,0,0,0,0,0
2872,4,-7,-1,0,0,0,0,0
2873,2,-9,0,0,0,0,0,0
2874,2,-8,0,0,0,0,0,0
2875,6,-7,0,0,0,0,0,0
2876,2,-7,-1,0,0,0,0,0
2877,1,-8,0,0,0,0,0,0
2878,0,-8,0,0,0,0,0,0
2879,2,-7,1,0,0,0,0,0
2880,1,-8,0,0,0,0,0,0
2881,0,-7,0,0,0,0,0,0
2882,5,-8,0,0,0,0,0,0
2883,2,-7,-1,0,0,0,0,0
2884,2,-7,0,0,0,0,0,0
2885,1,-8,0,0,0,0,0,0
2886,3,-6,-1,0,0,0,0,0
2887,2,-7,-1,0,0,0,0,0
2888,3,-7,0,0,0,0,0,0
2889,2,-6,0,0,0,0,0,0
2890,3,-8,-1,0,0,0,0,0
2891,3,-7,0,0,0,0,0,0
2892,6,-8,-2,0,0,0,0,0
2893,3,-7,-1,0,0,0,0,0
2894,-2,-7,0,0,0,0,0,0
2895,0,-6,0,0,0,0,0,0
2896,3,-6,0,0,0,0,0,0
2897,4,-8,0,0,0,0,0,0
2898,3,-6,0,0,0,0,0,0
2899,1,-8,-3,0,0,0,0,0
2900,2,-7,-2,0,0,0,0,0
2901,3,-7,0,0,0,0,0,0
2902,4,-9,-1,0,0,0,0,0
2903,4,-7,-1,0,0,0,0,0
2904,3,-7,1,0,0,0,0,0
2905,2,-6,-1,0,0,0,0,0
2906,1,-6,-1,0,0,0,0,0
2907,2,-7,-1,0,0,0,0,0
2908,2,-8,1,0,0,0,0,0
2909,2,-8,0,0,0,0,0,0
2910,2,-7,-256,0,0,0,0,0
2911,2,-7,-1,0,0,0,0,0
2912,3,-8,0,0,0,0,0,0
2913,2,-7,-1,0,0,0,0,0
2914,4,-7,-1,0,0,0,0,0
2915,3,-8,0,0,0,0,0,0
2916,3,-8,-1,0,0,0,0,0
2917,2,-7,-1,0,0,0,0,0
2918,2,-6,0,0,0,0,0,0
2919,3,-8,0,0,0,0,0,0
2920,2,-7,0,0,0,0,0,0
2921,4,-7,0,0,0,0,0,0
2922,2,-7,-1,0,0,0,0,0
2923,1,-7,0,0,0,0,0,0
2924,2,-9,-1,0,0,0,0,0
2925,0,-8,0,0,0,0,0,0
2926,3,-7,0,0,0,0,0,0
2927,2,-8,-2,0,0,0,0,0
2928,0,-9,-1,0,0,0,0,0
2929,-3,-7,-3,0,0,0,0,0
2930,6,-10,1,0,0,0,0,0
2931,-2,-6,-3,0,0,0,0,0
2932,0,-4,-1,0,0,0,0,0
2933,-1,-4,0,0,0,0,0,0
2934,8,-9,0,0,0,0,0,0
2935,3,-6,0,0,0,0,0,0
2936,2,-7,-1,0,0,0,0,0
2937,6,-7,-1,0,0,0,0,0
2938,3,-6,-1,0,0,0,0,0
2939,-2,-7,0,0,0,0,0,0
2940,5,-7,0,0,0,0,0,0
2941,0,-7,-1,0,0,0,0,0
2942,5,-6,0,0,0,0,0,0
2943,1,-7,0,0,0,0,0,0
2944,1,-10,-1,0,0,0,0,0
2945,4,-7,-1,0,0,0,0,0
2946,3,-8,-1,0,0,0,0,0
2947,5,-8,1,0,0,0,0,0
2948,3,-7,-1,0,0,0,0,0
2949,4,-7,0,0,0,0,0,0
2950,3,-8,255,0,0,0,0,0
2951,2,-8,0,0,0,0,0,0
2952,2,-7,0,0,0,0,0,0
2953,2,-6,-1,0,0,0,0,0
2954,2,-8,-1,0,0,0,0,0
2955,3,-7,0,0,0,0,0,0
2956,3,-8,-1,0,0,0,0,0
2957,4,-7,-1,0,0,0,0,0
2958,4,-8,255,0,0,0,0,0
2959,2,-8,0,0,0,0,0,0
2960,3,-8,0,0,0,0,0,0
2961,1,-7,-1,0,0,0,0,0
2962,1,-8,-1,0,0,0,0,0
2963,3,-4,0,0,0,0,0,0
2964,2,-9,1,0,0,0,0,0
2965,3,-7,0,0,0,0,0,0
2966,3,-7,-1,0,0,0,0,0
2967,2,-8,0,0,0,0,0,0
2968,4,-8,1,0,0,0,0,0
2969,1,-9,0,0,0,0,0,0
2970,1,-8,0,0,0,0,0,0
2971,1,-8,0,0,0,0,0,0
2972,-1,-7,0,0,0,0,0,0
2973,3,-7,-1,0,0,0,0,0
2974,2,-9,-2,0,0,0,0,0
2975,1,-9,-1,0,0,0,0,0
2976,3,-7,-1,0,0,0,0,0
2977,2,-8,0,0,0,0,0,0
2978,3,-7,-1,0,0,0,0,0
2979,2,-6,-1,0,0,0,0,0
2980,2,-7,0,0,0,0,0,0
2981,4,-8,-1,0,0,0,0,0
2982,5,-8,1,0,0,0,0,0
2983,3,-7,-1,0,0,0,0,0
2984,4,-9,1,0,0,0,0,0
2985,3,-6,-1,0,0,0,0,0
2986,3,-8,-1,0,0,0,0,0
2987,2,-7,0,0,0,0,0,0
2988,2,-9,0,0,0,0,0,0
2989,2,-7,0,0,0,0,0,0
2990,1,-7,0,0,0,0,0,0
2991,2,-7,0,0,0,0,0,0
2992,2,-8,0,0,0,0,0,0
2993,1,-7,0,0,0,0,0,0
2994,1,-8,0,0,0,0,0,0
2995,3,-8,-1,0,0,0,0,0
2996,2,-8,-1,0,0,0,0,0
2997,2,-7,-1,0,0,0,0,0
2998,2,-8,0,0,0,0,0,0
2999,1,-8,-1,0,0,0,0,0
3000,4,-9,-1,0,0,0,0,0
3001,2,-8,0,0,0,0,0,0
3002,2,-9,-1,0,0,0,0,0
3003,3,-8,0,0,0,0,0,0
3004,2,-7,-1,0,0,0,0,0
3005,3,-7,-1,0,0,0,0,0
3006,4,-8,0,0,0,0,0,0
3007,2,-8,0,0,0,0,0,0
3008,2,-6,-2,0,0,0,0,0
3009,2,-8,0,0,0,0,0,0
3010,4,-7,-1,0,0,0,0,0
3011,4,-8,-1,0,0,0,0,0
3012,2,-8,1,0,0,0,0,0
3013,2,-7,-1,0,0,0,0,0
3014,2,-8,0,0,0,0,0,0
3015,1,-7,-1,0,0,0,0,0
3016,3,-9,0,0,0,0,0,0
3017,3,-8,0,0,0,0,0,0
3018,4,-7,-1,0,0,0,0,0
3019,3,-7,-1,0,0,0,0,0
3020,2,-8,1,0,0,0,0,0
3021,3,-7,1,0,0,0,0,0
3022,3,-8,0,0,0,0,0,0
3023,3,-6,0,0,0,0,0,0
3024,1,-6,-2,0,0,0,0,0
3025,5,-7,0,0,0,0,0,0
3026,1,-7,-1,0,0,0,0,0
3027,4,-7,0,0,0,0,0,0
3028,2,-9,0,0,0,0,0,0
3029,5,-8,-1,0,0,0,0,0
3030,5,-9,1,0,0,0,0,0
3031,6,-6,0,0,0,0,0,0
3032,2,-7,-1,0,0,0,0,0
3033,3,-8,0,0,0,0,0,0
3034,3,-7,0,0,0,0,0,0
3035,3,-7,-1,0,0,0,0,0
3036,3,-7,0,0,0,0,0,0
3037,4,-8,-1,0,0,0,0,0
3038,3,-8,0,0,0,0,0,0
3039,3,-7,1,0,0,0,0,0
3040,2,-8,0,0,0,0,0,0
3041,4,-8,0,0,0,0,0,0
3042,2,-8,-1,0,0,0,0,0
3043,-3,-8,255,0,0,0,0,0
3044,5,-8,255,0,0,0,0,0
3045,4,-9,0,0,0,0,0,0
3046,4,-6,-1,0,0,0,0,0
3047,2,-7,0,0,0,0,0,0
3048,4,-6,-1,0,0,0,0,0
3049,0,-7,-1,0,0,0,0,0
3050,3,-7,-1,0,0,0,0,0
3051,3,-7,-1,0,0,0,0,0
3052,2,-8,0,0,0,0,0,0
3053,2,-8,1,0,0,0,0,0
3054,2,-8,0,0,0,0,0,0
3055,1,-7,-1,0,0,0,0,0
3056,3,-9,0,0,0,0,0,0
3057,1,-8,1,0,0,0,0,0
3058,4,-7,0,0,0,0,0,0
3059,3,-7,0,0,0,0,0,0
3060,4,-6,0,0,0,0,0,0
3061,2,-6,-1,0,0,0,0,0
3062,4,-7,-1,0,0,0,0,0
3063,2,-6,-1,0,0,0,0,0
3064,5,-7,-2,0,0,0,0,0
3065,2,-8,-1,0,0,0,0,0
3066,2,-8,-1,0,0,0,0,0
3067,2,-8,-1,0,0,0,0,0
3068,4,-7,0,0,0,0,0,0
3069,1,-7,-2,0,0,0,0,0
3070,2,-9,0,0,0,0,0,0
3071,3,-6,0,0,0,0,0,0
3072,1,-8,1,0,0,0,0,0
3073,2,-8,0,0,0,0,0,0
3074,4,-6,-1,0,0,0,0,0
3075,2,-7,-1,0,0,0,0,0
3076,4,-7,0,0,0,0,0,0
3077,5,-8,0,0,0,0,0,0
3078,2,-7,0,0,0,0,0,0
3079,1,-8,0,0,0,0,0,0
3080,0,-9,0,0,0,0,0,0
3081,2,-7,-1,0,0,0,0,0
3082,1,-7,-1,0,0,0,0,0
3083,3,-7,-1,0,0,0,0,0
3084,2,-7,0,0,0,0,0,0
3085,2,-7,0,0,0,0,0,0
3086,4,-8,-1,0,0,0,0,0
3087,3,-8,-1,0,0,0,0,0
3088,-255,-8,-1,0,0,0,0,0
3089,2,-8,0,0,0,0,0,0
3090,2,-7,0,0,0,0,0,0
3091,3,-8,0,0,0,0,0,0
3092,2,-8,-2,0,0,0,0,0
3093,2,-6,1,0,0,0,0,0
3094,3,-7,0,0,0,0,0,0
3095,0,-9,-3,0,0,0,0,0
3096,3,-7,-1,0,0,0,0,0
3097,4,-8,1,0,0,0,0,0
3098,3,-6,-1,0,0,0,0,0
3099,3,-9,0,0,0,0,0,0
3100,2,-8,-1,0,0,0,0,0
3101,3,-8,-1,0,0,0,0,0
3102,2,-7,0,0,0,0,0,0
3103,3,-7,0,0,0,0,0,0
3104,2,-7,-1,0,0,0,0,0
3105,0,-7,-1,0,0,0,0,0
3106,1,-9,0,0,0,0,0,0
3107,4,-9,-1,0,0,0,0,0
3108,1,-8,-1,0,0,0,0,0
3109,4,-7,-1,0,0,0,0,0
3110,0,-7,-1,0,0,0,0,0
3111,3,-7,-1,0,0,0,0,0
3112,4,-8,-1,0,0,0,0,0
3113,3,-7,0,0,0,0,0,0
3114,2,-8,-1,0,0,0,0,0
3115,2,-7,0,0,0,0,0,0
3116,3,-7,-1,0,0,0,0,0
3117,1,-7,0,0,0,0,0,0
3118,2,-7,0,0,0,0,0,0
3119,3,-8,0,0,0,0,0,0
3120,4,-8,0,0,0,0,0,0
3121,2,-8,1,0,0,0,0,0
3122,2,-8,0,0,0,0,0,0
3123,4,-8,-1,0,0,0,0,0
3124,3,-8,-1,0,0,0,0,0
3125,3,-9,-1,0,0,0,0,0
3126,3,-8,0,0,0,0,0,0
3127,2,-7,1,0,0,0,0,0
3128,3,-8,-1,0,0,0,0,0
3129,3,-7,0,0,0,0,0,0
3130,2,-7,-1,0,0,0,0,0
3131,3,-8,0,0,0,0,0,0
3132,3,-8,0,0,0,0,0,0
3133,2,-7,-1,0,0,0,0,0
3134,4,-7,-1,0,0,0,0,0
3135,3,-7,1,0,0,0,0,0
3136,3,-6,-1,0,0,0,0,0
3137,4,-7,0,0,0,0,0,0
3138,2,-8,-1,0,0,0,0,0
3139,3,-8,1,0,0,0,0,0
3140,2,-7,-1,0,0,0,0,0
3141,3,-8,0,0,0,0,0,0
3142,1,-8,-1,0,0,0,0,0
3143,2,-6,-1,0,0,0,0,0
3144,3,-7,0,0,0,0,0,0
3145,5,-7,-1,0,0,0,0,0
3146,5,-7,0,0,0,0,0,0
3147,2,-7,0,0,0,0,0,0
3148,3,-8,-1,0,0,0,0,0
3149,3,-7,-2,0,0,0,0,0
3150,3,-7,-2,0,0,0,0,0
3151,4,-8,-1,0,0,0,0,0
3152,2,-7,-1,0,0,0,0,0
3153,3,-7,0,0,0,0,0,0
3154,3,-8,0,0,0,0,0,0
3155,3,-8,0,0,0,0,0,0
3156,3,-8,0,0,0,0,0,0
3157,2,-7,-1,0,0,0,0,0
3158,2,-9,0,0,0,0,0,0
3159,4,-7,0,0,0,0,0,0
3160,3,-7,-1,0,0,0,0,0
3161,3,-7,-1,0,0,0,0,0
3162,1,-6,0,0,0,0,0,0
3163,3,-7,-1,0,0,0,0,0
3164,3,-8,0,0,0,0,0,0
3165,2,-8,-2,0,0,0,0,0
3166,4,-7,-1,0,0,0,0,0
3167,2,-9,0,0,0,0,0,0
3168,3,-8,-1,0,0,0,0,0
3169,3,-8,0,0,0,0,0,0
3170,1,-6,0,0,0,0,0,0
3171,2,-7,0,0,0,0,0,0
3172,2,-6,-1,0,0,0,0,0
3173,2,-7,0,0,0,0,0,0
3174,4,-7,-1,0,0,0,0,0
3175,1,-8,-1,0,0,0,0,0
3176,3,-8,-1,0,0,0,0,0
3177,2,-7,0,0,0,0,0,0
3178,3,-8,0,0,0,0,0,0
3179,2,-8,0,0,0,0,0,0
3180,3,-9,-1,0,0,0,0,0
3181,3,-7,0,0,0,0,0,0
3182,3,-6,-2,0,0,0,0,0
3183,3,-7,-1,0,0,0,0,0
3184,1,-7,0,0,0,0,0,0
3185,3,-7,-2,0,0,0,0,0
3186,3,-7,0,0,0,0,0,0
3187,3,-6,0,0,0,0,0,0
3188,2,-7,-1,0,0,0,0,0
3189,4,-8,-1,0,0,0,0,0
3190,3,-7,0,0,0,0,0,0
3191,3,-6,-1,0,0,0,0,0
3192,2,-8,0,0,0,0,0,0
3193,2,-7,-1,0,0,0,0,0
3194,3,-7,255,0,0,0,0,0
3195,3,-7,-1,0,0,0,0,0
3196,3,-6,0,0,0,0,0,0
3197,4,-7,0,0,0,0,0,0
3198,3,-8,-1,0,0,0,0,0
3199,2,-8,0,0,0,0,0,0
3200,3,-9,0,0,0,0,0,0
3201,3,-7,2,0,0,0,0,0
3202,3,-7,0,0,0,0,0,0
3203,4,-7,0,0,0,0,0,0
3204,2,-7,-1,0,0,0,0,0
3205,2,-8,-2,0,0,0,0,0
3206,2,-7,-1,0,0,0,0,0
3207,3,-7,-1,0,0,0,0,0
3208,2,-9,0,0,0,0,0,0
3209,0,-8,0,0,0,0,0,0
3210,3,-7,-1,0,0,0,0,0
3211,3,-6,1,0,0,0,0,0
3212,4,-6,-1,0,0,0,0,0
3213,2,-6,0,0,0,0,0,0
3214,4,-6,-1,0,0,0,0,0
3215,3,-7,0,0,0,0,0,0
3216,3,-8,0,0,0,0,0,0
3217,3,-7,0,0,0,0,0,0
3218,2,-7,1,0,0,0,0,0
3219,3,-8,0,0,0,0,0,0
3220,2,-7,-1,0,0,0,0,0
3221,2,-8,0,0,0,0,0,0
3222,3,-7,0,0,0,0,0,0
3223,4,-7,0,0,0,0,0,0
3224,4,-8,0,0,0,0,0,0
3225,3,-8,0,0,0,0,0,0
3226,2,-6,0,0,0,0,0,0
3227,3,-8,0,0,0,0,0,0
3228,2,-7,0,0,0,0,0,0
3229,2,-8,0,0,0,0,0,0
3230,2,-7,-1,0,0,0,0,0
3231,1,-7,1,0,0,0,0,0
3232,3,-7,-1,0,0,0,0,0
3233,5,-7,0,0,0,0,0,0
3234,4,-7,0,0,0,0,0,0
3235,2,-9,0,0,0,0,0,0
3236,3,-8,-1,0,0,0,0,0
3237,1,-8,255,0,0,0,0,0
3238,4,-8,0,0,0,0,0,0
3239,4,-8,0,0,0,0,0,0
3240,3,-8,-1,0,0,0,0,0
3241,2,-7,0,0,0,0,0,0
3242,2,-7,0,0,0,0,0,0
3243,3,-8,-1,0,0,0,0,0
3244,2,-7,-1,0,0,0,0,0
3245,2,-8,-1,0,0,0,0,0
3246,2,-7,0,0,0,0,0,0
3247,3,-6,-1,0,0,0,0,0
3248,-4,-9,0,0,0,0,0,0
3249,3,-9,-3,0,0,0,0,0
3250,3,-7,0,0,0,0,0,0
3251,2,-6,-1,0,0,0,0,0
3252,-4,-9,-1,0,0,0,0,0
3253,5,-7,-1,0,0,0,0,0
3254,4,-7,1,0,0,0,0,0
3255,-1,-8,0,0,0,0,0,0
3256,3,-6,-1,0,0,0,0,0
3257,3,-6,-2,0,0,0,0,0
3258,2,-8,-1,0,0,0,0,0
3259,4,-8,0,0,0,0,0,0
3260,2,-7,0,0,0,0,0,0
3261,1,-8,-1,0,0,0,0,0
3262,3,-8,0,0,0,0,0,0
3263,3,-9,-2,0,0,0,0,0
3264,4,-8,0,0,0,0,0,0
3265,2,-7,0,0,0,0,0,0
3266,3,-9,-1,0,0,0,0,0
3267,3,-7,0,0,0,0,0,0
3268,3,-8,1,0,0,0,0,0
3269,1,-9,-1,0,0,0,0,0
3270,2,-7,0,0,0,0,0,0
3271,1,-8,-1,0,0,0,0,0
3272,2,-7,-1,0,0,0,0,0
3273,3,-6,0,0,0,0,0,0
3274,4,-7,-1,0,0,0,0,0
3275,3,-6,-1,0,0,0,0,0
3276,4,-8,0,0,0,0,0,0
3277,1,-9,0,0,0,0,0,0
3278,3,-7,-1,0,0,0,0,0
3279,2,-7,-1,0,0,0,0,0
3280,3,-6,0,0,0,0,0,0
3281,2,-7,-1,0,0,0,0,0
3282,4,-5,-1,0,0,0,0,0
3283,2,-8,-1,0,0,0,0,0
3284,2,-6,-1,0,0,0,0,0
3285,6,-8,1,0,0,0,0,0
3286,4,-7,1,0,0,0,0,0
3287,4,-8,-2,0,0,0,0,0
3288,2,-8,-1,0,0,0,0,0
3289,3,-8,0,0,0,0,0,0
3290,3,-7,-1,0,0,0,0,0
3291,1,-6,0,0,0,0,0,0
3292,4,-7,-1,0,0,0,0,0
3293,1,-9,0,0,0,0,0,0
3294,2,-7,0,0,0,0,0,0
3295,4,-8,1,0,0,0,0,0
3296,0,-8,-1,0,0,0,0,0
3297,2,-6,-1,0,0,0,0,0
3298,2,-8,0,0,0,0,0,0
3299,4,-7,0,0,0,0,0,0
3300,3,-9,-1,0,0,0,0,0
3301,3,-7,0,0,0,0,0,0
3302,3,-6,1,0,0,0,0,0
3303,4,-8,0,0,0,0,0,0
3304,2,-7,-256,0,0,0,0,0
3305,2,-9,-1,0,0,0,0,0
3306,2,-9,0,0,0,0,0,0
3307,2,-8,-1,0,0,0,0,0
3308,3,-8,0,0,0,0,0,0
3309,2,-7,1,0,0,0,0,0
3310,4,-7,-1,0,0,0,0,0
3311,4,-8,0,0,0,0,0,0
3312,1,-8,0,0,0,0,0,0
3313,3,-7,0,0,0,0,0,0
3314,2,-8,-1,0,0,0,0,0
3315,3,-6,0,0,0,0,0,0
3316,3,-7,1,0,0,0,0,0
3317,2,-7,0,0,0,0,0,0
3318,2,-7,-2,0,0,0,0,0
3319,0,-8,0,0,0,0,0,0
3320,3,-8,0,0,0,0,0,0
3321,2,-8,-1,0,0,0,0,0
3322,1,-7,-1,0,0,0,0,0
3323,3,-7,-2,0,0,0,0,0
3324,2,-8,-1,0,0,0,0,0
3325,2,-7,0,0,0,0,0,0
3326,3,-6,0,0,0,0,0,0
3327,2,-6,-1,0,0,0,0,0
3328,3,-8,0,0,0,0,0,0
3329,2,-6,-1,0,0,0,0,0
3330,3,-7,0,0,0,0,0,0
3331,2,-8,0,0,0,0,0,0
3332,2,-7,-1,0,0,0,0,0
3333,0,-7,0,0,0,0,0,0
3334,4,-8,1,0,0,0,0,0
3335,3,-8,2,0,0,0,0,0
3336,3,-6,0,0,0,0,0,0
3337,2,-8,-1,0,0,0,0,0
3338,2,-6,1,0,0,0,0,0
3339,2,-7,0,0,0,0,0,0
3340,3,-7,0,0,0,0,0,0
3341,4,-7,0,0,0,0,0,0
3342,3,-8,0,0,0,0,0,0
3343,3,-8,1,0,0,0,0,0
3344,3,-7,1,0,0,0,0,0
3345,2,-7,-1,0,0,0,0,0
3346,2,-7,0,0,0,0,0,0
3347,2,-7,0,0,0,0,0,0
3348,4,-7,0,0,0,0,0,0
3349,2,-6,-1,0,0,0,0,0
3350,4,-7,-1,0,0,0,0,0
3351,3,-8,1,0,0,0,0,0
3352,2,-8,0,0,0,0,0,0
3353,2,-7,-1,0,0,0,0,0
3354,2,-7,-1,0,0,0,0,0
3355,4,-7,1,0,0,0,0,0
3356,1,-7,-2,0,0,0,0,0
3357,4,-8,-1,0,0,0,0,0
3358,2,-9,1,0,0,0,0,0
3359,4,-7,0,0,0,0,0,0
3360,1,-9,-1,0,0,0,0,0
3361,3,-7,0,0,0,0,0,0
3362,2,-8,0,0,0,0,0,0
3363,2,-7,-2,0,0,0,0,0
3364,3,-7,0,0,0,0,0,0
3365,4,-7,0,0,0,0,0,0
3366,2,-6,-2,0,0,0,0,0
3367,2,-7,0,0,0,0,0,0
3368,2,-8,-1,0,0,0,0,0
3369,2,-7,0,0,0,0,0,0
3370,3,-7,0,0,0,0,0,0
3371,4,-7,0,0,0,0,0,0
3372,2,-7,0,0,0,0,0,0
3373,3,-7,-1,0,0,0,0,0
3374,3,-7,0,0,0,0,0,0
3375,2,-7,-1,0,0,0,0,0
3376,3,-7,0,0,0,0,0,0
3377,2,-8,1,0,0,0,0,0
3378,4,-8,-1,0,0,0,0,0
3379,3,-8,-1,0,0,0,0,0
3380,2,-7,0,0,0,0,0,0
3381,3,-6,0,0,0,0,0,0
3382,2,-7,-1,0,0,0,0,0
3383,3,-7,1,0,0,0,0,0
3384,3,-7,1,0,0,0,0,0
3385,2,-7,1,0,0,0,0,0
3386,2,-7,0,0,0,0,0,0
3387,3,-7,0,0,0,0,0,0
3388,3,-7,-1,0,0,0,0,0
3389,2,-7,-1,0,0,0,0,0
3390,4,-7,-1,0,0,0,0,0
3391,4,-6,-1,0,0,0,0,0
3392,3,-7,1,0,0,0,0,0
3393,1,-7,-2,0,0,0,0,0
3394,2,-6,-1,0,0,0,0,0
3395,2,-7,0,0,0,0,0,0
3396,1,-8,0,0,0,0,0,0
3397,2,-8,0,0,0,0,0,0
3398,2,-8,-1,0,0,0,0,0
3399,2,-7,-1,0,0,0,0,0
3400,5,-7,-1,0,0,0,0,0
3401,4,-8,-1,0,0,0,0,0
3402,3,-7,0,0,0,0,0,0
3403,2,-7,-1,0,0,0,0,0
3404,2,-7,-1,0,0,0,0,0
3405,3,-7,-1,0,0,0,0,0
3406,2,-7,0,0,0,0,0,0
3407,1,-7,-1,0,0,0,0,0
3408,1,-7,0,0,0,0,0,0
3409,3,-7,-2,0,0,0,0,0
3410,3,-8,-2,0,0,0,0,0
3411,2,-8,-1,0,0,0,0,0
3412,1,-7,0,0,0,0,0,0
3413,1,-8,-1,0,0,0,0,0
3414,3,-8,-1,0,0,0,0,0
3415,4,-8,0,0,0,0,0,0
3416,3,-7,-1,0,0,0,0,0
3417,1,-8,0,0,0,0,0,0
3418,3,-7,0,0,0,0,0,0
3419,2,-6,1,0,0,0,0,0
3420,4,-7,0,0,0,0,0,0
3421,3,-7,-1,0,0,0,0,0
3422,3,-7,-1,0,0,0,0,0
3423,2,-6,0,0,0,0,0,0
3424,3,-8,1,0,0,0,0,0
3425,2,-8,1,0,0,0,0,0
3426,3,-8,-2,0,0,0,0,0
3427,2,-7,0,0,0,0,0,0
3428,2,-8,-1,0,0,0,0,0
3429,3,-7,-1,0,0,0,0,0
3430,3,-8,0,0,0,0,0,0
3431,4,-7,-1,0,0,0,0,0
3432,4,-9,-1,0,0,0,0,0
3433,4,-7,0,0,0,0,0,0
3434,2,-8,0,0,0,0,0,0
3435,2,-8,0,0,0,0,0,0
3436,1,-7,-1,0,0,0,0,0
3437,3,-7,-1,0,0,0,0,0
3438,3,-7,0,0,0,0,0,0
3439,3,-7,0,0,0,0,0,0
3440,4,-8,0,0,0,0,0,0
3441,3,-7,0,0,0,0,0,0
3442,5,-7,0,0,0,0,0,0
3443,4,-7,0,0,0,0,0,0
3444,3,-6,-1,0,0,0,0,0
3445,2,-6,-1,0,0,0,0,0
3446,3,-8,-1,0,0,0,0,0
3447,1,-7,-1,0,0,0,0,0
3448,3,-8,0,0,0,0,0,0
3449,3,-7,-1,0,0,0,0,0
3450,3,-6,-1,0,0,0,0,0
3451,3,-8,-1,0,0,0,0,0
3452,3,-7,1,0,0,0,0,0
3453,1,-7,-2,0,0,0,0,0
3454,2,-7,1,0,0,0,0,0
3455,2,-8,-1,0,0,0,0,0
3456,2,-7,-1,0,0,0,0,0
3457,4,-8,-1,0,0,0,0,0
3458,2,-7,-1,0,0,0,0,0
3459,3,-9,-1,0,0,0,0,0
3460,3,-7,0,0,0,0,0,0
3461,4,-8,0,0,0,0,0,0
3462,3,-6,-1,0,0,0,0,0
3463,3,-8,0,0,0,0,0,0
3464,2,-8,-1,0,0,0,0,0
3465,3,-8,-1,0,0,0,0,0
3466,3,-6,0,0,0,0,0,0
3467,2,-7,-1,0,0,0,0,0
3468,3,-7,0,0,0,0,0,0
3469,3,-8,0,0,0,0,0,0
3470,3,-6,-1,0,0,0,0,0
3471,2,-7,-2,0,0,0,0,0
3472,3,-6,-1,0,0,0,0,0
3473,2,-7,-1,0,0,0,0,0
3474,3,-7,0,0,0,0,0,0
3475,0,-6,0,0,0,0,0,0
3476,3,-7,-2,0,0,0,0,0
3477,2,-9,-1,0,0,0,0,0
3478,3,-8,-1,0,0,0,0,0
3479,3,-7,0,0,0,0,0,0
3480,4,-7,0,0,0,0,0,0
3481,1,-6,1,0,0,0,0,0
3482,2,-6,0,0,0,0,0,0
3483,3,-8,0,0,0,0,0,0
3484,4,-8,0,0,0,0,0,0
3485,3,-8,-2,0,0,0,0,0
3486,2,-6,-1,0,0,0,0,0
3487,3,-7,1,0,0,0,0,0
3488,3,-9,2,0,0,0,0,0
3489,4,-8,1,0,0,0,0,0
3490,4,-8,-1,0,0,0,0,0
3491,2,-8,0,0,0,0,0,0
3492,4,-7,0,0,0,0,0,0
3493,4,-7,0,0,0,0,0,0
3494,3,-6,0,0,0,0,0,0
3495,3,-8,-1,0,0,0,0,0
3496,2,-7,-1,0,0,0,0,0
3497,2,-8,-1,0,0,0,0,0
3498,2,-9,-1,0,0,0,0,0
3499,3,-9,-2,0,0,0,0,0
3500,2,-7,0,0,0,0,0,0
3501,2,-6,-1,0,0,0,0,0
3502,3,-7,0,0,0,0,0,0
3503,3,-8,0,0,0,0,0,0
3504,1,-7,-1,0,0,0,0,0
3505,5,-7,0,0,0,0,0,0
3506,2,-8,0,0,0,0,0,0
3507,1,-7,0,0,0,0,0,0
3508,3,-6,-1,0,0,0,0,0
3509,3,-6,0,0,0,0,0,0
3510,3,-9,1,0,0,0,0,0
3511,2,-8,0,0,0,0,0,0
3512,2,-7,0,0,0,0,0,0
3513,1,-7,-1,0,0,0,0,0
3514,3,-8,0,0,0,0,0,0
3515,0,-7,0,0,0,0,0,0
3516,4,-7,1,0,0,0,0,0
3517,2,-6,-1,0,0,0,0,0
3518,2,-8,-1,0,0,0,0,0
3519,2,-6,0,0,0,0,0,0
3520,3,-8,0,0,0,0,0,0
3521,3,-7,1,0,0,0,0,0
3522,2,-6,1,0,0,0,0,0
3523,2,-7,1,0,0,0,0,0
3524,4,-7,0,0,0,0,0,0
3525,4,-8,0,0,0,0,0,0
3526,3,-7,1,0,0,0,0,0
3527,1,-8,-1,0,0,0,0,0
3528,3,-6,0,0,0,0,0,0
3529,3,-8,0,0,0,0,0,0
3530,2,-6,-1,0,0,0,0,0
3531,2,-7,0,0,0,0,0,0
3532,3,-8,0,0,0,0,0,0
3533,3,-8,1,0,0,0,0,0
3534,3,-9,1,0,0,0,0,0
3535,4,-9,-1,0,0,0,0,0
3536,3,-7,0,0,0,0,0,0
3537,2,-6,-1,0,0,0,0,0
3538,2,-7,-1,0,0,0,0,0
3539,2,-7,-1,0,0,0,0,0
3540,1,-8,-1,0,0,0,0,0
3541,2,-8,0,0,0,0,0,0
3542,4,-9,3,0,0,0,0,0
3543,4,-7,1,0,0,0,0,0
3544,1,-8,0,0,0,0,0,0
3545,2,-7,1,0,0,0,0,0
3546,2,-9,0,0,0,0,0,0
3547,1,-6,-1,0,0,0,0,0
3548,2,-7,0,0,0,0,0,0
3549,2,-7,0,0,0,0,0,0
3550,2,-7,-1,0,0,0,0,0
3551,3,-8,-1,0,0,0,0,0
3552,4,-7,-1,0,0,0,0,0
3553,1,-7,-1,0,0,0,0,0
3554,3,-8,0,0,0,0,0,0
3555,3,-7,0,0,0,0,0,0
3556,3,-6,-1,0,0,0,0,0
3557,2,-7,-1,0,0,0,0,0
3558,2,-7,0,0,0,0,0,0
3559,3,-8,0,0,0,0,0,0
3560,3,-8,-1,0,0,0,0,0
3561,3,-6,-1,0,0,0,0,0
3562,3,-7,-1,0,0,0,0,0
3563,4,-8,-1,0,0,0,0,0
3564,4,-8,0,0,0,0,0,0
3565,3,-8,0,0,0,0,0,0
3566,4,-7,0,0,0,0,0,0
3567,3,-8,-1,0,0,0,0,0
3568,3,-8,-1,0,0,0,0,0
3569,1,-9,1,0,0,0,0,0
3570,4,-7,0,0,0,0,0,0
3571,4,-7,-1,0,0,0,0,0
3572,0,-7,0,0,0,0,0,0
3573,3,-7,1,0,0,0,0,0
3574,3,-8,-1,0,0,0,0,0
3575,4,-7,1,0,0,0,0,0
3576,2,-9,-1,0,0,0,0,0
3577,2,-7,1,0,0,0,0,0
3578,1,-6,-2,0,0,0,0,0
3579,4,-9,-1,0,0,0,0,0
3580,1,-8,0,0,0,0,0,0
3581,3,-8,-1,0,0,0,0,0
3582,1,-6,0,0,0,0,0,0
3583,3,-8,0,0,0,0,0,0
3584,2,-8,-1,0,0,0,0,0
3585,4,-6,0,0,0,0,0,0
3586,5,-8,0,0,0,0,0,0
3587,4,-9,0,0,0,0,0,0
3588,3,-8,-1,0,0,0,0,0
3589,2,-7,-1,0,0,0,0,0
3590,3,-8,0,0,0,0,0,0
3591,1,-8,0,0,0,0,0,0
3592,2,-7,-1,0,0,0,0,0
3593,2,-8,-1,0,0,0,0,0
3594,4,-8,0,0,0,0,0,0
3595,3,-7,0,0,0,0,0,0
3596,2,-6,-1,0,0,0,0,0
3597,3,-7,0,0,0,0,0,0
3598,4,-7,0,0,0,0,0,0
3599,3,-7,-1,0,0,0,0,0
3600,3,-8,-1,0,0,0,0,0
3601,2,-7,255,0,0,0,0,0
3602,2,-8,0,0,0,0,0,0
3603,1,-6,0,0,0,0,0,0
3604,3,-8,0,0,0,0,0,0
3605,2,-7,-1,0,0,0,0,0
3606,2,-8,0,0,0,0,0,0
3607,3,-8,0,0,0,0,0,0
3608,4,-7,-1,0,0,0,0,0
3609,2,-6,-1,0,0,0,0,0
3610,2,-8,0,0,0,0,0,0
3611,4,-8,0,0,0,0,0,0
3612,4,-8,0,0,0,0,0,0
3613,3,-7,-1,0,0,0,0,0
3614,3,-8,1,0,0,0,0,0
3615,2,-8,0,0,0,0,0,0
3616,3,-6,-2,0,0,0,0,0
3617,5,-7,0,0,0,0,0,0
3618,4,-7,-1,0,0,0,0,0
3619,4,-7,0,0,0,0,0,0
3620,1,-8,0,0,0,0,0,0
3621,3,-7,0,0,0,0,0,0
3622,3,-7,0,0,0,0,0,0
3623,2,-7,-1,0,0,0,0,0
3624,2,-7,-2,0,0,0,0,0
3625,3,-7,-1,0,0,0,0,0
3626,2,-9,0,0,0,0,0,0
3627,2,-8,0,0,0,0,0,0
3628,1,-7,-1,0,0,0,0,0
3629,1,-8,0,0,0,0,0,0
3630,3,-9,0,0,0,0,0,0
3631,3,-7,0,0,0,0,0,0
3632,1,-7,255,0,0,0,0,0
3633,3,-8,-1,0,0,0,0,0
3634,-1,-7,-1,0,0,0,0,0
3635,2,-7,1,0,0,0,0,0
3636,1,-6,-1,0,0,0,0,0
3637,3,-8,0,0,0,0,0,0
3638,2,-6,-1,0,0,0,0,0
3639,4,-7,-1,0,0,0,0,0
3640,3,-7,0,0,0,0,0,0
3641,3,-8,0,0,0,0,0,0
3642,0,-7,-1,0,0,0,0,0
3643,3,-8,0,0,0,0,0,0
3644,2,-8,-1,0,0,0,0,0
3645,1,-6,0,0,0,0,0,0
3646,2,-7,0,0,0,0,0,0
3647,2,-8,-1,0,0,0,0,0
3648,4,-8,-1,0,0,0,0,0
3649,2,-7,-2,0,0,0,0,0
3650,1,-7,0,0,0,0,0,0
3651,2,-7,-1,0,0,0,0,0
3652,2,-7,0,0,0,0,0,0
3653,3,-6,-1,0,0,0,0,0
3654,4,-6,-1,0,0,0,0,0
3655,2,-8,-1,0,0,0,0,0
3656,3,-6,-1,0,0,0,0,0
3657,4,-6,-1,0,0,0,0,0
3658,3,-8,0,0,0,0,0,0
3659,4,-7,-1,0,0,0,0,0
3660,2,-8,0,0,0,0,0,0
3661,3,-7,-1,0,0,0,0,0
3662,2,-7,-1,0,0,0,0,0
3663,3,-7,1,0,0,0,0,0
3664,2,-7,-256,0,0,0,0,0
3665,0,-7,-1,0,0,0,0,0
3666,2,-7,0,0,0,0,0,0
3667,3,-7,0,0,0,0,0,0
3668,3,-7,-1,0,0,0,0,0
3669,4,-8,0,0,0,0,0,0
3670,1,-6,0,0,0,0,0,0
3671,2,-6,-1,0,0,0,0,0
3672,3,-8,0,0,0,0,0,0
3673,3,-7,0,0,0,0,0,0
3674,3,-8,0,0,0,0,0,0
3675,1,-6,0,0,0,0,0,0
3676,2,-8,0,0,0,0,0,0
3677,4,-6,0,0,0,0,0,0
3678,3,-6,0,0,0,0,0,0
3679,0,-8,0,0,0,0,0,0
3680,2,-6,-1,0,0,0,0,0
3681,3,-7,0,0,0,0,0,0
3682,2,-8,0,0,0,0,0,0
3683,2,-7,0,0,0,0,0,0
3684,1,-7,-1,0,0,0,0,0
3685,3,-9,-2,0,0,0,0,0
3686,2,-7,2,0,0,0,0,0
3687,3,-8,0,0,0,0,0,0
3688,4,-8,-1,0,0,0,0,0
3689,2,-7,-1,0,0,0,0,0
3690,3,-8,-1,0,0,0,0,0
3691,2,-6,-1,0,0,0,0,0
3692,2,-7,0,0,0,0,0,0
3693,3,-7,0,0,0,0,0,0
3694,3,-7,1,0,0,0,0,0
3695,2,-7,0,0,0,0,0,0
3696,4,-8,1,0,0,0,0,0
3697,2,-7,-2,0,0,0,0,0
3698,2,-9,0,0,0,0,0,0
3699,2,-8,-1,0,0,0,0,0
3700,2,-9,0,0,0,0,0,0
3701,2,-8,0,0,0,0,0,0
3702,4,-7,0,0,0,0,0,0
3703,4,-8,-1,0,0,0,0,0
3704,3,-6,0,0,0,0,0,0
3705,3,-8,0,0,0,0,0,0
3706,2,-7,-1,0,0,0,0,0
3707,1,-6,0,0,0,0,0,0
3708,1,-7,-2,0,0,0,0,0
3709,2,-8,0,0,0,0,0,0
3710,3,-8,-1,0,0,0,0,0
3711,0,-8,0,0,0,0,0,0
3712,2,-7,0,0,0,0,0,0
3713,3,-7,0,0,0,0,0,0
3714,2,-7,-1,0,0,0,0,0
3715,2,-7,-1,0,0,0,0,0
3716,1,-8,-1,0,0,0,0,0
3717,2,-8,0,0,0,0,0,0
3718,2,-8,0,0,0,0,0,0
3719,4,-7,0,0,0,0,0,0
3720,2,-8,0,0,0,0,0,0
3721,1,-8,-1,0,0,0,0,0
3722,4,-8,-1,0,0,0,0,0
3723,2,-8,0,0,0,0,0,0
3724,4,-7,0,0,0,0,0,0
3725,2,-7,-2,0,0,0,0,0
3726,3,-6,-1,0,0,0,0,0
3727,4,-7,-1,0,0,0,0,0
3728,4,-7,-1,0,0,0,0,0
3729,1,-8,0,0,0,0,0,0
3730,0,-7,-2,0,0,0,0,0
3731,4,-7,-1,0,0,0,0,0
3732,3,-7,-1,0,0,0,0,0
3733,2,-8,0,0,0,0,0,0
3734,5,-8,0,0,0,0,0,0
3735,1,-7,0,0,0,0,0,0
3736,2,-7,0,0,0,0,0,0
3737,2,-8,0,0,0,0,0,0
3738,3,-7,1,0,0,0,0,0
3739,3,-8,-1,0,0,0,0,0
3740,2,-8,0,0,0,0,0,0
3741,2,-7,1,0,0,0,0,0
3742,4,-7,0,0,0,0,0,0
3743,3,-6,1,0,0,0,0,0
3744,1,-7,-1,0,0,0,0,0
3745,0,-8,-1,0,0,0,0,0
3746,3,-7,1,0,0,0,0,0
3747,3,-7,0,0,0,0,0,0
3748,0,-7,-1,0,0,0,0,0
3749,2,-8,-2,0,0,0,0,0
3750,1,-8,0,0,0,0,0,0
3751,4,-8,0,0,0,0,0,0
3752,3,-8,0,0,0,0,0,0
3753,3,-9,-1,0,0,0,0,0
3754,3,-9,0,0,0,0,0,0
3755,3,-8,-1,0,0,0,0,0
3756,1,-7,-1,0,0,0,0,0
3757,4,-8,0,0,0,0,0,0
3758,3,-7,0,0,0,0,0,0
3759,5,-7,0,0,0,0,0,0
3760,1,-7,-1,0,0,0,0,0
3761,3,-8,0,0,0,0,0,0
3762,5,-7,0,0,0,0,0,0
3763,0,-8,0,0,0,0,0,0
3764,6,-5,1,0,0,0,0,0
3765,0,-7,1,0,0,0,0,0
3766,5,-8,-1,0,0,0,0,0
3767,4,-8,0,0,0,0,0,0
3768,1,-8,0,0,0,0,0,0
3769,1,-7,-1,0,0,0,0,0
3770,2,-8,1,0,0,0,0,0
3771,3,-7,-1,0,0,0,0,0
3772,2,-7,-1,0,0,0,0,0
3773,1,-7,-1,0,0,0,0,0
3774,2,-7,0,0,0,0,0,0
3775,4,-7,0,0,0,0,0,0
3776,3,-8,0,0,0,0,0,0
3777,2,-8,-1,0,0,0,0,0
3778,3,-7,-1,0,0,0,0,0
3779,1,-7,-1,0,0,0,0,0
3780,3,-7,-1,0,0,0,0,0
3781,3,-7,1,0,0,0,0,0
3782,2,-8,0,0,0,0,0,0
3783,4,-7,0,0,0,0,0,0
3784,3,-8,-1,0,0,0,0,0
3785,5,-7,0,0,0,0,0,0
3786,3,-7,-1,0,0,0,0,0
3787,1,-7,-1,0,0,0,0,0
3788,2,-8,0,0,0,0,0,0
3789,3,-7,0,0,0,0,0,0
3790,2,-7,-1,0,0,0,0,0
3791,3,-8,1,0,0,0,0,0
3792,3,-7,0,0,0,0,0,0
3793,3,-6,0,0,0,0,0,0
3794,3,-8,-1,0,0,0,0,0
3795,2,-7,-1,0,0,0,0,0
3796,2,-7,-2,0,0,0,0,0
3797,3,-7,-1,0,0,0,0,0
3798,2,-8,-1,0,0,0,0,0
3799,3,-6,-1,0,0,0,0,0
3800,4,-7,0,0,0,0,0,0
3801,3,-7,-1,0,0,0,0,0
3802,4,-7,-1,0,0,0,0,0
3803,5,-6,-1,0,0,0,0,0
3804,4,-9,0,0,0,0,0,0
3805,4,-6,0,0,0,0,0,0
3806,2,-7,0,0,0,0,0,0
3807,2,-7,0,0,0,0,0,0
3808,1,-7,0,0,0,0,0,0
3809,4,-7,-1,0,0,0,0,0
3810,4,-7,-256,0,0,0,0,0
3811,5,-7,1,0,0,0,0,0
3812,3,-8,0,0,0,0,0,0
3813,3,-7,-256,0,0,0,0,0
3814,5,-6,0,0,0,0,0,0
3815,0,-7,-1,0,0,0,0,0
3816,2,-8,0,0,0,0,0,0
3817,2,-8,-1,0,0,0,0,0
3818,5,-8,-1,0,0,0,0,0
3819,4,-8,0,0,0,0,0,0
3820,6,-8,0,0,0,0,0,0
3821,3,-7,-1,0,0,0,0,0
3822,5,-7,0,0,0,0,0,0
3823,6,-6,0,0,0,0,0,0
3824,1,-7,0,0,0,0,0,0
3825,2,-7,-1,0,0,0,0,0
3826,2,-8,0,0,0,0,0,0
3827,4,-7,0,0,0,0,0,0
3828,1,-8,-1,0,0,0,0,0
3829,4,-7,-1,0,0,0,0,0
3830,4,-7,0,0,0,0,0,0
3831,3,-8,-1,0,0,0,0,0
3832,1,-8,-1,0,0,0,0,0
3833,3,-8,-1,0,0,0,0,0
3834,2,-6,0,0,0,0,0,0
3835,4,-9,-1,0,0,0,0,0
3836,4,-6,-1,0,0,0,0,0
3837,3,-7,-1,0,0,0,0,0
3838,3,-8,-1,0,0,0,0,0
3839,4,-8,0,0,0,0,0,0
3840,1,-8,-1,0,0,0,0,0
3841,3,-7,-1,0,0,0,0,0
3842,3,-6,0,0,0,0,0,0
3843,1,-8,-1,0,0,0,0,0
3844,4,-8,-1,0,0,0,0,0
3845,1,-8,0,0,0,0,0,0
3846,3,-7,-1,0,0,0,0,0
3847,2,-7,1,0,0,0,0,0
3848,3,-7,0,0,0,0,0,0
3849,2,-8,0,0,0,0,0,0
3850,1,-7,0,0,0,0,0,0
3851,3,-6,0,0,0,0,0,0
3852,3,-7,0,0,0,0,0,0
3853,1,-7,0,0,0,0,0,0
3854,4,-7,1,0,0,0,0,0
3855,1,-8,0,0,0,0,0,0
3856,2,-7,0,0,0,0,0,0
3857,1,-8,0,0,0,0,0,0
3858,4,-8,0,0,0,0,0,0
3859,3,-7,1,0,0,0,0,0
3860,4,-8,1,0,0,0,0,0
3861,1,-8,-1,0,0,0,0,0
3862,2,-6,-1,0,0,0,0,0
3863,2,-8,-1,0,0,0,0,0
3864,3,-7,0,0,0,0,0,0
3865,4,-7,-1,0,0,0,0,0
3866,2,-7,0,0,0,0,0,0
3867,3,-8,-1,0,0,0,0,0
3868,1,-7,-1,0,0,0,0,0
3869,2,-8,0,0,0,0,0,0
3870,2,-8,0,0,0,0,0,0
3871,1,-8,-1,0,0,0,0,0
3872,3,-6,-1,0,0,0,0,0
3873,3,-6,0,0,0,0,0,0
3874,2,-7,0,0,0,0,0,0
3875,0,-9,0,0,0,0,0,0
3876,2,-6,0,0,0,0,0,0
3877,0,-9,0,0,0,0,0,0
3878,3,-6,0,0,0,0,0,0
3879,3,-8,0,0,0,0,0,0
3880,0,-8,-1,0,0,0,0,0
3881,2,-6,-1,0,0,0,0,0
3882,4,-7,0,0,0,0,0,0
3883,3,-9,1,0,0,0,0,0
3884,4,-7,0,0,0,0,0,0
3885,2,-6,0,0,0,0,0,0
3886,2,-8,1,0,0,0,0,0
3887,0,-8,-2,0,0,0,0,0
3888,2,-8,0,0,0,0,0,0
3889,2,-7,-1,0,0,0,0,0
3890,2,-5,0,0,0,0,0,0
3891,5,-7,1,0,0,0,0,0
3892,3,-8,-1,0,0,0,0,0
3893,2,-8,0,0,0,0,0,0
3894,2,-7,0,0,0,0,0,0
3895,2,-8,0,0,0,0,0,0
3896,3,-7,-1,0,0,0,0,0
3897,3,-8,1,0,0,0,0,0
3898,3,-7,0,0,0,0,0,0
3899,2,-8,1,0,0,0,0,0
3900,3,-8,0,0,0,0,0,0
3901,3,-8,0,0,0,0,0,0
3902,2,-7,0,0,0,0,0,0
3903,1,-7,-2,0,0,0,0,0
3904,3,-7,1,0,0,0,0,0
3905,3,-8,-1,0,0,0,0,0
3906,2,-8,0,0,0,0,0,0
3907,2,-7,0,0,0,0,0,0
3908,3,-8,0,0,0,0,0,0
3909,3,-8,0,0,0,0,0,0
3910,2,-8,-1,0,0,0,0,0
3911,3,-9,0,0,0,0,0,0
3912,4,-7,1,0,0,0,0,0
3913,3,-6,-1,0,0,0,0,0
3914,3,-9,-1,0,0,0,0,0
3915,3,-8,0,0,0,0,0,0
3916,4,-8,0,0,0,0,0,0
3917,3,-8,0,0,0,0,0,0
3918,2,-7,0,0,0,0,0,0
3919,3,-8,0,0,0,0,0,0
3920,2,-8,-255,0,0,0,0,0
3921,1,-7,-1,0,0,0,0,0
3922,3,-7,-1,0,0,0,0,0
3923,4,-8,-256,0,0,0,0,0
3924,2,-7,0,0,0,0,0,0
3925,3,-8,-1,0,0,0,0,0
3926,2,-7,-1,0,0,0,0,0
3927,3,-6,0,0,0,0,0,0
3928,2,-7,-1,0,0,0,0,0
3929,3,-8,0,0,0,0,0,0
3930,2,-7,-1,0,0,0,0,0
3931,2,-9,-1,0,0,0,0,0
3932,3,-6,-1,0,0,0,0,0
3933,2,-8,-1,0,0,0,0,0
3934,3,-7,0,0,0,0,0,0
3935,4,-9,-1,0,0,0,0,0
3936,2,-8,-1,0,0,0,0,0
3937,4,-8,0,0,0,0,0,0
3938,1,-6,0,0,0,0,0,0
3939,5,-8,0,0,0,0,0,0
3940,3,-7,0,0,0,0,0,0
3941,4,-7,-1,0,0,0,0,0
3942,2,-7,0,0,0,0,0,0
3943,4,-8,-1,0,0,0,0,0
3944,2,-7,-1,0,0,0,0,0
3945,3,-9,1,0,0,0,0,0
3946,3,-8,0,0,0,0,0,0
3947,3,-9,0,0,0,0,0,0
3948,4,-8,-1,0,0,0,0,0
3949,3,-6,-1,0,0,0,0,0
3950,3,-6,0,0,0,0,0,0
3951,1,-7,0,0,0,0,0,0
3952,3,-7,-1,0,0,0,0,0
3953,2,-8,-1,0,0,0,0,0
3954,2,-7,0,0,0,0,0,0
3955,2,-5,0,0,0,0,0,0
3956,3,-7,-1,0,0,0,0,0
3957,0,-7,0,0,0,0,0,0
3958,3,-7,0,0,0,0,0,0
3959,2,-7,-1,0,0,0,0,0
3960,4,-5,-1,0,0,0,0,0
3961,4,-7,-1,0,0,0,0,0
3962,3,-6,-1,0,0,0,0,0
3963,3,-8,0,0,0,0,0,0
3964,2,-8,0,0,0,0,0,0
3965,3,-7,-1,0,0,0,0,0
3966,2,-8,0,0,0,0,0,0
3967,3,-8,0,0,0,0,0,0
3968,1,-8,0,0,0,0,0,0
3969,1,-7,0,0,0,0,0,0
3970,3,-8,-1,0,0,0,0,0
3971,4,-8,0,0,0,0,0,0
3972,1,-7,-1,0,0,0,0,0
3973,3,-8,0,0,0,0,0,0
3974,3,-7,0,0,0,0,0,0
3975,1,-7,-1,0,0,0,0,0
3976,3,-8,-1,0,0,0,0,0
3977,2,-9,0,0,0,0,0,0
3978,3,-7,0,0,0,0,0,0
3979,3,-8,0,0,0,0,0,0
3980,2,-7,-1,0,0,0,0,0
3981,3,-8,-1,0,0,0,0,0
3982,3,-7,-1,0,0,0,0,0
3983,4,-7,-1,0,0,0,0,0
3984,3,-6,-1,0,0,0,0,0
3985,2,-7,-1,0,0,0,0,0
3986,2,-8,0,0,0,0,0,0
3987,4,-6,-1,0,0,0,0,0
3988,2,-7,-1,0,0,0,0,0
3989,4,-9,0,0,0,0,0,0
3990,3,-7,0,0,0,0,0,0
3991,3,-6,-1,0,0,0,0,0
3992,2,-6,0,0,0,0,0,0
3993,1,-7,0,0,0,0,0,0
3994,1,-8,0,0,0,0,0,0
3995,1,-8,0,0,0,0,0,0
3996,2,-8,-1,0,0,0,0,0
3997,2,-9,0,0,0,0,0,0
3998,2,-8,0,0,0,0,0,0
3999,2,-8,0,0,0,0,0,0
4000,3,-6,-1,0,0,0,0,0
4001,3,-7,0,0,0,0,0,0
4002,3,-7,0,0,0,0,0,0
4003,3,-7,-1,0,0,0,0,0
4004,2,-7,0,0,0,0,0,0
4005,2,-8,-1,0,0,0,0,0
4006,4,-7,0,0,0,0,0,0
4007,3,-8,0,0,0,0,0,0
4008,5,-8,-1,0,0,0,0,0
4009,2,-7,0,0,0,0,0,0
4010,3,-8,0,0,0,0,0,0
4011,4,-8,-1,0,0,0,0,0
4012,4,-8,0,0,0,0,0,0
4013,3,-8,-1,0,0,0,0,0
4014,0,-9,0,0,0,0,0,0
4015,2,-6,-1,0,0,0,0,0
4016,1,-9,0,0,0,0,0,0
4017,5,-8,1,0,0,0,0,0
4018,5,-7,-2,0,0,0,0,0
4019,1,-8,-1,0,0,0,0,0
4020,3,-7,0,0,0,0,0,0
4021,3,-8,-1,0,0,0,0,0
4022,4,-8,0,0,0,0,0,0
4023,4,-8,-1,0,0,0,0,0
4024,2,-7,0,0,0,0,0,0
4025,2,-7,0,0,0,0,0,0
4026,3,-8,-256,0,0,0,0,0
4027,3,-9,0,0,0,0,0,0
4028,4,-8,1,0,0,0,0,0
4029,1,-8,-1,0,0,0,0,0
4030,3,-7,0,0,0,0,0,0
4031,2,-7,-1,0,0,0,0,0
4032,1,-8,0,0,0,0,0,0
4033,5,-7,1,0,0,0,0,0
4034,0,-7,0,0,0,0,0,0
4035,5,-7,-2,0,0,0,0,0
4036,4,-6,-3,0,0,0,0,0
4037,7,-7,0,0,0,0,0,0
4038,3,-7,-1,0,0,0,0,0
4039,3,-7,0,0,0,0,0,0
4040,2,-6,1,0,0,0,0,0
4041,4,-7,0,0,0,0,0,0
4042,-24,-165,-5,0,0,0,0,0
4043,-40,-154,4,0,0,0,0,0
4044,-35,-156,2,0,0,0,0,0
4045,6,-139,7,0,0,0,0,0
4046,-242,-87,-5,967,0,0,0,0
4047,-26,-126,-2,0,0,0,0,0
4048,67,-114,7,0,0,0,0,0
4049,5,-113,-3,0,0,0,0,0
4050,-33,-94,33,0,0,0,0,0
4051,-90,-124,9,0,0,0,0,0
4052,76,-120,29,0,0,0,0,0
4053,-50,-110,13,0,0,0,0,0
4054,-11,-103,-3,0,0,0,0,0
4055,140,-110,1,0,0,0,0,0
4056,59,-141,-28,0,0,0,0,0
4057,23,-109,11,0,0,0,0,0
4058,-36,-128,-22,0,0,0,0,0
4059,-28,-124,-21,0,0,0,0,0
4060,-54,-118,-6,0,0,0,0,0
4061,-82,-123,32,0,0,0,0,0
4062,23,-113,17,0,0,0,0,0
4063,60,-120,8,0,0,0,0,0
4064,-53,-124,7,0,0,0,0,0
4065,79,-111,-5,0,0,0,0,0
4066,30,-97,24,284,0,0,0,0
4067,-33,-123,19,0,0,0,0,0
4068,64,-82,29,0,0,0,0,0
4069,13,-119,5,0,0,0,0,0
4070,42,-70,25,0,0,0,0,0
4071,62,-74,4,0,0,0,0,0
4072,33,-90,-3,0,0,0,0,0
4073,10,-44,-9,0,0,0,0,0
4074,-5,-84,3,0,0,0,0,0
4075,3,-72,-4,0,0,0,0,0
4076,-39,-57,2,0,0,0,0,0
4077,-115,-78,8,0,0,0,0,0
4078,37,-29,45,0,0,0,0,0
4079,-71,-49,-16,0,0,0,0,0
4080,-44,-70,-8,0,0,0,0,0
4081,-5,-78,-5,0,0,0,0,0
4082,76,-47,-11,0,0,0,0,0
4083,-23,-69,51,0,0,0,0,0
4084,53,-45,-3,0,0,0,0,0
4085,75,-24,-21,1717,0,0,0,0
4086,-10,-58,15,0,0,0,0,0
4087,29,-48,10,1667,0,0,0,0
4088,-5,-42,24,0,0,0,0,0
4089,10,-46,11,487,0,0,0,0
4090,-11,-43,16,0,0,0,0,0
4091,-46,-31,6,0,0,0,0,0
4092,-3,-26,7,0,0,0,0,0
4093,-64,-6,9,0,0,0,0,0
4094,-45,-12,-20,0,0,0,0,0
4095,-151,-36,16,0,0,0,0,0
4096,34,-67,22,0,0,0,0,0
4097,-13,-75,42,0,0,0,0,0
4098,43,-36,28,0,0,0,0,0
4099,6,-27,-1,0,0,0,0,0
4100,70,-36,2,0,0,0,0,0
4101,8,-17,-4,0,0,0,0,0
4102,-5,-27,7,0,0,0,0,0
4103,32,-5,-8,0,0,0,0,0
4104,30,-26,0,0,0,0,0,0
4105,10,-31,5,0,0,0,0,0
4106,-10,-20,15,0,0,0,0,0
4107,10,-1,7,0,0,0,0,0
4108,1,-11,0,0,0,0,0,0
4109,2,-13,7,624,0,0,0,0
4110,-30,70,-14,0,0,0,0,0
4111,-19,-11,-17,0,0,0,0,0
4112,27,-14,-10,0,0,0,0,0
4113,-61,-37,2,0,0,0,0,0
4114,2,-30,4,0,0,0,0,0
4115,-22,-33,3,0,0,0,0,0
4116,-65,-32,-26,0,0,0,0,0
4117,14,-28,6,0,0,0,0,0
4118,-31,-17,14,0,0,0,0,0
4119,5,-22,-13,0,0,0,0,0
4120,41,-17,-12,960,0,0,0,0
4121,86,4,-33,0,0,0,0,0
4122,26,20,-37,959,0,0,0,0
4123,18,322,-3,0,0,0,0,0
4124,-47,306,-10,1049,0,0,0,0
4125,5,317,-3,0,0,0,0,0
4126,78,331,19,675,0,0,0,0
4127,5,314,-7,0,0,0,0,0
4128,131,323,-254,673,0,0,0,0
4129,71,335,17,0,0,0,0,0
4130,37,335,-6,672,0,0,0,0
4131,4,325,0,0,0,0,0,0
4132,69,320,-3,527,0,0,0,0
4133,54,336,-12,671,0,0,0,0
4134,46,319,-5,0,0,0,0,0
4135,-3,328,-9,0,0,0,0,0
4136,-19,325,21,0,0,0,0,0
4137,34,354,-6,0,0,0,0,0
4138,14,322,-5,0,0,0,0,0
4139,81,328,6,0,0,0,0,0
4140,-46,334,13,0,0,0,0,0
4141,92,327,31,0,0,0,0,0
4142,61,322,15,0,0,0,0,0
4143,26,293,23,0,0,0,0,0
4144,5,301,-10,938,0,0,0,0
4145,82,307,9,0,0,0,0,0
4146,-16,266,-9,0,0,0,0,0
4147,74,278,11,0,0,0,0,0
4148,61,274,25,0,0,0,0,0
4149,83,266,7,0,0,0,0,0
4150,14,239,5,0,0,0,0,0
4151,6,240,3,0,0,0,0,0
4152,11,250,-22,0,0,0,0,0
4153,-44,220,7,0,0,0,0,0
4154,63,239,5,0,0,0,0,0
4155,36,233,-2,0,0,0,0,0
4156,39,153,-1,0,0,0,0,0
4157,32,147,14,0,0,0,0,0
4158,9,133,4,0,0,0,0,0
4159,75,161,-5,0,0,0,0,0
4160,38,150,-3,0,0,0,0,0
4161,87,171,-1,0,0,0,0,0
4162,40,130,20,504,0,0,0,0
4163,31,144,9,1072,0,0,0,0
4164,-9,165,-8,1096,0,0,0,0
4165,-50,143,0,0,0,0,0,0
4166,-33,151,-19,0,0,0,0,0
4167,33,130,19,1050,0,0,0,0
4168,-9,143,2,0,0,0,0,0
4169,-1,134,-256,0,0,0,0,0
4170,33,156,7,0,0,0,0,0
4171,52,146,13,1048,0,0,0,0
4172,30,136,0,1049,0,0,0,0
4173,-20,130,-14,0,0,0,0,0
4174,25,133,11,0,0,0,0,0
4175,22,127,18,0,0,0,0,0
4176,1,124,8,0,0,0,0,0
4177,-18,121,16,0,0,0,0,0
4178,6,150,-4,0,0,0,0,0
4179,4,118,1,0,0,0,0,0
4180,-38,109,-11,0,0,0,0,0
4181,38,123,-10,0,0,0,0,0
4182,42,100,9,0,0,0,0,0
4183,12,87,3,0,0,0,0,0
4184,-30,97,5,0,0,0,0,0
4185,63,107,-25,0,0,0,0,0
4186,-36,102,-14,0,0,0,0,0
4187,11,126,-23,0,0,0,0,0
4188,126,92,17,0,0,0,0,0
4189,-15,69,-7,591,0,0,0,0
4190,31,91,-2,0,0,0,0,0
4191,-67,67,22,595,0,0,0,0
4192,63,87,16,0,0,0,0,0
4193,-48,81,-22,0,0,0,0,0
4194,77,100,248,0,0,0,0,0
4195,-63,72,-30,1112,0,0,0,0
4196,31,93,-10,0,0,0,0,0
4197,22,76,19,0,0,0,0,0
4198,-21,51,0,0,0,0,0,0
4199,50,80,7,0,0,0,0,0
4200,-76,63,-4,0,0,0,0,0
4201,42,82,9,1098,0,0,0,0
4202,-25,54,10,0,0,0,0,0
4203,23,79,3,0,0,0,0,0
4204,-1,66,0,0,0,0,0,0
4205,61,75,-8,0,0,0,0,0
4206,-34,70,-11,0,0,0,0,0
4207,38,61,-13,0,0,0,0,0
4208,-28,35,12,0,0,0,0,0
4209,-4,63,-27,0,0,0,0,0
4210,52,50,26,0,0,0,0,0
4211,26,56,-7,0,0,0,0,0
4212,-34,53,-13,0,0,0,0,0
4213,34,51,-22,0,0,0,0,0
4214,-52,54,-7,0,0,0,0,0
4215,-226,55,13,0,0,0,0,0
4216,31,62,32,0,0,0,0,0
4217,22,47,-13,0,0,0,0,0
4218,13,70,2,0,0,0,0,0
4219,-10,57,-1,0,0,0,0,0
4220,62,76,22,0,0,0,0,0
4221,-79,51,-5,710,0,0,0,0
4222,33,55,-3,0,0,0,0,0
4223,-24,41,-29,569,0,0,0,0
4224,83,49,-2,0,0,0,0,0
4225,85,71,23,742,0,0,0,0
4226,-74,34,-9,0,0,0,0,0
4227,24,52,-9,754,0,0,0,0
4228,-22,36,-1,0,0,0,0,0
4229,-62,28,7,764,0,0,0,0
4230,114,49,-5,0,0,0,0,0
4231,41,41,28,772,0,0,0,0
4232,-36,36,-30,0,0,0,0,0
4233,66,54,30,1061,0,0,0,0
4234,31,35,-35,0,0,0,0,0
4235,-22,25,-28,786,0,0,0,0
4236,-6,26,32,0,0,0,0,0
4237,87,30,15,1009,0,0,0,0
4238,-82,4,-7,0,0,0,0,0
4239,63,29,22,0,0,0,0,0
4240,23,28,-15,0,0,0,0,0
4241,-3,13,-3,0,0,0,0,0
4242,5,34,24,0,0,0,0,0
4243,-19,57,8,0,0,0,0,0
4244,57,-6,5,0,0,0,0,0
4245,117,32,-12,0,0,0,0,0
4246,-20,-24,-32,0,0,0,0,0
4247,-80,0,-16,0,0,0,0,0
4248,3,-8,-23,1001,0,0,0,0
4249,128,10,11,0,0,0,0,0
4250,-7,-20,29,0,0,0,0,0
4251,-52,-31,-10,0,0,0,0,0
4252,29,-20,-6,0,0,0,0,0
4253,0,-9,2,0,0,0,0,0
4254,-7,-16,13,0,0,0,0,0
4255,-41,-17,-26,734,0,0,0,0
4256,56,-8,-27,0,0,0,0,0
4257,93,-6,4,1065,0,0,0,0
4258,-37,-17,25,0,0,0,0,0
4259,-134,-60,-39,1060,0,0,0,0
4260,10,0,-9,1061,0,0,0,0
4261,-81,-23,-27,0,0,0,0,0
4262,-125,-52,0,0,0,0,0,0
4263,-7,-31,-28,0,0,0,0,0
4264,-11,-36,-23,0,0,0,0,0
4265,184,-12,-2,0,0,0,0,0
4266,28,-38,-27,0,0,0,0,0
4267,-45,-54,-22,0,0,0,0,0
4268,21,-36,-2,1026,0,0,0,0
4269,-41,-57,14,0,0,0,0,0
4270,25,-50,46,0,0,0,0,0
4271,-16,-71,13,0,0,0,0,0
4272,22,-57,-16,1023,0,0,0,0
4273,20,-83,13,0,0,0,0,0
4274,-38,-69,-5,1027,0,0,0,0
4275,38,-75,-3,0,0,0,0,0
4276,-104,-110,-1,1024,0,0,0,0
4277,-42,-116,6,0,0,0,0,0
4278,-2,-117,-23,0,0,0,0,0
4279,-60,-144,-20,0,0,0,0,0
4280,22,-108,25,0,0,0,0,0
4281,-37,-152,28,0,0,0,0,0
4282,3,-127,3,0,0,0,0,0
4283,-20,-143,7,0,0,0,0,0
4284,-38,-156,15,0,0,0,0,0
4285,2,-217,-21,1000,0,0,0,0
4286,-72,-309,1,0,0,0,0,0
4287,13,-281,-8,0,0,0,0,0
4288,-17,-280,13,1008,0,0,0,0
4289,-93,-295,12,545,0,0,0,0
4290,80,-294,3,0,0,0,0,0
4291,-37,-285,-9,0,0,0,0,0
4292,-98,-310,-1,0,0,0,0,0
4293,-45,-240,-11,939,0,0,0,0
4294,-75,-276,-2,0,0,0,0,0
4295,-51,-227,8,0,0,0,0,0
4296,4,-228,-40,0,0,0,0,0
4297,105,-197,0,0,0,0,0,0
4298,45,-200,-13,0,0,0,0,0
4299,-120,-227,8,0,0,0,0,0
4300,-42,-230,4,0,0,0,0,0
4301,183,-176,5,0,0,0,0,0
4302,-54,-217,8,0,0,0,0,0
4303,224,-183,-16,0,0,0,0,0
4304,-33,-205,-19,0,0,0,0,0
4305,-28,-192,-14,0,0,0,0,0
4306,-15,-165,-3,0,0,0,0,0
4307,14,-147,13,0,0,0,0,0
4308,-24,-146,4,0,0,0,0,0
4309,-47,-132,4,0,0,0,0,0
4310,-58,-130,-4,0,0,0,0,0
4311,-3,-141,8,0,0,0,0,0
4312,-23,-134,-30,0,0,0,0,0
4313,-79,-126,-5,0,0,0,0,0
4314,-21,-126,12,0,0,0,0,0
4315,-3,-116,1,0,0,0,0,0
4316,-39,-123,8,0,0,0,0,0
4317,12,-107,-11,0,0,0,0,0
4318,-54,-123,4,0,0,0,0,0
4319,18,-111,3,0,0,0,0,0
4320,-10,-102,11,0,0,0,0,0
4321,-1,-80,2,0,0,0,0,0
4322,0,-80,1,0,0,0,0,0
4323,55,-61,-2,0,0,0,0,0
4324,-16,-79,16,0,0,0,0,0
4325,30,-62,6,0,0,0,0,0
4326,32,-49,-7,0,0,0,0,0
4327,-54,-83,4,0,0,0,0,0
4328,53,-81,5,0,0,0,0,0
4329,-43,-27,3,0,0,0,0,0
4330,-35,-69,4,0,0,0,0,0
4331,102,-77,5,0,0,0,0,0
4332,24,-63,15,0,0,0,0,0
4333,15,-127,18,0,0,0,0,0
4334,-5,-46,-2,132,0,0,0,0
4335,-33,-54,0,0,0,0,0,0
4336,142,29,6,0,0,0,0,0
4337,-2,-74,3,0,0,0,0,0
4338,57,-61,-28,0,0,0,0,0
4339,-12,3,-5,0,0,0,0,0
4340,36,-66,11,0,0,0,0,0
4341,88,-34,-12,0,0,0,0,0
4342,-18,-5,6,0,0,0,0,0
4343,-222,-18,20,0,0,0,0,0
4344,176,-26,21,0,0,0,0,0
4345,-23,-32,3,0,0,0,0,0
4346,-46,-74,12,607,0,0,0,0
4347,8,42,-3,0,0,0,0,0
4348,-30,11,-9,25,0,0,0,0
4349,19,-58,10,0,0,0,0,0
4350,18,14,-6,0,0,0,0,0
4351,-3,-37,3,0,0,0,0,0
4352,-110,21,3,0,0,0,0,0
4353,4,-47,1,1024,0,0,0,0
4354,33,-42,-2,0,0,0,0,0
4355,-14,5,-4,0,0,0,0,0
4356,-4,-31,1,0,0,0,0,0
4357,-16,-17,-3,0,0,0,0,0
4358,-14,-15,-3,0,0,0,0,0
4359,78,-25,0,64979,0,0,0,0
4360,-3,3,-4,0,0,0,0,0
4361,-10,-23,0,0,0,0,0,0
4362,-28,-20,-2,0,0,0,0,0
4363,15,7,-5,0,0,0,0,0
4364,-14,-11,-2,0,0,0,0,0
4365,18,-17,0,0,0,0,0,0
4366,9,-8,2,0,0,0,0,0
4367,-3,-17,4,0,0,0,0,0
4368,-5,-10,-2,0,0,0,0,0
4369,1,-17,0,0,0,0,0,0
4370,4,-16,-1,0,0,0,0,0
4371,-3,-12,-3,0,0,0,0,0
4372,0,-16,0,0,0,0,0,0
4373,3,-10,-1,0,0,0,0,0
4374,-1,-10,-2,0,0,0,0,0
4375,7,-14,-2,0,0,0,0,0
4376,0,-13,-1,0,0,0,0,0
4377,2,-11,-1,0,0,0,0,0
4378,4,-13,0,0,0,0,0,0
4379,6,-8,-1,0,0,0,0,0
4380,2,-11,-1,0,0,0,0,0
4381,2,-11,-1,0,0,0,0,0
4382,2,-10,0,0,0,0,0,0
4383,1,-10,-1,0,0,0,0,0
4384,3,-11,0,0,0,0,0,0
4385,5,-10,1,0,0,0,0,0
4386,3,-10,2,0,0,0,0,0
4387,1,-9,-1,0,0,0,0,0
4388,4,-13,-2,0,0,0,0,0
4389,3,-12,2,0,0,0,0,0
4390,-16,28,5,0,0,0,0,0
4391,40,-43,-1,0,0,0,0,0
4392,10,-23,-8,0,0,0,0,0
4393,-4,1,-3,0,0,0,0,0
4394,4,-22,6,0,0,0,0,0
4395,7,-15,0,623,0,0,0,0
4396,4,-26,2,0,0,0,0,0
4397,17,-3,-5,624,0,0,0,0
4398,-2,-32,7,0,0,0,0,0
4399,-48,-42,7,0,0,0,0,0
4400,81,19,-4,875,0,0,0,0
4401,22,-57,0,0,0,0,0,0
4402,20,-44,-6,0,0,0,0,0
4403,-18,-20,-8,0,0,0,0,0
4404,2,-30,11,0,0,0,0,0
4405,6,-44,-3,0,0,0,0,0
4406,0,-47,-11,0,0,0,0,0
4407,-6,-26,-5,0,0,0,0,0
4408,31,-28,13,0,0,0,0,0
4409,-45,-52,3,0,0,0,0,0
4410,18,-43,-19,1034,0,0,0,0
4411,29,-16,12,0,0,0,0,0
4412,-13,-32,-23,0,0,0,0,0
4413,52,-20,-5,0,0,0,0,0
4414,43,-23,-4,0,0,0,0,0
4415,35,-30,-12,0,0,0,0,0
4416,-43,-24,-13,0,0,0,0,0
4417,-14,-32,0,0,0,0,0,0
4418,-61,-19,-19,0,0,0,0,0
4419,13,-6,-3,0,0,0,0,0
4420,-6,-3,4,0,0,0,0,0
4421,30,17,24,0,0,0,0,0
4422,-82,0,-33,0,0,0,0,0
4423,74,6,-22,0,0,0,0,0
4424,-59,2,-17,0,0,0,0,0
4425,8,-3,-34,0,0,0,0,0
4426,-116,-12,-29,363,0,0,0,0
4427,-68,15,-1,0,0,0,0,0
4428,-21,15,20,1027,0,0,0,0
4429,-57,-10,-4,0,0,0,0,0
4430,12,-3,37,0,0,0,0,0
4431,-193,1,-37,0,0,0,0,0
4432,-62,5,-22,0,0,0,0,0
4433,13,24,-31,0,0,0,0,0
4434,31,6,1,0,0,0,0,0
4435,-39,18,-15,0,0,0,0,0
4436,99,7,18,0,0,0,0,0
4437,-123,-12,-66,0,0,0,0,0
4438,119,18,20,0,0,0,0,0
4439,29,18,24,0,0,0,0,0
4440,67,10,20,0,0,0,0,0
4441,-42,21,-8,0,0,0,0,0
4442,48,38,-14,0,0,0,0,0
4443,161,53,2,0,0,0,0,0
4444,-126,29,-5,0,0,0,0,0
4445,-20,12,-39,0,0,0,0,0
4446,254,57,47,0,0,0,0,0
4447,-121,47,-52,0,0,0,0,0
4448,11,27,4,0,0,0,0,0
4449,51,42,-34,0,0,0,0,0
4450,-49,40,-28,0,0,0,0,0
4451,85,23,10,0,0,0,0,0
4452,70,27,-3,0,0,0,0,0
4453,-170,-1,15,0,0,0,0,0
4454,-97,-10,13,0,0,0,0,0
4455,77,56,-5,0,0,0,0,0
4456,8,18,4,0,0,0,0,0
4457,4,35,-39,0,0,0,0,0
4458,-212,-25,-2,0,0,0,0,0
4459,2,1,1,0,0,0,0,0
4460,151,28,12,0,0,0,0,0
4461,-128,-16,19,0,0,0,0,0
4462,-32,20,13,0,0,0,0,0
4463,-33,-16,-33,0,0,0,0,0
4464,26,12,-6,0,0,0,0,0
4465,9,18,-9,0,0,0,0,0
4466,-12,13,17,0,0,0,0,0
4467,108,1,35,0,0,0,0,0
4468,-73,-2,-25,0,0,0,0,0
4469,41,15,11,0,0,0,0,0
4470,-10,-8,-12,0,0,0,0,0
4471,-43,3,-5,0,0,0,0,0
4472,14,22,-21,1,0,0,0,0
4473,115,2,-9,0,0,0,0,0
4474,-14,-14,19,0,0,0,0,0
4475,88,3,-9,0,0,0,0,0
4476,7,-4,3,0,0,0,0,0
4477,-103,-41,-22,0,0,0,0,0
4478,-9,1,-11,0,0,0,0,0
4479,21,0,42,0,0,0,0,0
4480,-58,-24,2,0,0,0,0,0
4481,-13,-3,18,0,0,0,0,0
4482,6,-10,11,0,0,0,0,0
4483,15,31,8,0,0,0,0,0
4484,57,-11,17,0,0,0,0,0
4485,21,39,-18,408,0,0,0,0
4486,92,-72,3,0,0,0,0,0
4487,60,14,7,153,0,0,0,0
4488,-45,-22,-5,0,0,0,0,0
4489,-19,-75,31,841,0,0,0,0
4490,85,40,11,0,0,0,0,0
4491,32,15,-13,0,0,0,0,0
4492,45,1,-3,0,0,0,0,0
4493,27,68,-1,-759,0,0,0,0
4494,-51,-47,18,0,0,0,0,0
4495,-13,38,-6,0,0,0,0,0
4496,6,-63,37,0,0,0,0,0
4497,-31,-20,-17,0,0,0,0,0
4498,53,-30,7,0,0,0,0,0
4499,-65,-16,-12,0,0,0,0,0
4500,72,305,11,0,0,0,0,0
4501,17,299,19,0,0,0,0,0
4502,48,291,7,0,0,0,0,0
4503,-31,200,14,0,0,0,0,0
4504,1,197,-8,0,0,0,0,0
4505,-47,209,2,0,0,0,0,0
4506,66,195,-9,0,0,0,0,0
4507,-70,198,-31,0,0,0,0,0
4508,14,205,-7,0,0,0,0,0
4509,15,201,-17,0,0,0,0,0
4510,1,182,10,0,0,0,0,0
4511,66,197,9,0,0,0,0,0
4512,-19,187,-33,0,0,0,0,0
4513,94,181,-8,1007,0,0,0,0
4514,8,165,25,0,0,0,0,0
4515,35,160,5,0,0,0,0,0
4516,0,190,13,0,0,0,0,0
4517,-5,167,-1,0,0,0,0,0
4518,17,161,-10,0,0,0,0,0
4519,-15,145,17,0,0,0,0,0
4520,56,147,-12,0,0,0,0,0
4521,42,122,-11,543,0,0,0,0
4522,-4,116,1,0,0,0,0,0
4523,25,127,-10,447,0,0,0,0
4524,30,120,8,0,0,0,0,0
4525,33,117,-1,450,0,0,0,0
4526,-11,118,14,0,0,0,0,0
4527,34,117,4,0,0,0,0,0
4528,12,120,14,0,0,0,0,0
4529,47,111,13,0,0,0,0,0
4530,31,113,-8,0,0,0,0,0
4531,-1,105,-2,0,0,0,0,0
4532,236,109,12,0,0,0,0,0
4533,78,75,-22,0,0,0,0,0
4534,9,45,8,0,0,0,0,0
4535,17,30,3,1001,0,0,0,0
4536,-17,34,-13,0,0,0,0,0
4537,68,36,-8,1003,0,0,0,0
4538,72,29,13,0,0,0,0,0
4539,85,24,-9,499,0,0,0,0
4540,21,11,-12,0,0,0,0,0
4541,47,21,1,0,0,0,0,0
4542,30,85,18,0,0,0,0,0
4543,65,105,28,0,0,0,0,0
4544,-35,62,2,0,0,0,0,0
4545,-1,80,-17,0,0,0,0,0
4546,-14,56,-6,0,0,0,0,0
4547,39,77,-2,0,0,0,0,0
4548,-9,72,-11,0,0,0,0,0
4549,69,66,13,0,0,0,0,0
4550,-15,50,-3,0,0,0,0,0
4551,-16,43,5,0,0,0,0,0
4552,31,31,2,0,0,0,0,0
4553,11,27,7,0,0,0,0,0
4554,-6,23,7,0,0,0,0,0
4555,12,26,-1,0,0,0,0,0
4556,1,7,-1,0,0,0,0,0
4557,3,2,2,0,0,0,0,0
4558,6,-2,-1,0,0,0,0,0
4559,-2,-5,1,0,0,0,0,0
4560,-14,-4,-2,0,0,0,0,0
4561,-5,-5,1,0,0,0,0,0
4562,-3,-8,1,0,0,0,0,0
4563,16,-5,0,0,0,0,0,0
4564,1,-8,0,0,0,0,0,0
4565,1,-11,-255,0,0,0,0,0
4566,3,-10,0,0,0,0,0,0
4567,6,-3,-1,0,0,0,0,0
4568,244,-9,-2,0,0,0,0,0
4569,6,-7,1,0,0,0,0,0
4570,3,-8,-1,0,0,0,0,0
4571,1,-6,-2,0,0,0,0,0
4572,4,-8,-1,0,0,0,0,0
4573,2,-8,-1,0,0,0,0,0
4574,2,-7,1,0,0,0,0,0
4575,3,-7,1,0,0,0,0,0
4576,3,-7,-1,0,0,0,0,0
4577,3,-7,-2,0,0,0,0,0
4578,3,-8,-1,0,0,0,0,0
4579,2,-9,0,0,0,0,0,0
4580,2,-7,-1,0,0,0,0,0
4581,3,-8,0,0,0,0,0,0
4582,1,-7,0,0,0,0,0,0
4583,4,-8,1,0,0,0,0,0
4584,3,-7,0,0,0,0,0,0
4585,2,-6,-1,0,0,0,0,0
4586,2,-7,0,0,0,0,0,0
4587,3,-7,0,0,0,0,0,0
4588,2,-8,1,0,0,0,0,0
4589,2,-7,0,0,0,0,0,0
4590,2,-7,0,0,0,0,0,0
4591,4,-7,0,0,0,0,0,0
4592,2,-7,1,0,0,0,0,0
4593,3,-7,0,0,0,0,0,0
4594,3,-6,-1,0,0,0,0,0
4595,2,-6,0,0,0,0,0,0
4596,3,-8,0,0,0,0,0,0
4597,4,-7,-1,0,0,0,0,0
4598,1,-8,1,0,0,0,0,0
4599,4,-9,-2,0,0,0,0,0
4600,5,-7,-1,0,0,0,0,0
4601,4,-6,-1,0,0,0,0,0
4602,2,-6,-1,0,0,0,0,0
4603,4,-8,1,0,0,0,0,0
4604,2,-8,0,0,0,0,0,0
4605,4,-7,0,0,0,0,0,0
4606,2,-9,0,0,0,0,0,0
4607,2,-8,1,0,0,0,0,0
4608,2,-7,-1,0,0,0,0,0
4609,1,-7,-1,0,0,0,0,0
4610,1,-6,0,0,0,0,0,0
4611,-1,-7,0,0,0,0,0,0
4612,4,-8,0,0,0,0,0,0
4613,2,-6,-1,0,0,0,0,0
4614,3,-8,-1,0,0,0,0,0
4615,3,-6,-1,0,0,0,0,0
4616,4,-8,0,0,0,0,0,0
4617,4,-8,-1,0,0,0,0,0
4618,4,-7,1,0,0,0,0,0
4619,2,-7,-1,0,0,0,0,0
4620,4,-9,0,0,0,0,0,0
4621,3,-8,0,0,0,0,0,0
4622,1,-7,0,0,0,0,0,0
4623,3,-8,1,0,0,0,0,0
4624,3,-9,-1,0,0,0,0,0
4625,3,-7,2,0,0,0,0,0
4626,5,-7,-1,0,0,0,0,0
4627,7,-7,-1,0,0,0,0,0
4628,2,-9,-1,0,0,0,0,0
4629,2,-8,0,0,0,0,0,0
4630,4,-7,0,0,0,0,0,0
4631,3,-7,0,0,0,0,0,0
4632,1,-7,0,0,0,0,0,0
4633,4,-8,0,0,0,0,0,0
4634,5,-6,0,0,0,0,0,0
4635,2,-7,0,0,0,0,0,0
4636,5,-8,0,0,0,0,0,0
4637,3,-9,0,0,0,0,0,0
4638,2,-7,0,0,0,0,0,0
4639,4,-9,0,0,0,0,0,0
4640,2,-8,0,0,0,0,0,0
4641,1,-6,0,0,0,0,0,0
4642,3,-8,-1,0,0,0,0,0
4643,1,-6,0,0,0,0,0,0
4644,5,-9,-1,0,0,0,0,0
4645,2,-7,1,0,0,0,0,0
4646,2,-6,0,0,0,0,0,0
4647,2,-8,-1,0,0,0,0,0
4648,2,-7,0,0,0,0,0,0
4649,3,-7,-1,0,0,0,0,0
4650,5,-7,-1,0,0,0,0,0
4651,4,-7,0,0,0,0,0,0
4652,2,-7,0,0,0,0,0,0
4653,2,-7,0,0,0,0,0,0
4654,3,-6,-1,0,0,0,0,0
4655,2,-7,-1,0,0,0,0,0
4656,3,-8,0,0,0,0,0,0
4657,3,-7,-256,0,0,0,0,0
4658,3,-8,0,0,0,0,0,0
4659,3,-9,-1,0,0,0,0,0
4660,2,-9,-1,0,0,0,0,0
4661,4,-7,-1,0,0,0,0,0
4662,1,-7,-1,0,0,0,0,0
4663,3,-7,-1,0,0,0,0,0
4664,4,-7,0,0,0,0,0,0
4665,3,-9,-1,0,0,0,0,0
4666,3,-7,0,0,0,0,0,0
4667,4,-9,-1,0,0,0,0,0
4668,3,-9,0,0,0,0,0,0
4669,3,-7,0,0,0,0,0,0
4670,1,-8,0,0,0,0,0,0
4671,4,-7,0,0,0,0,0,0
4672,2,-8,0,0,0,0,0,0
4673,2,-7,-1,0,0,0,0,0
4674,4,-6,-1,0,0,0,0,0
4675,-3,-9,-1,0,0,0,0,0
4676,4,-6,0,0,0,0,0,0
4677,5,-7,0,0,0,0,0,0
4678,2,-7,0,0,0,0,0,0
4679,0,-7,0,0,0,0,0,0
4680,3,-8,0,0,0,0,0,0
4681,3,-9,1,0,0,0,0,0
4682,0,-8,0,0,0,0,0,0
4683,3,-7,0,0,0,0,0,0
4684,3,-7,0,0,0,0,0,0
4685,3,-7,0,0,0,0,0,0
4686,4,-8,-1,0,0,0,0,0
4687,2,-8,0,0,0,0,0,0
4688,2,-8,-1,0,0,0,0,0
4689,2,-9,0,0,0,0,0,0
4690,3,-6,-1,0,0,0,0,0
4691,2,-7,-1,0,0,0,0,0
4692,3,-8,-1,0,0,0,0,0
4693,3,-9,0,0,0,0,0,0
4694,2,-6,0,0,0,0,0,0
4695,4,-7,1,0,0,0,0,0
4696,1,-6,0,0,0,0,0,0
4697,3,-7,-1,0,0,0,0,0
4698,3,-7,0,0,0,0,0,0
4699,4,-6,0,0,0,0,0,0
4700,2,-7,-1,0,0,0,0,0
4701,2,-7,-2,0,0,0,0,0
4702,2,-8,1,0,0,0,0,0
4703,3,-8,0,0,0,0,0,0
4704,3,-8,255,0,0,0,0,0
4705,2,-7,0,0,0,0,0,0
4706,3,-7,0,0,0,0,0,0
4707,2,-8,0,0,0,0,0,0
4708,2,-7,-1,0,0,0,0,0
4709,4,-7,1,0,0,0,0,0
4710,3,-7,-1,0,0,0,0,0
4711,2,-7,-1,0,0,0,0,0
4712,4,-7,0,0,0,0,0,0
4713,3,-7,0,0,0,0,0,0
4714,3,-8,0,0,0,0,0,0
4715,3,-8,0,0,0,0,0,0
4716,3,-7,0,0,0,0,0,0
4717,3,-6,0,0,0,0,0,0
4718,1,-7,-1,0,0,0,0,0
4719,2,-7,-1,0,0,0,0,0
4720,3,-8,0,0,0,0,0,0
4721,2,-7,-1,0,0,0,0,0
4722,2,-6,0,0,0,0,0,0
4723,1,-7,-1,0,0,0,0,0
4724,3,-8,0,0,0,0,0,0
4725,1,-9,0,0,0,0,0,0
4726,4,-7,-2,0,0,0,0,0
4727,2,-8,-2,0,0,0,0,0
4728,3,-8,1,0,0,0,0,0
4729,3,-6,0,0,0,0,0,0
4730,3,-8,-1,0,0,0,0,0
4731,1,-8,0,0,0,0,0,0
4732,4,-7,1,0,0,0,0,0
4733,0,-7,0,0,0,0,0,0
4734,2,-8,0,0,0,0,0,0
4735,1,-6,1,0,0,0,0,0
4736,5,-7,-1,0,0,0,0,0
4737,2,-7,-1,0,0,0,0,0
4738,1,-8,0,0,0,0,0,0
4739,1,-6,0,0,0,0,0,0
4740,2,-8,1,0,0,0,0,0
4741,3,-6,0,0,0,0,0,0
4742,3,-7,0,0,0,0,0,0
4743,3,-8,0,0,0,0,0,0
4744,3,-8,0,0,0,0,0,0
4745,2,-7,-1,0,0,0,0,0
4746,3,-8,0,0,0,0,0,0
4747,4,-7,0,0,0,0,0,0
4748,3,-6,0,0,0,0,0,0
4749,2,-7,1,0,0,0,0,0
4750,3,-7,0,0,0,0,0,0
4751,4,-8,-1,0,0,0,0,0
4752,4,-7,-1,0,0,0,0,0
4753,3,-6,0,0,0,0,0,0
4754,5,-6,0,0,0,0,0,0
4755,4,-8,0,0,0,0,0,0
4756,3,-7,0,0,0,0,0,0
4757,3,-9,0,0,0,0,0,0
4758,5,-7,0,0,0,0,0,0
4759,2,-8,-1,0,0,0,0,0
4760,3,-7,1,0,0,0,0,0
4761,3,-8,-1,0,0,0,0,0
4762,3,-8,0,0,0,0,0,0
4763,2,-8,0,0,0,0,0,0
4764,3,-7,0,0,0,0,0,0
4765,1,-9,0,0,0,0,0,0
4766,3,-8,0,0,0,0,0,0
4767,4,-8,0,0,0,0,0,0
4768,3,-8,0,0,0,0,0,0
4769,3,-7,0,0,0,0,0,0
4770,3,-8,-1,0,0,0,0,0
4771,3,-7,0,0,0,0,0,0
4772,3,-7,0,0,0,0,0,0
4773,2,-8,-1,0,0,0,0,0
4774,2,-5,-1,0,0,0,0,0
4775,3,-7,-1,0,0,0,0,0
4776,3,-6,0,0,0,0,0,0
4777,2,-7,-1,0,0,0,0,0
4778,2,-7,0,0,0,0,0,0
4779,3,-8,0,0,0,0,0,0
4780,3,-7,0,0,0,0,0,0
4781,3,-7,0,0,0,0,0,0
4782,3,-8,0,0,0,0,0,0
4783,4,-9,0,0,0,0,0,0
4784,2,-7,0,0,0,0,0,0
4785,2,-6,0,0,0,0,0,0
4786,4,-7,0,0,0,0,0,0
4787,3,-8,0,0,0,0,0,0
4788,2,-7,-1,0,0,0,0,0
4789,3,-7,0,0,0,0,0,0
4790,3,-8,0,0,0,0,0,0
4791,3,-8,0,0,0,0,0,0
4792,3,-7,0,0,0,0,0,0
4793,4,-8,-2,0,0,0,0,0
4794,3,-8,1,0,0,0,0,0
4795,2,-7,0,0,0,0,0,0
4796,3,-8,0,0,0,0,0,0
4797,3,-7,0,0,0,0,0,0
4798,3,-7,0,0,0,0,0,0
4799,2,-8,0,0,0,0,0,0
4800,3,-7,-1,0,0,0,0,0
4801,3,-6,0,0,0,0,0,0
4802,3,-7,0,0,0,0,0,0
4803,3,-7,0,0,0,0,0,0
4804,2,-6,-1,0,0,0,0,0
4805,3,-8,0,0,0,0,0,0
4806,3,-7,-1,0,0,0,0,0
4807,4,-8,-1,0,0,0,0,0
4808,1,-7,1,0,0,0,0,0
4809,0,-8,0,0,0,0,0,0
4810,0,-8,1,0,0,0,0,0
4811,2,-8,0,0,0,0,0,0
4812,4,-8,0,0,0,0,0,0
4813,6,-6,0,0,0,0,0,0
4814,5,-8,0,0,0,0,0,0
4815,3,-7,1,0,0,0,0,0
4816,-1,-8,1,0,0,0,0,0
4817,2,-7,-1,0,0,0,0,0
4818,3,-7,-1,0,0,0,0,0
4819,3,-7,0,0,0,0,0,0
4820,2,-9,1,0,0,0,0,0
4821,3,-6,1,0,0,0,0,0
4822,2,-6,-1,0,0,0,0,0
4823,1,-6,-1,0,0,0,0,0
4824,3,-8,1,0,0,0,0,0
4825,3,-8,1,0,0,0,0,0
4826,2,-7,0,0,0,0,0,0
4827,3,-8,0,0,0,0,0,0
4828,2,-7,-1,0,0,0,0,0
4829,3,-8,1,0,0,0,0,0
4830,2,-7,0,0,0,0,0,0
4831,3,-8,0,0,0,0,0,0
4832,3,-7,0,0,0,0,0,0
4833,3,-6,-256,0,0,0,0,0
4834,4,-7,0,0,0,0,0,0
4835,5,-8,0,0,0,0,0,0
4836,-1,-7,0,0,0,0,0,0
4837,4,-7,0,0,0,0,0,0
4838,3,-8,-1,0,0,0,0,0
4839,1,-7,0,0,0,0,0,0
4840,3,-9,-1,0,0,0,0,0
4841,2,-6,0,0,0,0,0,0
4842,4,-8,0,0,0,0,0,0
4843,4,-7,1,0,0,0,0,0
4844,1,-7,0,0,0,0,0,0
4845,4,-6,0,0,0,0,0,0
4846,3,-7,0,0,0,0,0,0
4847,3,-7,0,0,0,0,0,0
4848,3,-7,0,0,0,0,0,0
4849,2,-7,-1,0,0,0,0,0
4850,3,-9,0,0,0,0,0,0
4851,2,-7,0,0,0,0,0,0
4852,2,-8,-1,0,0,0,0,0
4853,2,-6,-1,0,0,0,0,0
4854,3,-7,1,0,0,0,0,0
4855,2,-7,-1,0,0,0,0,0
4856,1,-7,-1,0,0,0,0,0
4857,2,-7,0,0,0,0,0,0
4858,4,-8,1,0,0,0,0,0
4859,2,-6,0,0,0,0,0,0
4860,6,-7,-2,0,0,0,0,0
4861,1,-6,-1,0,0,0,0,0
4862,4,-7,-1,0,0,0,0,0
4863,0,-7,0,0,0,0,0,0
4864,3,-7,-1,0,0,0,0,0
4865,1,-7,0,0,0,0,0,0
4866,3,-7,0,0,0,0,0,0
4867,1,-7,-1,0,0,0,0,0
4868,3,-8,0,0,0,0,0,0
4869,6,-7,0,0,0,0,0,0
4870,3,-8,-1,0,0,0,0,0
4871,3,-8,0,0,0,0,0,0
4872,4,-8,1,0,0,0,0,0
4873,1,-7,1,0,0,0,0,0
4874,4,-9,0,0,0,0,0,0
4875,5,-8,0,0,0,0,0,0
4876,3,-9,0,0,0,0,0,0
4877,3,-8,-1,0,0,0,0,0
4878,2,-7,-1,0,0,0,0,0
4879,3,-4,0,0,0,0,0,0
4880,4,-8,0,0,0,0,0,0
4881,0,-8,0,0,0,0,0,0
4882,4,-8,1,0,0,0,0,0
4883,3,-7,0,0,0,0,0,0
4884,5,-7,0,0,0,0,0,0
4885,3,-7,0,0,0,0,0,0
4886,3,-8,1,0,0,0,0,0
4887,2,-6,1,0,0,0,0,0
4888,3,-9,0,0,0,0,0,0
4889,1,-8,-1,0,0,0,0,0
4890,2,-8,0,0,0,0,0,0
4891,2,-7,0,0,0,0,0,0
4892,3,-7,0,0,0,0,0,0
4893,1,-8,-1,0,0,0,0,0
4894,2,-8,0,0,0,0,0,0
4895,2,-7,-1,0,0,0,0,0
4896,3,-7,0,0,0,0,0,0
4897,4,-7,0,0,0,0,0,0
4898,2,-9,-1,0,0,0,0,0
4899,2,-9,-1,0,0,0,0,0
4900,2,-7,0,0,0,0,0,0
4901,3,-7,0,0,0,0,0,0
4902,3,-8,1,0,0,0,0,0
4903,3,-8,1,0,0,0,0,0
4904,3,-6,-1,0,0,0,0,0
4905,4,-7,0,0,0,0,0,0
4906,4,-7,0,0,0,0,0,0
4907,4,-6,1,0,0,0,0,0
4908,0,-9,0,0,0,0,0,0
4909,1,-7,1,0,0,0,0,0
4910,1,-6,-1,0,0,0,0,0
4911,3,-8,0,0,0,0,0,0
4912,3,-7,1,0,0,0,0,0
4913,3,-7,-1,0,0,0,0,0
4914,2,-9,1,0,0,0,0,0
4915,0,-7,0,0,0,0,0,0
4916,4,-7,-1,0,0,0,0,0
4917,4,-7,0,0,0,0,0,0
4918,2,-7,-2,0,0,0,0,0
4919,4,-8,-1,0,0,0,0,0
4920,3,-7,0,0,0,0,0,0
4921,3,-7,1,0,0,0,0,0
4922,5,-9,0,0,0,0,0,0
4923,4,-8,-2,0,0,0,0,0
4924,4,-7,0,0,0,0,0,0
4925,3,-7,0,0,0,0,0,0
4926,3,-8,0,0,0,0,0,0
4927,4,-7,0,0,0,0,0,0
4928,4,-7,0,0,0,0,0,0
4929,1,-7,0,0,0,0,0,0
4930,2,-7,0,0,0,0,0,0
4931,3,-7,-1,0,0,0,0,0
4932,3,-8,0,0,0,0,0,0
4933,5,-8,0,0,0,0,0,0
4934,2,-7,0,0,0,0,0,0
4935,3,-7,0,0,0,0,0,0
4936,2,-7,0,0,0,0,0,0
4937,4,-7,-1,0,0,0,0,0
4938,4,-8,0,0,0,0,0,0
4939,3,-6,-1,0,0,0,0,0
4940,4,-7,0,0,0,0,0,0
4941,3,-6,0,0,0,0,0,0
4942,2,-8,1,0,0,0,0,0
4943,2,-7,0,0,0,0,0,0
4944,3,-6,0,0,0,0,0,0
4945,3,-9,-1,0,0,0,0,0
4946,2,-7,1,0,0,0,0,0
4947,2,-7,0,0,0,0,0,0
4948,3,-6,-1,0,0,0,0,0
4949,4,-6,0,0,0,0,0,0
4950,4,-6,0,0,0,0,0,0
4951,1,-8,1,0,0,0,0,0
4952,1,-6,0,0,0,0,0,0
4953,2,-7,0,0,0,0,0,0
4954,4,-7,0,0,0,0,0,0
4955,3,-7,0,0,0,0,0,0
4956,2,-7,-1,0,0,0,0,0
4957,3,-7,0,0,0,0,0,0
4958,1,-9,0,0,0,0,0,0
4959,3,-8,1,0,0,0,0,0
4960,3,-7,0,0,0,0,0,0
4961,4,-7,-1,0,0,0,0,0
4962,3,-6,0,0,0,0,0,0
4963,2,-6,0,0,0,0,0,0
4964,3,-8,0,0,0,0,0,0
4965,4,-6,0,0,0,0,0,0
4966,3,-8,0,0,0,0,0,0
4967,2,-8,1,0,0,0,0,0
4968,3,-6,0,0,0,0,0,0
4969,4,-7,0,0,0,0,0,0
4970,3,-8,0,0,0,0,0,0
4971,3,-7,1,0,0,0,0,0
4972,4,-8,0,0,0,0,0,0
4973,2,-7,0,0,0,0,0,0
4974,4,-8,1,0,0,0,0,0
4975,3,-7,-1,0,0,0,0,0
4976,4,-9,0,0,0,0,0,0
4977,3,-8,-1,0,0,0,0,0
4978,4,-7,0,0,0,0,0,0
4979,4,-7,-1,0,0,0,0,0
4980,3,-9,1,0,0,0,0,0
4981,3,-8,0,0,0,0,0,0
4982,3,-8,-1,0,0,0,0,0
4983,4,-7,0,0,0,0,0,0
4984,2,-9,0,0,0,0,0,0
4985,2,-7,0,0,0,0,0,0
4986,4,-7,1,0,0,0,0,0
4987,3,-8,0,0,0,0,0,0
4988,2,-8,0,0,0,0,0,0
4989,4,-7,1,0,0,0,0,0
4990,3,-8,0,0,0,0,0,0
4991,3,-7,-1,0,0,0,0,0
4992,2,-8,-1,0,0,0,0,0
4993,4,-8,0,0,0,0,0,0
4994,1,-7,0,0,0,0,0,0
4995,3,-7,1,0,0,0,0,0
4996,4,-6,0,0,0,0,0,0
4997,5,-7,0,0,0,0,0,0
4998,3,-7,0,0,0,0,0,0
4999,3,-9,1,0,0,0,0,0
5000,2,-7,1,0,0,0,0,0
5001,3,-8,0,0,0,0,0,0
5002,1,-8,0,0,0,0,0,0
5003,4,-8,-1,0,0,0,0,0
5004,2,-8,-1,0,0,0,0,0
5005,2,-7,-1,0,0,0,0,0
5006,4,-7,0,0,0,0,0,0
5007,5,-6,0,0,0,0,0,0
5008,1,-8,0,0,0,0,0,0
5009,2,-7,0,0,0,0,0,0
5010,2,-6,-1,0,0,0,0,0
5011,3,-7,-1,0,0,0,0,0
5012,1,-8,0,0,0,0,0,0
5013,2,-8,0,0,0,0,0,0
5014,3,-6,0,0,0,0,0,0
5015,4,-8,0,0,0,0,0,0
5016,4,-7,-1,0,0,0,0,0
5017,1,-8,0,0,0,0,0,0
5018,3,-7,0,0,0,0,0,0
5019,4,-7,-1,0,0,0,0,0
5020,4,-6,0,0,0,0,0,0
5021,3,-8,0,0,0,0,0,0
5022,2,-8,0,0,0,0,0,0
5023,2,-8,0,0,0,0,0,0
5024,4,-6,0,0,0,0,0,0
5025,3,-8,0,0,0,0,0,0
5026,4,-6,1,0,0,0,0,0
5027,3,-6,0,0,0,0,0,0
5028,3,-7,0,0,0,0,0,0
5029,2,-8,0,0,0,0,0,0
5030,4,-7,0,0,0,0,0,0
5031,1,-6,-1,0,0,0,0,0
5032,1,-9,0,0,0,0,0,0
5033,3,-8,0,0,0,0,0,0
5034,0,-7,-1,0,0,0,0,0
5035,2,-8,0,0,0,0,0,0
5036,3,-6,0,0,0,0,0,0
5037,2,-7,-1,0,0,0,0,0
5038,3,-8,0,0,0,0,0,0
5039,3,-9,0,0,0,0,0,0
5040,2,-8,-1,0,0,0,0,0
5041,4,-8,0,0,0,0,0,0
5042,3,-8,-1,0,0,0,0,0
5043,4,-7,-1,0,0,0,0,0
5044,3,-8,0,0,0,0,0,0
5045,5,-7,0,0,0,0,0,0
5046,3,-8,-1,0,0,0,0,0
5047,3,-6,0,0,0,0,0,0
5048,2,-7,0,0,0,0,0,0
5049,3,-7,-1,0,0,0,0,0
5050,3,-8,0,0,0,0,0,0
5051,3,-6,-1,0,0,0,0,0
5052,4,-7,0,0,0,0,0,0
5053,3,-7,-256,0,0,0,0,0
5054,2,-6,-1,0,0,0,0,0
5055,3,-8,-1,0,0,0,0,0
5056,2,-7,0,0,0,0,0,0
5057,4,-8,0,0,0,0,0,0
5058,2,-7,-1,0,0,0,0,0
5059,2,-7,0,0,0,0,0,0
5060,1,-8,0,0,0,0,0,0
5061,2,-7,-1,0,0,0,0,0
5062,3,-8,0,0,0,0,0,0
5063,4,-8,0,0,0,0,0,0
5064,1,-8,0,0,0,0,0,0
5065,2,-7,0,0,0,0,0,0
5066,3,-8,1,0,0,0,0,0
5067,1,-8,0,0,0,0,0,0
5068,3,-7,0,0,0,0,0,0
5069,3,-8,0,0,0,0,0,0
5070,4,-7,0,0,0,0,0,0
5071,11,-5,1,0,0,0,0,0
5072,1,-7,0,0,0,0,0,0
5073,0,-7,-1,0,0,0,0,0
5074,7,-8,0,0,0,0,0,0
5075,3,-8,0,0,0,0,0,0
5076,2,-8,0,0,0,0,0,0
5077,2,-6,0,0,0,0,0,0
5078,5,-7,1,0,0,0,0,0
5079,2,-7,1,0,0,0,0,0
5080,5,-8,0,0,0,0,0,0
5081,0,-5,-1,0,0,0,0,0
5082,5,-7,-2,0,0,0,0,0
5083,4,-7,-1,0,0,0,0,0
5084,0,-7,0,0,0,0,0,0
5085,3,-7,-1,0,0,0,0,0
5086,2,-6,0,0,0,0,0,0
5087,3,-9,-1,0,0,0,0,0
5088,3,-7,0,0,0,0,0,0
5089,3,-8,0,0,0,0,0,0
5090,0,-7,-1,0,0,0,0,0
5091,4,-7,0,0,0,0,0,0
5092,3,-7,0,0,0,0,0,0
5093,2,-7,-1,0,0,0,0,0
5094,2,-8,0,0,0,0,0,0
5095,4,-8,0,0,0,0,0,0
5096,3,-6,0,0,0,0,0,0
5097,2,-9,0,0,0,0,0,0
5098,6,-8,0,0,0,0,0,0
5099,12,-5,2,0,0,0,0,0
5100,-1,-9,-2,0,0,0,0,0
5101,2,-5,0,0,0,0,0,0
5102,-2,-7,0,0,0,0,0,0
5103,13,-8,0,0,0,0,0,0
5104,5,-5,-2,0,0,0,0,0
5105,1,-9,0,0,0,0,0,0
5106,3,-7,0,0,0,0,0,0
5107,2,-8,0,0,0,0,0,0
5108,6,-6,0,0,0,0,0,0
5109,3,-8,-1,0,0,0,0,0
5110,0,-8,0,0,0,0,0,0
5111,4,-8,-1,0,0,0,0,0
5112,2,-6,0,0,0,0,0,0
5113,2,-6,0,0,0,0,0,0
5114,3,-7,-1,0,0,0,0,0
5115,4,-7,0,0,0,0,0,0
5116,3,-7,0,0,0,0,0,0
5117,0,-8,0,0,0,0,0,0
5118,2,-6,0,0,0,0,0,0
5119,2,-7,1,0,0,0,0,0
5120,2,-8,1,0,0,0,0,0
5121,2,-7,-1,0,0,0,0,0
5122,2,-8,-1,0,0,0,0,0
5123,2,-8,0,0,0,0,0,0
5124,4,-7,0,0,0,0,0,0
5125,3,-7,-1,0,0,0,0,0
5126,3,-7,1,0,0,0,0,0
5127,1,-7,0,0,0,0,0,0
5128,3,-6,0,0,0,0,0,0
5129,2,-8,0,0,0,0,0,0
5130,3,-8,0,0,0,0,0,0
5131,3,-8,-1,0,0,0,0,0
5132,3,-7,0,0,0,0,0,0
5133,0,-8,0,0,0,0,0,0
5134,4,-6,-1,0,0,0,0,0
5135,2,-7,-1,0,0,0,0,0
5136,3,-7,-1,0,0,0,0,0
5137,5,-9,1,0,0,0,0,0
5138,2,-7,0,0,0,0,0,0
5139,4,-9,-1,0,0,0,0,0
5140,1,-7,-1,0,0,0,0,0
5141,2,-6,-1,0,0,0,0,0
5142,0,-7,0,0,0,0,0,0
5143,4,-6,0,0,0,0,0,0
5144,5,-7,0,0,0,0,0,0
5145,1,-8,0,0,0,0,0,0
5146,2,-7,0,0,0,0,0,0
5147,4,-7,0,0,0,0,0,0
5148,2,-8,-1,0,0,0,0,0
5149,3,-7,1,0,0,0,0,0
5150,2,-8,1,0,0,0,0,0
5151,4,-7,-1,0,0,0,0,0
5152,1,-8,-1,0,0,0,0,0
5153,3,-7,0,0,0,0,0,0
5154,3,-8,0,0,0,0,0,0
5155,3,-7,-1,0,0,0,0,0
5156,3,-9,-1,0,0,0,0,0
5157,3,-9,0,0,0,0,0,0
5158,2,-9,0,0,0,0,0,0
5159,5,-7,0,1,0,0,0,0
5160,3,-7,0,0,0,0,0,0
5161,3,-7,0,0,0,0,0,0
5162,4,-7,0,0,0,0,0,0
5163,2,-7,-1,0,0,0,0,0
5164,3,-6,0,1,0,0,0,0
5165,2,-8,0,0,0,0,0,0
5166,1,-7,-1,0,0,0,0,0
5167,3,-6,0,0,0,0,0,0
5168,3,-6,255,0,0,0,0,0
5169,1,-7,-1,0,0,0,0,0
5170,6,17,12,0,0,0,0,0
5171,-248,-10,-4,0,0,0,0,0
5172,-19,-56,-11,212,0,0,0,0
5173,37,-45,27,0,0,0,0,0
5174,-17,18,-3,0,0,0,0,0
5175,60,146,-11,0,0,0,0,0
5176,-26,28,19,0,0,0,0,0
5177,3,98,-9,0,0,0,0,0
5178,86,107,11,0,0,0,0,0
5179,67,312,-9,0,0,0,0,0
5180,113,4,9,0,0,0,0,0
5181,119,151,-35,0,0,0,0,0
5182,-24,225,-16,0,0,0,0,0
5183,-55,138,22,0,0,0,0,0
5184,97,175,-8,0,0,0,0,0
5185,12,197,-5,0,0,0,0,0
5186,-12,198,-9,0,0,0,0,0
5187,104,217,9,0,0,0,0,0
5188,19,195,-1,0,0,0,0,0
5189,10,217,-21,0,0,0,0,0
5190,29,196,10,0,0,0,0,0
5191,93,244,-12,0,0,0,0,0
5192,3,220,-6,913,0,0,0,0
5193,-7,234,-5,0,0,0,0,0
5194,72,259,-3,914,0,0,0,0
5195,44,248,16,0,0,0,0,0
5196,161,257,13,0,0,0,0,0
5197,-6,239,-7,0,0,0,0,0
5198,34,235,3,0,0,0,0,0
5199,113,248,7,0,0,0,0,0
5200,128,254,-2,0,0,0,0,0
5201,-4,237,3,0,0,0,0,0
5202,27,224,-12,0,0,0,0,0
5203,83,235,11,0,0,0,0,0
5204,12,233,-6,0,0,0,0,0
5205,17,231,2,13,0,0,0,0
5206,10,223,-5,0,0,0,0,0
5207,-38,222,-12,18,0,0,0,0
5208,-45,214,11,0,0,0,0,0
5209,47,223,7,116,0,0,0,0
5210,90,245,2,0,0,0,0,0
5211,-18,212,-4,95,0,0,0,0
5212,33,229,-18,0,0,0,0,0
5213,72,227,22,78,0,0,0,0
5214,50,214,16,0,0,0,0,0
5215,-14,204,4,19,0,0,0,0
5216,4,211,-1,0,0,0,0,0
5217,85,219,8,48,0,0,0,0
5218,24,208,17,0,0,0,0,0
5219,24,215,-2,40,0,0,0,0
5220,23,201,24,0,0,0,0,0
5221,-43,201,-10,77,0,0,0,0
5222,-6,214,-22,0,0,0,0,0
5223,1,194,14,761,0,0,0,0
5224,11,155,9,0,0,0,0,0
5225,-68,63,19,509,0,0,0,0
5226,-55,176,-22,0,0,0,0,0
5227,69,241,9,496,0,0,0,0
5228,30,102,-8,0,0,0,0,0
5229,26,134,-26,503,0,0,0,0
5230,71,86,10,0,0,0,0,0
5231,23,124,2,1561,0,0,0,0
5232,62,124,3,0,0,0,0,0
5233,36,53,-5,0,0,0,0,0
5234,39,109,3,0,0,0,0,0
5235,6,72,-1,0,0,0,0,0
5236,2,13,-3,0,0,0,0,0
5237,4,33,-7,0,0,0,0,0
5238,0,0,1,0,0,0,0,0
5239,46,3,8,0,0,0,0,0
5240,-24,-3,-8,0,0,0,0,0
5241,12,-4,-2,0,0,0,0,0
5242,3,-3,1,0,0,0,0,0
5243,4,1,0,0,0,0,0,0
5244,7,-10,255,0,0,0,0,0
5245,0,-5,-1,0,0,0,0,0
5246,-2,-6,0,5,0,0,0,0
5247,2,-6,0,0,0,0,0,0
5248,5,-6,2,0,0,0,0,0
5249,2,-8,-1,0,0,0,0,0
5250,2,-5,-1,0,0,0,0,0
5251,2,-8,1,0,0,0,0,0
5252,3,-7,-1,0,0,0,0,0
5253,3,-6,-2,0,0,0,0,0
5254,3,-6,-1,0,0,0,0,0
5255,0,-8,0,575,0,0,0,0
5256,3,-6,-1,0,0,0,0,0
5257,3,-7,-1,7,0,0,0,0
5258,3,-5,-1,0,0,0,0,0
5259,1,-7,-1,0,0,0,0,0
5260,10,-7,0,0,0,0,0,0
5261,15,-10,-2,0,0,0,0,0
5262,12,-8,0,0,0,0,0,0
5263,3,-8,1,0,0,0,0,0
5264,3,-8,-1,0,0,0,0,0
5265,3,-8,0,0,0,0,0,0
5266,3,-7,0,0,0,0,0,0
5267,3,-8,0,0,0,0,0,0
5268,6,-7,-1,0,0,0,0,0
5269,15,-8,0,0,0,0,0,0
5270,-13,-8,1,0,0,0,0,0
5271,-3,-5,1,667,0,0,0,0
5272,14,43,2,0,0,0,0,0
5273,-17,11,7,0,0,0,0,0
5274,9,36,-20,0,0,0,0,0
5275,14,61,3,0,0,0,0,0
5276,9,66,2,0,0,0,0,0
5277,15,61,-2,1004,0,0,0,0
5278,-1,83,2,0,0,0,0,0
5279,17,84,10,0,0,0,0,0
5280,0,111,-6,0,0,0,0,0
5281,13,107,-3,0,0,0,0,0
5282,29,128,-3,0,0,0,0,0
5283,39,133,10,0,0,0,0,0
5284,35,140,1,0,0,0,0,0
5285,14,157,2,0,0,0,0,0
5286,21,153,-3,383,0,0,0,0
5287,51,183,7,0,0,0,0,0
5288,17,175,-5,0,0,0,0,0
5289,3,176,-9,1036,0,0,0,0
5290,73,211,-18,0,0,0,0,0
5291,42,197,0,0,0,0,0,0
5292,12,218,-11,976,0,0,0,0
5293,0,230,-14,0,0,0,0,0
5294,61,216,0,0,0,0,0,0
5295,0,215,14,0,0,0,0,0
5296,42,221,-10,0,0,0,0,0
5297,-9,197,-9,0,0,0,0,0
5298,38,181,-9,0,0,0,0,0
5299,68,132,8,0,0,0,0,0
5300,40,75,4,0,0,0,0,0
5301,-7,41,-22,426,0,0,0,0
5302,57,76,1,0,0,0,0,0
