index,GYRO_X,GYRO_Y,GYRO_Z,1,2,3,4,5
0,4,-9,0,0,0,0,0,0
1,3,-8,-1,0,0,0,0,0
2,2,-9,-1,0,0,0,0,0
3,3,-8,-1,0,0,0,0,0
4,2,-8,0,0,0,0,0,0
5,4,-7,0,0,0,0,0,0
6,2,-7,-1,0,0,0,0,0
7,1,-8,0,0,0,0,0,0
8,3,-7,0,0,0,0,0,0
9,2,-7,0,0,0,0,0,0
10,3,-8,-1,0,0,0,0,0
11,2,-6,-1,0,0,0,0,0
12,3,-6,-1,0,0,0,0,0
13,2,-8,0,0,0,0,0,0
14,2,-7,0,0,0,0,0,0
15,3,-7,-1,0,0,0,0,0
16,3,-8,0,0,0,0,0,0
17,3,-7,0,0,0,0,0,0
18,2,-8,0,0,0,0,0,0
19,3,-7,1,0,0,0,0,0
20,2,-8,0,0,0,0,0,0
21,3,-8,1,0,0,0,0,0
22,2,-7,-1,0,0,0,0,0
23,1,-7,1,0,0,0,0,0
24,1,-8,0,0,0,0,0,0
25,3,-8,-2,0,0,0,0,0
26,3,-7,1,0,0,0,0,0
27,4,-6,1,0,0,0,0,0
28,2,-7,0,0,0,0,0,0
29,0,-8,0,0,0,0,0,0
30,4,-6,-2,0,0,0,0,0
31,3,-8,0,0,0,0,0,0
32,4,-7,0,0,0,0,0,0
33,3,-7,0,0,0,0,0,0
34,2,-8,0,0,0,0,0,0
35,3,-6,0,0,0,0,0,0
36,3,-7,-1,0,0,0,0,0
37,2,-7,-1,0,0,0,0,0
38,10,2,-28,0,0,0,0,0
39,2,-9,-1,0,0,0,0,0
40,6,-7,-1,0,0,0,0,0
41,1,-7,-1,0,0,0,0,0
42,6,-8,-1,0,0,0,0,0
43,4,-6,0,0,0,0,0,0
44,4,-7,-1,0,0,0,0,0
45,3,-7,0,0,0,0,0,0
46,3,-7,-2,0,0,0,0,0
47,2,-7,0,0,0,0,0,0
48,6,-7,-1,0,0,0,0,0
49,4,-8,-2,0,0,0,0,0
50,4,-6,-2,0,0,0,0,0
51,3,-8,-1,0,0,0,0,0
52,3,-7,-1,0,0,0,0,0
53,3,-7,-256,0,0,0,0,0
54,2,-7,-1,0,0,0,0,0
55,2,-6,1,0,0,0,0,0
56,4,-8,-1,0,0,0,0,0
57,3,-8,0,0,0,0,0,0
58,3,-6,0,0,0,0,0,0
59,4,-7,-1,0,0,0,0,0
60,1,-8,-1,0,0,0,0,0
61,2,-7,0,0,0,0,0,0
62,4,-7,1,0,0,0,0,0
63,6,-7,0,0,0,0,0,0
64,1,-7,-1,0,0,0,0,0
65,3,-7,0,0,0,0,0,0
66,1,-7,0,0,0,0,0,0
67,-1,-7,0,0,0,0,0,0
68,3,-8,-1,0,0,0,0,0
69,3,-5,-2,0,0,0,0,0
70,3,-8,-1,0,0,0,0,0
71,6,-6,-1,0,0,0,0,0
72,1,-8,1,0,0,0,0,0
73,5,-7,-1,0,0,0,0,0
74,5,-7,-2,0,0,0,0,0
75,1,-7,0,0,0,0,0,0
76,4,-8,0,0,0,0,0,0
77,2,-9,-1,0,0,0,0,0
78,2,-8,-1,0,0,0,0,0
79,3,-8,0,0,0,0,0,0
80,4,-8,0,0,0,0,0,0
81,3,-9,0,0,0,0,0,0
82,3,-7,0,0,0,0,0,0
83,3,-9,-1,0,0,0,0,0
84,2,-6,0,0,0,0,0,0
85,1,-7,-1,0,0,0,0,0
86,2,-8,0,0,0,0,0,0
87,2,-7,0,0,0,0,0,0
88,2,-7,0,0,0,0,0,0
89,2,-7,0,0,0,0,0,0
90,2,-7,-1,0,0,0,0,0
91,2,-7,-1,0,0,0,0,0
92,4,-7,0,0,0,0,0,0
93,5,-6,0,0,0,0,0,0
94,2,-9,-1,0,0,0,0,0
95,2,-8,0,0,0,0,0,0
96,5,-7,0,0,0,0,0,0
97,2,-8,0,0,0,0,0,0
98,4,-6,0,0,0,0,0,0
99,3,-7,0,0,0,0,0,0
100,4,-7,1,0,0,0,0,0
101,1,-6,0,0,0,0,0,0
102,6,-7,-1,0,0,0,0,0
103,1,-7,-1,0,0,0,0,0
104,2,-6,0,0,0,0,0,0
105,2,-7,-1,0,0,0,0,0
106,2,-8,1,0,0,0,0,0
107,1,-8,0,0,0,0,0,0
108,5,-7,1,0,0,0,0,0
109,2,-7,1,0,0,0,0,0
110,2,-8,0,0,0,0,0,0
111,3,-6,0,0,0,0,0,0
112,2,-6,-1,0,0,0,0,0
113,2,-7,0,0,0,0,0,0
114,3,-7,-1,0,0,0,0,0
115,1,-6,255,0,0,0,0,0
116,3,-7,-1,0,0,0,0,0
117,4,-7,-1,0,0,0,0,0
118,3,-7,-1,0,0,0,0,0
119,3,-8,-1,0,0,0,0,0
120,2,-7,0,0,0,0,0,0
121,1,-6,-1,0,0,0,0,0
122,2,-8,1,0,0,0,0,0
123,0,-7,-1,0,0,0,0,0
124,3,-8,-2,0,0,0,0,0
125,3,-7,-256,0,0,0,0,0
126,2,-7,-1,0,0,0,0,0
127,2,-6,-2,0,0,0,0,0
128,3,-7,-1,0,0,0,0,0
129,2,-8,-1,0,0,0,0,0
130,1,-8,-1,0,0,0,0,0
131,4,-7,-1,0,0,0,0,0
132,2,-8,-1,0,0,0,0,0
133,2,-7,0,0,0,0,0,0
134,2,-6,1,0,0,0,0,0
135,4,-7,0,0,0,0,0,0
136,1,-9,0,0,0,0,0,0
137,2,-7,-1,0,0,0,0,0
138,2,-8,-1,0,0,0,0,0
139,1,-8,-1,0,0,0,0,0
140,1,-7,1,0,0,0,0,0
141,5,-6,1,0,0,0,0,0
142,1,-8,-1,0,0,0,0,0
143,3,-7,0,0,0,0,0,0
144,1,-8,-1,0,0,0,0,0
145,4,-5,-1,0,0,0,0,0
146,3,-8,-1,0,0,0,0,0
147,3,-9,1,0,0,0,0,0
148,3,-8,1,0,0,0,0,0
149,2,-7,-2,0,0,0,0,0
150,2,-7,-1,0,0,0,0,0
151,3,-8,-1,0,0,0,0,0
152,4,-7,0,0,0,0,0,0
153,6,-6,0,0,0,0,0,0
154,2,-7,0,0,0,0,0,0
155,3,-7,-1,0,0,0,0,0
156,2,-9,-1,0,0,0,0,0
157,4,-6,0,0,0,0,0,0
158,3,-7,1,0,0,0,0,0
159,1,-7,-1,0,0,0,0,0
160,2,-8,-1,0,0,0,0,0
161,4,-7,255,0,0,0,0,0
162,1,-8,0,0,0,0,0,0
163,3,-8,0,0,0,0,0,0
164,2,-6,0,0,0,0,0,0
165,3,-8,0,0,0,0,0,0
166,1,-8,-2,0,0,0,0,0
167,3,-7,-1,0,0,0,0,0
168,2,-6,0,0,0,0,0,0
169,2,-8,0,0,0,0,0,0
170,4,-7,1,0,0,0,0,0
171,4,-7,-1,0,0,0,0,0
172,2,-7,0,0,0,0,0,0
173,2,-9,0,0,0,0,0,0
174,3,-6,-1,0,0,0,0,0
175,3,-8,-2,0,0,0,0,0
176,4,-7,-1,0,0,0,0,0
177,3,-7,-1,0,0,0,0,0
178,2,-8,-1,0,0,0,0,0
179,3,-7,0,0,0,0,0,0
180,2,-7,0,0,0,0,0,0
181,3,-8,-1,0,0,0,0,0
182,2,-7,0,0,0,0,0,0
183,1,-7,-1,0,0,0,0,0
184,2,-8,0,0,0,0,0,0
185,4,-7,-1,0,0,0,0,0
186,2,-6,-1,0,0,0,0,0
187,4,-8,-1,0,0,0,0,0
188,2,-7,0,0,0,0,0,0
189,3,-8,0,0,0,0,0,0
190,2,-8,1,0,0,0,0,0
191,3,-8,-1,0,0,0,0,0
192,3,-8,-1,0,0,0,0,0
193,3,-8,0,0,0,0,0,0
194,2,-7,1,0,0,0,0,0
195,3,-8,1,0,0,0,0,0
196,1,-6,255,0,0,0,0,0
197,3,-7,-1,0,0,0,0,0
198,1,-6,0,0,0,0,0,0
199,2,-8,-1,0,0,0,0,0
200,3,-8,1,0,0,0,0,0
201,3,-7,255,0,0,0,0,0
202,2,-8,0,0,0,0,0,0
203,2,-8,-2,0,0,0,0,0
204,4,-8,0,0,0,0,0,0
205,4,-7,0,0,0,0,0,0
206,0,-7,1,0,0,0,0,0
207,3,-7,-1,0,0,0,0,0
208,2,-9,-1,0,0,0,0,0
209,4,-8,-1,0,0,0,0,0
210,3,-6,-1,0,0,0,0,0
211,4,-8,-1,0,0,0,0,0
212,4,-8,0,0,0,0,0,0
213,5,-9,-1,0,0,0,0,0
214,1,-7,-1,0,0,0,0,0
215,2,-7,0,0,0,0,0,0
216,4,-6,0,0,0,0,0,0
217,2,-7,0,0,0,0,0,0
218,2,-8,0,0,0,0,0,0
219,1,-9,0,0,0,0,0,0
220,2,-7,-1,0,0,0,0,0
221,2,-8,0,0,0,0,0,0
222,3,-7,0,0,0,0,0,0
223,3,-6,1,0,0,0,0,0
224,2,-7,0,0,0,0,0,0
225,1,-7,0,0,0,0,0,0
226,2,-7,0,0,0,0,0,0
227,3,-7,0,0,0,0,0,0
228,2,-7,-2,0,0,0,0,0
229,2,-6,0,0,0,0,0,0
230,4,-7,0,0,0,0,0,0
231,3,-7,-1,0,0,0,0,0
232,3,-6,-1,0,0,0,0,0
233,2,-8,0,0,0,0,0,0
234,2,-7,-1,0,0,0,0,0
235,1,-7,0,0,0,0,0,0
236,5,-8,-1,0,0,0,0,0
237,1,-8,-2,0,0,0,0,0
238,2,-7,-1,0,0,0,0,0
239,3,-8,-1,0,0,0,0,0
240,4,-7,0,0,0,0,0,0
241,3,-7,-1,0,0,0,0,0
242,3,-8,0,0,0,0,0,0
243,2,-6,-1,0,0,0,0,0
244,3,-5,-1,0,0,0,0,0
245,4,-7,-1,0,0,0,0,0
246,4,-7,-1,0,0,0,0,0
247,3,-6,0,0,0,0,0,0
248,3,-9,0,0,0,0,0,0
249,4,-7,0,0,0,0,0,0
250,2,-7,1,0,0,0,0,0
251,4,-9,-1,0,0,0,0,0
252,0,-8,-1,0,0,0,0,0
253,3,-8,0,0,0,0,0,0
254,4,-7,-1,0,0,0,0,0
255,2,-7,0,0,0,0,0,0
256,4,-7,-1,0,0,0,0,0
257,3,-7,-1,0,0,0,0,0
258,1,-7,1,0,0,0,0,0
259,2,-8,0,0,0,0,0,0
260,3,-7,-1,0,0,0,0,0
261,3,-6,-1,0,0,0,0,0
262,2,-6,0,0,0,0,0,0
263,3,-8,-2,0,0,0,0,0
264,3,-8,0,0,0,0,0,0
265,3,-7,-1,0,0,0,0,0
266,4,-8,-1,0,0,0,0,0
267,3,-6,-1,0,0,0,0,0
268,3,-7,-1,0,0,0,0,0
269,3,-8,0,0,0,0,0,0
270,5,-6,-1,0,0,0,0,0
271,4,-7,0,0,0,0,0,0
272,3,-7,0,0,0,0,0,0
273,2,-8,0,0,0,0,0,0
274,4,-6,-1,0,0,0,0,0
275,1,-7,-1,0,0,0,0,0
276,4,-8,0,0,0,0,0,0
277,3,-9,1,0,0,0,0,0
278,0,-7,-1,0,0,0,0,0
279,4,-7,0,0,0,0,0,0
280,-37,-16,-16,0,0,0,0,0
281,-12,-8,-4,1002,0,0,0,0
282,-70,-3,24,0,0,0,0,0
283,-147,2,-71,0,0,0,0,0
284,173,21,32,0,0,0,0,0
285,88,15,37,1283,0,0,0,0
286,-1,-31,2,0,0,0,0,0
287,13,22,-77,251,0,0,0,0
288,-68,17,14,0,0,0,0,0
289,-51,-37,-8,0,0,0,0,0
290,-27,6,-35,0,0,0,0,0
291,-98,-3,-8,0,0,0,0,0
292,-31,1,37,205,0,0,0,0
293,12,-32,31,0,0,0,0,0
294,73,2,74,0,0,0,0,0
295,-121,0,-16,1038,0,0,0,0
296,-51,-7,22,0,0,0,0,0
297,83,24,-5,0,0,0,0,0
298,23,23,32,0,0,0,0,0
299,16,-7,-20,0,0,0,0,0
300,-8,4,-23,0,0,0,0,0
301,58,0,23,0,0,0,0,0
302,-66,2,21,0,0,0,0,0
303,76,8,41,0,0,0,0,0
304,44,3,17,0,0,0,0,0
305,178,20,7,0,0,0,0,0
306,-92,-39,12,987,0,0,0,0
307,118,-6,17,0,0,0,0,0
308,-200,-24,-18,0,0,0,0,0
309,-67,-34,-49,0,0,0,0,0
310,79,-2,25,0,0,0,0,0
311,-51,-25,-76,0,0,0,0,0
312,33,-21,-44,0,0,0,0,0
313,-103,7,-41,0,0,0,0,0
314,-90,-30,-21,0,0,0,0,0
315,23,-35,20,0,0,0,0,0
316,-81,-32,36,0,0,0,0,0
317,-4,-43,7,0,0,0,0,0
318,-72,-25,-63,1326,0,0,0,0
319,106,-1,4,0,0,0,0,0
320,32,-48,25,1328,0,0,0,0
321,-8,-27,20,0,0,0,0,0
322,45,-39,18,0,0,0,0,0
323,51,-44,0,0,0,0,0,0
324,-35,-54,-47,0,0,0,0,0
325,-33,-54,52,979,0,0,0,0
326,23,-98,-55,0,0,0,0,0
327,36,-77,28,0,0,0,0,0
328,-38,-107,27,0,0,0,0,0
329,126,-67,7,0,0,0,0,0
330,5,-112,-30,971,0,0,0,0
331,-31,-121,53,0,0,0,0,0
332,117,-90,1,0,0,0,0,0
333,-82,-112,-25,0,0,0,0,0
334,155,-87,5,0,0,0,0,0
335,-10,-89,-23,0,0,0,0,0
336,111,-113,-9,0,0,0,0,0
337,-210,-103,-5,0,0,0,0,0
338,125,-103,22,0,0,0,0,0
339,-173,-110,-12,312,0,0,0,0
340,-36,-87,-9,0,0,0,0,0
341,-55,-88,10,1327,0,0,0,0
342,77,-85,25,0,0,0,0,0
343,-159,-112,25,1052,0,0,0,0
344,-2,-87,20,0,0,0,0,0
345,-53,-111,88,0,0,0,0,0
346,34,-51,46,0,0,0,0,0
347,162,-28,-46,0,0,0,0,0
348,-21,-75,51,0,0,0,0,0
349,-106,-98,-12,0,0,0,0,0
350,15,-53,26,0,0,0,0,0
351,121,-29,61,0,0,0,0,0
352,75,-29,-15,0,0,0,0,0
353,2,-26,10,0,0,0,0,0
354,-74,-39,51,0,0,0,0,0
355,-91,-70,9,0,0,0,0,0
356,4,-37,-14,0,0,0,0,0
357,-125,-84,-7,0,0,0,0,0
358,-5,-47,6,0,0,0,0,0
359,120,-61,24,0,0,0,0,0
360,-88,-47,-4,0,0,0,0,0
361,-27,-73,-13,0,0,0,0,0
362,-44,-71,13,0,0,0,0,0
363,-107,-50,-24,0,0,0,0,0
364,-96,-55,-31,284,0,0,0,0
365,68,-25,-30,0,0,0,0,0
366,-17,-50,13,324,0,0,0,0
367,53,-43,31,0,0,0,0,0
368,151,-51,2,265,0,0,0,0
369,-91,-51,6,0,0,0,0,0
370,13,-12,3,216,0,0,0,0
371,-75,-47,0,0,0,0,0,0
372,-16,-22,59,177,0,0,0,0
373,159,26,245,0,0,0,0,0
374,-78,-12,-17,7,0,0,0,0
375,-32,-3,-33,0,0,0,0,0
376,13,-10,20,0,0,0,0,0
377,95,-21,-104,0,0,0,0,0
378,-80,15,-13,445,0,0,0,0
379,-37,-50,52,0,0,0,0,0
380,13,22,-23,0,0,0,0,0
381,-80,-49,-69,0,0,0,0,0
382,-25,-6,-6,0,0,0,0,0
383,-90,23,-55,0,0,0,0,0
384,-15,30,30,831,0,0,0,0
385,-209,16,-41,0,0,0,0,0
386,104,92,-43,0,0,0,0,0
387,-157,8,22,0,0,0,0,0
388,-106,42,0,942,0,0,0,0
389,104,43,66,0,0,0,0,0
390,-252,10,-4,0,0,0,0,0
391,125,8,19,0,0,0,0,0
392,-5,-9,-250,0,0,0,0,0
393,-30,14,-35,0,0,0,0,0
394,21,-14,62,0,0,0,0,0
395,8,-32,-18,0,0,0,0,0
396,11,-9,46,0,0,0,0,0
397,53,-32,50,0,0,0,0,0
398,75,30,-35,0,0,0,0,0
399,32,-1,-10,617,0,0,0,0
400,57,26,-9,0,0,0,0,0
401,195,22,8,272,0,0,0,0
402,203,5,-11,0,0,0,0,0
403,-63,18,-16,0,0,0,0,0
404,-67,-6,-69,0,0,0,0,0
405,-53,-10,65,0,0,0,0,0
406,82,-36,-14,0,0,0,0,0
407,27,-30,42,0,0,0,0,0
408,122,-44,53,0,0,0,0,0
409,49,15,-23,-723,0,0,0,0
410,32,20,18,0,0,0,0,0
411,18,-16,5,0,0,0,0,0
412,86,0,5,0,0,0,0,0
413,-141,-37,-65,-703,0,0,0,0
414,-284,-53,90,0,0,0,0,0
415,64,-42,39,0,0,0,0,0
416,41,12,9,0,0,0,0,0
417,129,-14,-48,0,0,0,0,0
418,-202,-44,38,0,0,0,0,0
419,184,-6,8,0,0,0,0,0
420,-72,-2,-46,0,0,0,0,0
421,71,13,10,0,0,0,0,0
422,189,16,-24,0,0,0,0,0
423,4,-10,9,0,0,0,0,0
424,-60,-56,68,0,0,0,0,0
425,-9,-20,0,0,0,0,0,0
426,-60,-28,11,0,0,0,0,0
427,-15,-45,36,0,0,0,0,0
428,97,-35,-6,0,0,0,0,0
429,77,-30,9,0,0,0,0,0
430,-106,-66,-10,0,0,0,0,0
431,50,-9,58,0,0,0,0,0
432,191,-60,40,0,0,0,0,0
433,-76,-83,37,0,0,0,0,0
434,-173,-72,-24,0,0,0,0,0
435,155,-19,30,0,0,0,0,0
436,59,-50,-22,0,0,0,0,0
437,-17,-39,9,0,0,0,0,0
438,18,-15,33,0,0,0,0,0
439,-120,-48,-1,8,0,0,0,0
440,-79,-57,-16,0,0,0,0,0
441,-76,-50,-27,9,0,0,0,0
442,-7,-35,-94,0,0,0,0,0
443,-43,-58,38,9,0,0,0,0
444,27,-38,-8,0,0,0,0,0
445,40,-52,-12,10,0,0,0,0
446,-94,-68,-4,0,0,0,0,0
447,49,-41,-3,-691,0,0,0,0
448,59,-79,16,0,0,0,0,0
449,-4,-64,-11,0,0,0,0,0
450,8,-66,-21,0,0,0,0,0
451,-36,-88,-4,0,0,0,0,0
452,-71,-76,-27,0,0,0,0,0
453,-90,-74,-8,0,0,0,0,0
454,9,-78,1,0,0,0,0,0
455,84,-72,-23,0,0,0,0,0
456,156,-62,15,0,0,0,0,0
457,-22,-97,5,0,0,0,0,0
458,-38,-67,-11,0,0,0,0,0
459,-9,-63,29,-701,0,0,0,0
460,14,-61,7,0,0,0,0,0
461,-45,-51,12,0,0,0,0,0
462,-50,-38,-18,0,0,0,0,0
463,11,10,-24,0,0,0,0,0
464,55,-13,-1,0,0,0,0,0
465,68,22,4,0,0,0,0,0
466,51,32,-25,0,0,0,0,0
467,31,18,-9,0,0,0,0,0
468,30,6,2,0,0,0,0,0
469,-57,12,21,0,0,0,0,0
470,68,6,20,0,0,0,0,0
471,2,13,-2,0,0,0,0,0
472,-45,17,-31,0,0,0,0,0
473,-29,4,-4,0,0,0,0,0
474,1,3,2,0,0,0,0,0
475,-42,3,11,0,0,0,0,0
476,59,39,11,0,0,0,0,0
477,51,38,-10,0,0,0,0,0
478,-103,8,14,0,0,0,0,0
479,-26,11,3,0,0,0,0,0
480,59,47,11,0,0,0,0,0
481,12,16,22,0,0,0,0,0
482,40,34,0,0,0,0,0,0
483,-31,13,5,0,0,0,0,0
484,-7,32,2,596,0,0,0,0
485,42,14,9,0,0,0,0,0
486,47,34,12,596,0,0,0,0
487,-74,28,1,0,0,0,0,0
488,32,14,44,14,0,0,0,0
489,34,72,3,0,0,0,0,0
490,-16,68,-8,14,0,0,0,0
491,-12,16,-251,0,0,0,0,0
492,-39,116,-4,14,0,0,0,0
493,-3,76,-7,0,0,0,0,0
494,35,53,19,14,0,0,0,0
495,-6,82,12,14,0,0,0,0
496,-25,77,3,0,0,0,0,0
497,10,103,5,611,0,0,0,0
498,19,60,4,0,0,0,0,0
499,0,78,-15,-729,0,0,0,0
500,-14,65,14,0,0,0,0,0
501,19,47,-15,0,0,0,0,0
502,2,60,-1,0,0,0,0,0
503,17,66,2,0,0,0,0,0
504,4,38,3,0,0,0,0,0
505,8,34,-7,0,0,0,0,0
506,-1,39,-4,0,0,0,0,0
507,18,24,7,0,0,0,0,0
508,2,15,-1,0,0,0,0,0
509,1,13,-3,0,0,0,0,0
510,6,6,2,0,0,0,0,0
511,2,3,2,0,0,0,0,0
512,3,-1,-1,0,0,0,0,0
513,8,0,0,0,0,0,0,0
514,4,-1,3,0,0,0,0,0
515,3,-9,3,0,0,0,0,0
516,5,9,1,0,0,0,0,0
517,4,7,3,0,0,0,0,0
518,5,16,1,0,0,0,0,0
519,3,21,2,0,0,0,0,0
520,4,21,4,0,0,0,0,0
521,9,31,4,0,0,0,0,0
522,2,39,2,0,0,0,0,0
523,14,45,1,0,0,0,0,0
524,10,49,5,0,0,0,0,0
525,-25,57,1,0,0,0,0,0
526,17,71,3,0,0,0,0,0
527,2,78,-4,0,0,0,0,0
528,18,82,2,0,0,0,0,0
529,18,95,-3,0,0,0,0,0
530,16,101,3,540,0,0,0,0
531,26,109,3,0,0,0,0,0
532,0,113,3,0,0,0,0,0
533,6,122,4,0,0,0,0,0
534,10,133,-2,0,0,0,0,0
535,-14,135,7,0,0,0,0,0
536,25,151,0,0,0,0,0,0
537,-3,152,13,0,0,0,0,0
538,17,167,10,472,0,0,0,0
539,40,175,12,0,0,0,0,0
540,24,170,-3,466,0,0,0,0
541,53,189,1,0,0,0,0,0
542,5,190,-5,996,0,0,0,0
543,35,197,1,0,0,0,0,0
544,28,195,-7,0,0,0,0,0
545,-113,194,-11,0,0,0,0,0
546,-46,191,-14,989,0,0,0,0
547,19,224,1,0,0,0,0,0
548,30,207,9,0,0,0,0,0
549,98,203,7,0,0,0,0,0
550,54,173,-9,0,0,0,0,0
551,61,95,7,0,0,0,0,0
552,-13,57,-1,0,0,0,0,0
553,-35,-7,-9,0,0,0,0,0
554,-80,-86,0,0,0,0,0,0
555,-74,-99,-34,0,0,0,0,0
556,-230,-238,-24,0,0,0,0,0
557,-23,-242,0,0,0,0,0,0
558,-18,-246,-16,0,0,0,0,0
559,-141,-262,-11,0,0,0,0,0
560,13,-209,18,0,0,0,0,0
561,36,-168,19,0,0,0,0,0
562,33,-147,9,0,0,0,0,0
563,-40,-70,1,0,0,0,0,0
564,-14,-59,24,0,0,0,0,0
565,-129,-53,-20,0,0,0,0,0
566,-51,1,-4,0,0,0,0,0
567,47,74,-20,0,0,0,0,0
568,13,124,8,0,0,0,0,0
569,97,139,18,0,0,0,0,0
570,2,164,-6,0,0,0,0,0
571,-44,170,0,323,0,0,0,0
572,54,209,-7,0,0,0,0,0
573,-22,223,18,290,0,0,0,0
574,21,240,-13,0,0,0,0,0
575,-44,328,-9,0,0,0,0,0
576,59,368,17,685,0,0,0,0
577,-23,406,-17,264,0,0,0,0
578,98,410,16,0,0,0,0,0
579,85,401,30,0,0,0,0,0
580,124,420,-7,0,0,0,0,0
581,-7,409,-13,0,0,0,0,0
582,122,393,19,0,0,0,0,0
583,51,390,-12,0,0,0,0,0
584,63,391,-13,0,0,0,0,0
585,136,344,17,0,0,0,0,0
586,-7,332,-20,0,0,0,0,0
587,2,-6,-1,0,0,0,0,0
588,1,-6,0,0,0,0,0,0
589,0,-8,0,0,0,0,0,0
590,3,-7,-1,0,0,0,0,0
591,4,-8,0,0,0,0,0,0
592,0,-8,-1,0,0,0,0,0
593,-1,-8,-2,0,0,0,0,0
594,0,-5,0,0,0,0,0,0
595,7,-6,0,0,0,0,0,0
596,3,-8,0,0,0,0,0,0
597,0,-7,-1,0,0,0,0,0
598,4,-7,-2,0,0,0,0,0
599,3,-7,-1,0,0,0,0,0
600,3,-7,-1,0,0,0,0,0
601,0,-7,0,0,0,0,0,0
602,3,-7,0,0,0,0,0,0
603,3,-5,0,0,0,0,0,0
604,5,-7,0,0,0,0,0,0
605,4,-5,-1,0,0,0,0,0
606,3,-8,-2,0,0,0,0,0
607,4,-7,-1,0,0,0,0,0
608,5,-8,0,0,0,0,0,0
609,4,-8,0,0,0,0,0,0
610,4,-9,0,0,0,0,0,0
611,0,-8,-2,0,0,0,0,0
612,0,-8,-1,0,0,0,0,0
613,1,-5,-1,0,0,0,0,0
614,2,-6,1,0,0,0,0,0
615,2,-8,1,0,0,0,0,0
616,1,-5,-1,0,0,0,0,0
617,-3,-4,-1,0,0,0,0,0
618,2,-10,0,0,0,0,0,0
619,2,-6,0,0,0,0,0,0
620,1,-9,-1,0,0,0,0,0
621,-2,-10,0,0,0,0,0,0
622,0,-5,-1,0,0,0,0,0
623,4,-9,0,0,0,0,0,0
624,-1,-6,-1,0,0,0,0,0
625,-1,-10,1,0,0,0,0,0
626,2,-7,-1,0,0,0,0,0
627,4,-5,-1,0,0,0,0,0
628,-4,-9,0,0,0,0,0,0
629,2,-8,0,0,0,0,0,0
630,8,-8,-1,0,0,0,0,0
631,3,-6,1,0,0,0,0,0
632,4,-5,-1,0,0,0,0,0
633,8,-6,-1,0,0,0,0,0
634,-3,-2,-1,0,0,0,0,0
635,2,-8,0,0,0,0,0,0
636,4,-5,0,0,0,0,0,0
637,3,-1,1,0,0,0,0,0
638,5,-2,-2,0,0,0,0,0
639,2,-3,0,0,0,0,0,0
640,2,-3,2,0,0,0,0,0
641,11,-2,-1,0,0,0,0,0
642,0,-6,-2,0,0,0,0,0
643,1,-4,1,0,0,0,0,0
644,-3,-9,-1,0,0,0,0,0
645,0,-8,1,0,0,0,0,0
646,5,-5,-2,0,0,0,0,0
647,1,-8,-1,0,0,0,0,0
648,2,-8,1,0,0,0,0,0
649,5,-6,-1,0,0,0,0,0
650,0,-5,-1,0,0,0,0,0
651,7,-7,-1,0,0,0,0,0
652,2,-8,1,0,0,0,0,0
653,1,-10,0,0,0,0,0,0
654,3,-15,2,0,0,0,0,0
655,33,0,-1,0,0,0,0,0
656,-9,-11,-3,0,0,0,0,0
657,3,-8,-1,0,0,0,0,0
658,-2,-7,-1,0,0,0,0,0
659,6,-4,-1,0,0,0,0,0
660,3,-7,2,0,0,0,0,0
661,0,-8,-2,0,0,0,0,0
662,4,-6,-2,0,0,0,0,0
663,4,-7,0,0,0,0,0,0
664,2,-11,-2,0,0,0,0,0
665,6,-8,2,0,0,0,0,0
666,8,-5,-3,0,0,0,0,0
667,7,-6,-1,0,0,0,0,0
668,6,-5,0,0,0,0,0,0
669,2,-9,1,0,0,0,0,0
670,3,-2,0,0,0,0,0,0
671,-8,-10,1,0,0,0,0,0
672,11,-6,-1,0,0,0,0,0
673,-1,-5,0,0,0,0,0,0
674,2,-8,0,0,0,0,0,0
675,3,-6,0,0,0,0,0,0
676,2,-8,-3,0,0,0,0,0
677,5,-8,0,0,0,0,0,0
678,4,-6,-1,0,0,0,0,0
679,2,-6,-1,0,0,0,0,0
680,3,-6,1,0,0,0,0,0
681,0,-9,0,0,0,0,0,0
682,5,-7,0,0,0,0,0,0
683,2,-8,1,0,0,0,0,0
684,3,-8,-2,0,0,0,0,0
685,1,-8,-2,0,0,0,0,0
686,1,-7,0,0,0,0,0,0
687,3,-7,0,0,0,0,0,0
688,4,-6,-1,0,0,0,0,0
689,5,-5,-2,0,0,0,0,0
690,4,-7,-1,0,0,0,0,0
691,2,-5,-2,0,0,0,0,0
692,2,-7,0,0,0,0,0,0
693,3,-8,0,0,0,0,0,0
694,5,-5,-1,0,0,0,0,0
695,2,-8,0,0,0,0,0,0
696,3,-6,-1,0,0,0,0,0
697,1,-8,1,0,0,0,0,0
698,2,-7,0,0,0,0,0,0
699,4,-8,-1,0,0,0,0,0
700,2,-9,-1,0,0,0,0,0
701,4,-8,0,0,0,0,0,0
702,3,-7,-1,0,0,0,0,0
703,2,-6,-1,0,0,0,0,0
704,3,-7,-2,0,0,0,0,0
705,2,-7,1,0,0,0,0,0
706,2,-8,0,0,0,0,0,0
707,3,-7,0,0,0,0,0,0
708,2,-7,0,0,0,0,0,0
709,2,-7,-1,0,0,0,0,0
710,3,-8,0,0,0,0,0,0
711,3,-7,-1,0,0,0,0,0
712,3,-6,-1,0,0,0,0,0
713,1,-9,-1,0,0,0,0,0
714,3,-6,-1,0,0,0,0,0
715,3,-7,-2,0,0,0,0,0
716,4,-7,-1,0,0,0,0,0
717,3,-7,1,0,0,0,0,0
718,3,-7,-1,0,0,0,0,0
719,3,-7,0,0,0,0,0,0
720,1,-8,0,0,0,0,0,0
721,3,-8,-1,0,0,0,0,0
722,3,-7,1,0,0,0,0,0
723,3,-7,-1,0,0,0,0,0
724,3,-6,0,0,0,0,0,0
725,4,-8,-1,0,0,0,0,0
726,2,-8,-1,0,0,0,0,0
727,3,-8,-1,0,0,0,0,0
728,3,-7,-1,0,0,0,0,0
729,3,-7,0,0,0,0,0,0
730,2,-7,-1,0,0,0,0,0
731,2,-8,0,0,0,0,0,0
732,2,-9,0,0,0,0,0,0
733,3,-7,0,0,0,0,0,0
734,4,-9,-1,0,0,0,0,0
735,2,-6,0,0,0,0,0,0
736,4,-7,0,0,0,0,0,0
737,3,-8,-1,0,0,0,0,0
738,2,-7,0,0,0,0,0,0
739,4,-8,0,0,0,0,0,0
740,3,-8,-1,0,0,0,0,0
741,3,-7,0,0,0,0,0,0
742,3,-8,-1,0,0,0,0,0
743,3,-6,0,0,0,0,0,0
744,4,-7,0,0,0,0,0,0
745,2,-8,0,0,0,0,0,0
746,4,-8,0,0,0,0,0,0
747,4,-7,-1,0,0,0,0,0
748,1,-7,-1,0,0,0,0,0
749,2,-6,0,0,0,0,0,0
750,2,-7,-1,0,0,0,0,0
751,2,-7,-1,0,0,0,0,0
752,4,-7,-1,0,0,0,0,0
753,2,-8,0,0,0,0,0,0
754,4,-9,0,0,0,0,0,0
755,2,-8,1,0,0,0,0,0
756,2,-8,0,0,0,0,0,0
757,2,-8,-1,0,0,0,0,0
758,3,-8,-1,0,0,0,0,0
759,2,-8,0,0,0,0,0,0
760,2,-7,-1,0,0,0,0,0
761,2,-6,-1,0,0,0,0,0
762,4,-8,-1,0,0,0,0,0
763,2,-6,-1,0,0,0,0,0
764,3,-6,0,0,0,0,0,0
765,3,-8,0,0,0,0,0,0
766,2,-7,0,0,0,0,0,0
767,2,-8,0,0,0,0,0,0
768,4,-6,0,0,0,0,0,0
769,3,-6,-1,0,0,0,0,0
770,3,-8,0,0,0,0,0,0
771,2,-6,0,0,0,0,0,0
772,2,-7,0,0,0,0,0,0
773,2,-5,-2,0,0,0,0,0
774,3,-7,-1,0,0,0,0,0
775,5,-6,0,0,0,0,0,0
776,0,-8,-1,0,0,0,0,0
777,2,-9,0,0,0,0,0,0
778,4,-8,0,0,0,0,0,0
779,2,-7,-1,0,0,0,0,0
780,3,-9,-1,0,0,0,0,0
781,3,-7,-1,0,0,0,0,0
782,8,-8,-1,0,0,0,0,0
783,7,-7,2,0,0,0,0,0
784,-2,-8,2,0,0,0,0,0
785,-1,-8,-1,0,0,0,0,0
786,1,-7,-3,0,0,0,0,0
787,2,-8,0,0,0,0,0,0
788,3,-8,1,0,0,0,0,0
789,3,-7,-1,0,0,0,0,0
790,2,-8,0,0,0,0,0,0
791,4,-9,-2,0,0,0,0,0
792,2,-8,0,0,0,0,0,0
793,3,-7,-1,0,0,0,0,0
794,3,-6,-2,0,0,0,0,0
795,2,-6,0,0,0,0,0,0
796,4,-7,-1,0,0,0,0,0
797,3,-7,-1,0,0,0,0,0
798,2,-6,0,0,0,0,0,0
799,3,-7,-1,0,0,0,0,0
800,3,-7,-1,0,0,0,0,0
801,1,-8,0,0,0,0,0,0
802,4,-7,-1,0,0,0,0,0
803,1,-8,-1,0,0,0,0,0
804,4,-10,0,0,0,0,0,0
805,3,-8,0,0,0,0,0,0
806,2,-7,-2,0,0,0,0,0
807,4,-7,2,0,0,0,0,0
808,3,-8,-1,0,0,0,0,0
809,1,-7,0,0,0,0,0,0
810,2,-8,0,0,0,0,0,0
811,3,-7,-1,0,0,0,0,0
812,3,-9,0,0,0,0,0,0
813,4,-7,-1,0,0,0,0,0
814,6,-7,0,0,0,0,0,0
815,3,-7,-1,0,0,0,0,0
816,4,-8,0,0,0,0,0,0
817,2,-6,-1,0,0,0,0,0
818,3,-7,-1,0,0,0,0,0
819,2,-8,0,0,0,0,0,0
820,4,-8,0,0,0,0,0,0
821,4,-8,-1,0,0,0,0,0
822,4,-7,-1,0,0,0,0,0
823,3,-8,0,0,0,0,0,0
824,2,-7,-1,0,0,0,0,0
825,2,-7,0,0,0,0,0,0
826,3,-7,-1,0,0,0,0,0
827,3,-8,-1,0,0,0,0,0
828,5,-8,-2,0,0,0,0,0
829,0,-7,-1,0,0,0,0,0
830,4,-8,0,0,0,0,0,0
831,3,-8,-1,0,0,0,0,0
832,1,-8,-1,0,0,0,0,0
833,2,-8,-2,0,0,0,0,0
834,1,-8,-1,0,0,0,0,0
835,3,-8,1,0,0,0,0,0
836,1,-8,0,0,0,0,0,0
837,2,-6,0,0,0,0,0,0
838,3,-8,0,0,0,0,0,0
839,1,-7,-1,0,0,0,0,0
840,4,-6,0,0,0,0,0,0
841,2,-7,255,0,0,0,0,0
842,2,-8,1,0,0,0,0,0
843,4,-6,-1,0,0,0,0,0
844,2,-7,0,0,0,0,0,0
845,4,-6,-1,0,0,0,0,0
846,1,-8,-1,0,0,0,0,0
847,3,-6,1,0,0,0,0,0
848,5,-8,0,0,0,0,0,0
849,4,-7,0,0,0,0,0,0
850,2,-7,0,0,0,0,0,0
851,2,-6,-1,0,0,0,0,0
852,2,-7,-1,0,0,0,0,0
853,3,-6,1,0,0,0,0,0
854,4,-7,-1,0,0,0,0,0
855,3,-7,-1,0,0,0,0,0
856,3,-7,0,0,0,0,0,0
857,2,-7,-1,0,0,0,0,0
858,3,-8,0,0,0,0,0,0
859,3,-6,0,0,0,0,0,0
860,2,-6,0,0,0,0,0,0
861,1,-7,-1,0,0,0,0,0
862,3,-8,-1,0,0,0,0,0
863,3,-9,-1,0,0,0,0,0
864,2,-6,-1,0,0,0,0,0
865,3,-7,0,0,0,0,0,0
866,3,-6,-1,0,0,0,0,0
867,3,-8,0,0,0,0,0,0
868,4,-7,-1,0,0,0,0,0
869,4,-6,0,0,0,0,0,0
870,2,-8,-1,0,0,0,0,0
871,3,-8,-1,0,0,0,0,0
872,2,-8,-1,0,0,0,0,0
873,2,-6,-1,0,0,0,0,0
874,2,-6,0,0,0,0,0,0
875,3,-7,1,0,0,0,0,0
876,3,-7,0,0,0,0,0,0
877,3,-7,0,0,0,0,0,0
878,4,-7,0,0,0,0,0,0
879,2,-6,0,0,0,0,0,0
880,2,-8,0,0,0,0,0,0
881,2,-7,0,0,0,0,0,0
882,4,-8,0,0,0,0,0,0
883,3,-8,0,0,0,0,0,0
884,2,-8,-1,0,0,0,0,0
885,3,-7,-1,0,0,0,0,0
886,1,-7,0,0,0,0,0,0
887,5,-7,0,0,0,0,0,0
888,3,-7,-1,0,0,0,0,0
889,2,-7,0,0,0,0,0,0
890,2,-8,0,0,0,0,0,0
891,1,-8,-1,0,0,0,0,0
892,4,-8,-2,0,0,0,0,0
893,5,-6,-1,0,0,0,0,0
894,1,-6,0,0,0,0,0,0
895,1,-7,-1,0,0,0,0,0
896,4,-6,0,0,0,0,0,0
897,2,-8,0,0,0,0,0,0
898,3,-7,-1,0,0,0,0,0
899,2,-6,0,0,0,0,0,0
900,2,-8,0,0,0,0,0,0
901,1,-9,0,0,0,0,0,0
902,2,-8,-1,0,0,0,0,0
903,3,-8,1,0,0,0,0,0
904,4,-9,0,0,0,0,0,0
905,2,-7,0,0,0,0,0,0
906,2,-7,-1,0,0,0,0,0
907,2,-7,0,0,0,0,0,0
908,1,-8,0,0,0,0,0,0
909,3,-8,-1,0,0,0,0,0
910,4,-7,-1,0,0,0,0,0
911,4,-7,0,0,0,0,0,0
912,3,-7,-1,0,0,0,0,0
913,3,-7,0,0,0,0,0,0
914,1,-9,1,0,0,0,0,0
915,5,-8,-1,0,0,0,0,0
916,3,-7,0,0,0,0,0,0
917,3,-8,0,0,0,0,0,0
918,3,-7,-1,0,0,0,0,0
919,3,-8,0,0,0,0,0,0
920,3,-6,0,0,0,0,0,0
921,3,-8,-1,0,0,0,0,0
922,2,-9,0,0,0,0,0,0
923,1,-8,-1,0,0,0,0,0
924,4,-9,-1,0,0,0,0,0
925,2,-9,-1,0,0,0,0,0
926,3,-7,0,0,0,0,0,0
927,2,-7,0,0,0,0,0,0
928,2,-7,0,0,0,0,0,0
929,2,-9,-1,0,0,0,0,0
930,4,-8,0,0,0,0,0,0
931,2,-8,-1,0,0,0,0,0
932,0,-8,0,0,0,0,0,0
933,4,-7,-1,0,0,0,0,0
934,2,-7,-1,0,0,0,0,0
935,4,-7,0,0,0,0,0,0
936,2,-6,-1,0,0,0,0,0
937,2,-7,0,0,0,0,0,0
938,3,-7,-1,0,0,0,0,0
939,3,-8,1,0,0,0,0,0
940,2,-8,-1,0,0,0,0,0
941,4,-7,-1,0,0,0,0,0
942,4,-7,0,0,0,0,0,0
943,2,-8,-1,0,0,0,0,0
944,4,-7,0,0,0,0,0,0
945,3,-7,0,0,0,0,0,0
946,3,-8,0,0,0,0,0,0
947,2,-7,0,0,0,0,0,0
948,1,-6,-1,0,0,0,0,0
949,2,-8,0,0,0,0,0,0
950,2,-8,-1,0,0,0,0,0
951,3,-9,-1,0,0,0,0,0
952,3,-8,-1,0,0,0,0,0
953,3,-8,0,0,0,0,0,0
954,2,-8,-1,0,0,0,0,0
955,3,-7,-1,0,0,0,0,0
956,3,-8,0,0,0,0,0,0
957,3,-8,0,0,0,0,0,0
958,2,-8,-1,0,0,0,0,0
959,3,-8,-1,0,0,0,0,0
960,3,-8,0,0,0,0,0,0
961,4,-7,-1,0,0,0,0,0
962,3,-8,0,0,0,0,0,0
963,5,-5,0,0,0,0,0,0
964,2,-7,0,0,0,0,0,0
965,3,-8,0,0,0,0,0,0
966,4,-6,-1,0,0,0,0,0
967,2,-8,0,0,0,0,0,0
968,1,-9,0,0,0,0,0,0
969,2,-7,-1,0,0,0,0,0
970,4,-6,1,0,0,0,0,0
971,2,-8,-1,0,0,0,0,0
972,1,-6,-1,0,0,0,0,0
973,3,-8,-1,0,0,0,0,0
974,3,-6,0,0,0,0,0,0
975,2,-8,1,0,0,0,0,0
976,3,-7,0,0,0,0,0,0
977,1,-9,-1,0,0,0,0,0
978,3,-8,-1,0,0,0,0,0
979,4,-8,-1,0,0,0,0,0
980,3,-7,0,0,0,0,0,0
981,22,-25,6,0,0,0,0,0
982,-40,-30,22,0,0,0,0,0
983,2,-15,-29,1267,0,0,0,0
984,-43,-24,13,0,0,0,0,0
985,-13,-16,219,0,0,0,0,0
986,2,-37,25,0,0,0,0,0
987,-53,-36,-24,0,0,0,0,0
988,89,4,32,0,0,0,0,0
989,-15,-36,-15,0,0,0,0,0
990,14,-21,-26,0,0,0,0,0
991,4,-21,13,1251,0,0,0,0
992,49,-32,25,0,0,0,0,0
993,-119,-51,-28,0,0,0,0,0
994,51,-21,27,0,0,0,0,0
995,-27,-22,-2,1247,0,0,0,0
996,0,-5,27,0,0,0,0,0
997,-28,-16,0,0,0,0,0,0
998,-4,-23,10,0,0,0,0,0
999,1,-41,8,0,0,0,0,0
1000,-38,-42,31,0,0,0,0,0
1001,-30,-39,-24,0,0,0,0,0
1002,38,6,12,0,0,0,0,0
1003,-16,-50,2,0,0,0,0,0
1004,61,-16,-57,0,0,0,0,0
1005,-31,-12,-8,0,0,0,0,0
1006,89,-52,-39,0,0,0,0,0
1007,123,-29,15,0,0,0,0,0
1008,12,-18,-13,0,0,0,0,0
1009,-11,-39,-50,0,0,0,0,0
1010,88,3,26,0,0,0,0,0
1011,72,-16,-38,792,0,0,0,0
1012,42,-48,-7,0,0,0,0,0
1013,26,-62,-19,1709,0,0,0,0
1014,-61,-89,-17,0,0,0,0,0
1015,3,-50,38,1739,0,0,0,0
1016,195,30,-69,0,0,0,0,0
1017,86,-67,-21,792,0,0,0,0
1018,-73,-72,-22,0,0,0,0,0
1019,-1,15,37,1812,0,0,0,0
1020,5,-3,-26,0,0,0,0,0
1021,200,-6,-21,1841,0,0,0,0
1022,4,-239,47,0,0,0,0,0
1023,1,-51,-23,1869,0,0,0,0
1024,69,7,-12,0,0,0,0,0
1025,-54,-21,15,1897,0,0,0,0
1026,-52,11,43,0,0,0,0,0
1027,116,31,-36,0,0,0,0,0
1028,-25,-22,-20,0,0,0,0,0
1029,-32,-16,1,0,0,0,0,0
1030,-73,-71,25,0,0,0,0,0
1031,-148,2,-79,0,0,0,0,0
1032,-202,-45,14,0,0,0,0,0
1033,4,-6,-19,0,0,0,0,0
1034,-32,2,-1,0,0,0,0,0
1035,-185,-32,19,0,0,0,0,0
1036,36,-3,34,0,0,0,0,0
1037,123,-52,48,1269,0,0,0,0
1038,-4,-38,36,0,0,0,0,0
1039,54,18,36,1270,0,0,0,0
1040,80,-11,-6,0,0,0,0,0
1041,-174,-9,8,1271,0,0,0,0
1042,66,-35,9,0,0,0,0,0
1043,171,15,-5,0,0,0,0,0
1044,-68,57,-45,0,0,0,0,0
1045,102,-6,15,0,0,0,0,0
1046,-54,-29,-9,0,0,0,0,0
1047,48,-8,-59,0,0,0,0,0
1048,-10,-212,-39,0,0,0,0,0
1049,-166,-38,-39,0,0,0,0,0
1050,221,64,25,0,0,0,0,0
1051,-78,-52,15,1282,0,0,0,0
1052,63,-22,12,0,0,0,0,0
1053,-94,-47,-9,0,0,0,0,0
1054,18,246,-67,0,0,0,0,0
1055,-1,-10,126,0,0,0,0,0
1056,5,25,-63,0,0,0,0,0
1057,29,3,61,0,0,0,0,0
1058,-26,-20,33,0,0,0,0,0
1059,122,77,-9,0,0,0,0,0
1060,278,14,21,0,0,0,0,0
1061,-116,-32,5,0,0,0,0,0
1062,36,-43,14,0,0,0,0,0
1063,8,-16,-22,0,0,0,0,0
1064,88,42,-73,0,0,0,0,0
1065,39,-6,29,2630,0,0,0,0
1066,115,33,3,0,0,0,0,0
1067,119,16,46,2655,0,0,0,0
1068,23,8,25,0,0,0,0,0
1069,-130,10,39,0,0,0,0,0
1070,-109,100,56,2740,0,0,0,0
1071,-92,14,-23,0,0,0,0,0
1072,195,61,-66,0,0,0,0,0
1073,206,6,20,791,0,0,0,0
1074,-204,42,-28,0,0,0,0,0
1075,-36,-1,-66,791,0,0,0,0
1076,34,77,59,0,0,0,0,0
1077,-49,-19,-6,0,0,0,0,0
1078,84,-13,-18,0,0,0,0,0
1079,-65,56,-22,0,0,0,0,0
1080,-83,61,-60,0,0,0,0,0
1081,-40,-55,41,0,0,0,0,0
1082,-27,2,123,0,0,0,0,0
1083,-42,83,-58,0,0,0,0,0
1084,50,-33,53,791,0,0,0,0
1085,66,44,75,0,0,0,0,0
1086,142,113,-14,0,0,0,0,0
1087,2,-8,-1,0,0,0,0,0
1088,5,-8,1,0,0,0,0,0
1089,2,-9,1,0,0,0,0,0
1090,3,-9,-1,0,0,0,0,0
1091,1,-6,0,0,0,0,0,0
1092,4,-8,0,0,0,0,0,0
1093,2,-8,0,0,0,0,0,0
1094,6,-8,0,0,0,0,0,0
1095,3,-9,0,0,0,0,0,0
1096,3,-7,0,0,0,0,0,0
1097,4,-7,-1,0,0,0,0,0
1098,2,-9,0,0,0,0,0,0
1099,3,-7,-1,0,0,0,0,0
1100,3,-8,0,0,0,0,0,0
1101,2,-7,-1,0,0,0,0,0
1102,3,-7,0,0,0,0,0,0
1103,3,-8,-1,0,0,0,0,0
1104,-2,-6,0,0,0,0,0,0
1105,-1,-8,0,0,0,0,0,0
1106,2,-8,-1,0,0,0,0,0
1107,3,-7,-1,0,0,0,0,0
1108,2,-9,0,0,0,0,0,0
1109,-2,-9,-1,0,0,0,0,0
1110,4,-8,-1,0,0,0,0,0
1111,2,-9,0,0,0,0,0,0
1112,3,-6,-1,0,0,0,0,0
1113,5,-8,-1,0,0,0,0,0
1114,3,-6,1,0,0,0,0,0
1115,3,-7,0,0,0,0,0,0
1116,0,-9,-1,0,0,0,0,0
1117,6,-9,-2,0,0,0,0,0
1118,1,-9,0,0,0,0,0,0
1119,0,-8,0,0,0,0,0,0
1120,8,-7,0,0,0,0,0,0
1121,3,-8,-1,0,0,0,0,0
1122,3,-8,0,0,0,0,0,0
1123,5,-7,-1,0,0,0,0,0
1124,1,-9,-1,0,0,0,0,0
1125,2,-7,0,0,0,0,0,0
1126,7,-7,-1,0,0,0,0,0
1127,2,-7,-1,0,0,0,0,0
1128,2,-9,0,0,0,0,0,0
1129,2,-8,0,0,0,0,0,0
1130,2,-7,0,0,0,0,0,0
1131,3,-5,0,0,0,0,0,0
1132,0,-8,-3,0,0,0,0,0
1133,4,-8,0,0,0,0,0,0
1134,2,-7,-2,0,0,0,0,0
1135,3,-8,-1,0,0,0,0,0
1136,2,-8,-1,0,0,0,0,0
1137,3,-7,0,0,0,0,0,0
1138,4,-8,0,0,0,0,0,0
1139,2,-9,255,0,0,0,0,0
1140,4,-7,0,0,0,0,0,0
1141,1,-7,-1,0,0,0,0,0
1142,3,-7,-1,0,0,0,0,0
1143,3,-6,-1,0,0,0,0,0
1144,2,-7,-1,0,0,0,0,0
1145,3,-7,0,0,0,0,0,0
1146,4,-9,0,0,0,0,0,0
1147,4,-7,0,0,0,0,0,0
1148,3,-8,-1,0,0,0,0,0
1149,4,-8,-1,0,0,0,0,0
1150,2,-8,0,0,0,0,0,0
1151,2,-7,0,0,0,0,0,0
1152,2,-8,-1,0,0,0,0,0
1153,3,-6,0,0,0,0,0,0
1154,6,-8,0,0,0,0,0,0
1155,3,-7,0,0,0,0,0,0
1156,3,-7,0,0,0,0,0,0
1157,2,-8,0,0,0,0,0,0
1158,2,-8,-1,0,0,0,0,0
1159,2,-8,0,0,0,0,0,0
1160,4,-8,-1,0,0,0,0,0
1161,2,-7,-2,0,0,0,0,0
1162,4,-6,1,0,0,0,0,0
1163,2,-6,-1,0,0,0,0,0
1164,1,-7,0,0,0,0,0,0
1165,3,-7,-1,0,0,0,0,0
1166,2,-8,0,0,0,0,0,0
1167,3,-7,-1,0,0,0,0,0
1168,3,-7,-1,0,0,0,0,0
1169,4,-8,0,0,0,0,0,0
1170,3,-7,-1,0,0,0,0,0
1171,3,-6,0,0,0,0,0,0
1172,2,-7,0,0,0,0,0,0
1173,3,-8,0,0,0,0,0,0
1174,2,-7,-1,0,0,0,0,0
1175,0,-7,-2,0,0,0,0,0
1176,3,-9,-1,0,0,0,0,0
1177,9,-7,-1,0,0,0,0,0
1178,5,-7,-1,0,0,0,0,0
1179,1,-8,-1,0,0,0,0,0
1180,2,-7,0,0,0,0,0,0
1181,2,-7,-2,0,0,0,0,0
1182,2,-8,0,0,0,0,0,0
1183,2,-8,0,0,0,0,0,0
1184,2,-7,-1,0,0,0,0,0
1185,4,-7,0,0,0,0,0,0
1186,3,-7,0,0,0,0,0,0
1187,2,-8,0,0,0,0,0,0
1188,2,-6,0,0,0,0,0,0
1189,3,-8,-1,0,0,0,0,0
1190,1,-7,-1,0,0,0,0,0
1191,3,-8,0,0,0,0,0,0
1192,3,-7,-1,0,0,0,0,0
1193,4,-7,0,0,0,0,0,0
1194,2,-8,0,0,0,0,0,0
1195,1,-8,-1,0,0,0,0,0
1196,-1,-8,-1,0,0,0,0,0
1197,3,-6,0,0,0,0,0,0
1198,2,-8,0,0,0,0,0,0
1199,2,-7,-2,0,0,0,0,0
1200,3,-8,-1,0,0,0,0,0
1201,4,-7,0,0,0,0,0,0
1202,4,-8,-2,0,0,0,0,0
1203,2,-7,-1,0,0,0,0,0
1204,2,-8,-1,0,0,0,0,0
1205,5,-7,0,0,0,0,0,0
1206,5,-8,-1,0,0,0,0,0
1207,3,-7,-2,0,0,0,0,0
1208,3,-5,0,0,0,0,0,0
1209,1,-7,0,0,0,0,0,0
1210,3,-8,0,0,0,0,0,0
1211,1,-8,-1,0,0,0,0,0
1212,2,-7,-1,0,0,0,0,0
1213,0,-8,0,0,0,0,0,0
1214,4,-7,0,0,0,0,0,0
1215,0,-7,0,0,0,0,0,0
1216,2,-8,0,0,0,0,0,0
1217,2,-7,0,0,0,0,0,0
1218,2,-8,0,0,0,0,0,0
1219,5,-7,-2,0,0,0,0,0
1220,3,-8,0,0,0,0,0,0
1221,1,-9,0,0,0,0,0,0
1222,3,-6,-1,0,0,0,0,0
1223,2,-7,1,0,0,0,0,0
1224,2,-7,1,0,0,0,0,0
1225,2,-8,-1,0,0,0,0,0
1226,2,-8,0,0,0,0,0,0
1227,3,-9,0,0,0,0,0,0
1228,2,-8,-1,0,0,0,0,0
1229,2,-8,-1,0,0,0,0,0
1230,2,-8,0,0,0,0,0,0
1231,2,-6,0,0,0,0,0,0
1232,3,-8,0,0,0,0,0,0
1233,3,-7,0,0,0,0,0,0
1234,3,-6,0,0,0,0,0,0
1235,3,-8,-1,0,0,0,0,0
1236,2,-8,-1,0,0,0,0,0
1237,3,-7,1,0,0,0,0,0
1238,3,-8,0,0,0,0,0,0
1239,2,-7,0,0,0,0,0,0
1240,3,-7,1,0,0,0,0,0
1241,3,-8,0,0,0,0,0,0
1242,3,-8,-1,0,0,0,0,0
1243,4,-7,-1,0,0,0,0,0
1244,3,-9,0,0,0,0,0,0
1245,2,-8,0,0,0,0,0,0
1246,3,-7,0,0,0,0,0,0
1247,3,-7,-1,0,0,0,0,0
1248,2,-7,0,0,0,0,0,0
1249,3,-7,0,0,0,0,0,0
1250,0,-7,-3,0,0,0,0,0
1251,4,-7,0,0,0,0,0,0
1252,5,-7,0,0,0,0,0,0
1253,0,-8,-1,0,0,0,0,0
1254,1,-6,-1,0,0,0,0,0
1255,3,-9,1,0,0,0,0,0
1256,3,-6,0,0,0,0,0,0
1257,1,-10,-2,0,0,0,0,0
1258,2,-7,0,0,0,0,0,0
1259,4,-8,0,0,0,0,0,0
1260,2,-9,-1,0,0,0,0,0
1261,4,-9,0,0,0,0,0,0
1262,4,-6,-1,0,0,0,0,0
1263,3,-10,0,0,0,0,0,0
1264,3,-7,0,0,0,0,0,0
1265,1,-9,1,0,0,0,0,0
1266,2,-6,-1,0,0,0,0,0
1267,3,-7,-1,0,0,0,0,0
1268,3,-8,-1,0,0,0,0,0
1269,2,-8,0,0,0,0,0,0
1270,3,-8,0,0,0,0,0,0
1271,3,-5,0,0,0,0,0,0
1272,4,-8,-1,0,0,0,0,0
1273,5,-4,0,0,0,0,0,0
1274,1,-7,0,0,0,0,0,0
1275,3,-7,-1,0,0,0,0,0
1276,3,-7,0,0,0,0,0,0
1277,5,-7,-1,0,0,0,0,0
1278,4,-9,0,0,0,0,0,0
1279,2,-6,0,0,0,0,0,0
1280,5,-7,-1,0,0,0,0,0
1281,2,-7,-1,0,0,0,0,0
1282,3,-7,0,0,0,0,0,0
1283,3,-7,0,0,0,0,0,0
1284,1,-9,0,0,0,0,0,0
1285,6,-6,0,0,0,0,0,0
1286,5,-6,-1,0,0,0,0,0
1287,2,-8,-2,0,0,0,0,0
1288,4,-9,0,0,0,0,0,0
1289,4,-6,0,0,0,0,0,0
1290,3,-8,-1,0,0,0,0,0
1291,1,-5,1,0,0,0,0,0
1292,1,-8,1,0,0,0,0,0
1293,3,-7,-2,0,0,0,0,0
1294,3,-8,-1,0,0,0,0,0
1295,1,-8,-1,0,0,0,0,0
1296,2,-7,0,0,0,0,0,0
1297,11,-7,-1,0,0,0,0,0
1298,3,-7,-1,0,0,0,0,0
1299,3,-8,-2,0,0,0,0,0
1300,3,-5,-1,0,0,0,0,0
1301,4,-5,0,0,0,0,0,0
1302,4,-6,0,0,0,0,0,0
1303,-6,-6,0,0,0,0,0,0
1304,13,-6,0,0,0,0,0,0
1305,6,-7,-2,0,0,0,0,0
1306,6,-6,-1,0,0,0,0,0
1307,1,-8,-1,0,0,0,0,0
1308,5,-6,-1,0,0,0,0,0
1309,0,-8,0,0,0,0,0,0
1310,3,-7,0,0,0,0,0,0
1311,2,-7,0,0,0,0,0,0
1312,2,-8,-1,0,0,0,0,0
1313,2,-7,0,0,0,0,0,0
1314,1,-7,0,0,0,0,0,0
1315,2,-8,0,0,0,0,0,0
1316,0,-7,-1,0,0,0,0,0
1317,2,-8,-1,0,0,0,0,0
1318,2,-8,-1,0,0,0,0,0
1319,3,-8,-1,0,0,0,0,0
1320,2,-7,-256,0,0,0,0,0
1321,3,-7,0,0,0,0,0,0
1322,4,-8,0,0,0,0,0,0
1323,2,-8,-1,0,0,0,0,0
1324,3,-7,0,0,0,0,0,0
1325,3,-8,0,0,0,0,0,0
1326,2,-7,-1,0,0,0,0,0
1327,3,-7,0,0,0,0,0,0
1328,3,-7,-1,0,0,0,0,0
1329,3,-7,0,0,0,0,0,0
1330,1,-8,-1,0,0,0,0,0
1331,2,-8,0,0,0,0,0,0
1332,2,-7,-1,0,0,0,0,0
1333,2,-8,-1,0,0,0,0,0
1334,3,-7,0,0,0,0,0,0
1335,4,-7,-1,0,0,0,0,0
1336,2,-9,0,0,0,0,0,0
1337,3,-7,0,0,0,0,0,0
1338,3,-7,-1,0,0,0,0,0
1339,3,-8,0,0,0,0,0,0
1340,2,-8,-1,0,0,0,0,0
1341,3,-8,-1,0,0,0,0,0
1342,3,-7,0,0,0,0,0,0
1343,2,-7,-1,0,0,0,0,0
1344,3,-8,-1,0,0,0,0,0
1345,3,-8,0,0,0,0,0,0
1346,2,-7,-1,0,0,0,0,0
1347,3,-8,-1,0,0,0,0,0
1348,2,-9,0,0,0,0,0,0
1349,1,-8,-1,0,0,0,0,0
1350,3,-8,-1,0,0,0,0,0
1351,4,-8,-1,0,0,0,0,0
1352,0,-10,0,0,0,0,0,0
1353,0,-7,0,0,0,0,0,0
1354,7,-7,255,0,0,0,0,0
1355,4,-9,-1,0,0,0,0,0
1356,0,-7,0,0,0,0,0,0
1357,4,-9,1,0,0,0,0,0
1358,2,-7,-1,0,0,0,0,0
1359,2,-8,-1,0,0,0,0,0
1360,4,-8,0,0,0,0,0,0
1361,5,-6,0,0,0,0,0,0
1362,2,-8,1,0,0,0,0,0
1363,2,-7,-1,0,0,0,0,0
1364,4,-8,0,0,0,0,0,0
1365,3,-8,-1,0,0,0,0,0
1366,3,-9,0,0,0,0,0,0
1367,4,-8,-1,0,0,0,0,0
1368,3,-7,-1,0,0,0,0,0
1369,3,-7,0,0,0,0,0,0
1370,1,-7,-1,0,0,0,0,0
1371,2,-8,0,0,0,0,0,0
1372,2,-8,-1,0,0,0,0,0
1373,4,-7,0,0,0,0,0,0
1374,1,-8,-1,0,0,0,0,0
1375,3,-7,0,0,0,0,0,0
1376,3,-7,0,0,0,0,0,0
1377,3,-6,0,0,0,0,0,0
1378,0,-7,0,0,0,0,0,0
1379,4,-9,0,0,0,0,0,0
1380,2,-7,0,0,0,0,0,0
1381,3,-8,0,0,0,0,0,0
1382,4,-6,-1,0,0,0,0,0
1383,4,-6,-1,0,0,0,0,0
1384,4,-7,0,0,0,0,0,0
1385,3,-7,0,0,0,0,0,0
1386,1,-7,0,0,0,0,0,0
1387,2,-7,-1,0,0,0,0,0
1388,3,-6,1,0,0,0,0,0
1389,3,-6,-1,0,0,0,0,0
1390,1,-7,-1,0,0,0,0,0
1391,1,-8,0,0,0,0,0,0
1392,3,-7,-1,0,0,0,0,0
1393,3,-6,-1,0,0,0,0,0
1394,2,-8,0,0,0,0,0,0
1395,3,-8,1,0,0,0,0,0
1396,1,-8,-2,0,0,0,0,0
1397,3,-6,0,0,0,0,0,0
1398,4,-8,-1,0,0,0,0,0
1399,3,-8,-1,0,0,0,0,0
1400,2,-9,0,0,0,0,0,0
1401,4,-7,0,0,0,0,0,0
1402,2,-7,0,0,0,0,0,0
1403,2,-7,-1,0,0,0,0,0
1404,3,-9,-1,0,0,0,0,0
1405,4,-7,0,0,0,0,0,0
1406,3,-7,-2,0,0,0,0,0
1407,4,-8,1,0,0,0,0,0
1408,3,-8,0,0,0,0,0,0
1409,3,-8,1,0,0,0,0,0
1410,3,-8,-1,0,0,0,0,0
1411,3,-6,-1,0,0,0,0,0
1412,2,-7,0,0,0,0,0,0
1413,3,-7,0,0,0,0,0,0
1414,2,-7,-1,0,0,0,0,0
1415,2,-5,-1,0,0,0,0,0
1416,4,-7,-1,0,0,0,0,0
1417,3,-9,0,0,0,0,0,0
1418,1,-8,-1,0,0,0,0,0
1419,3,-7,0,0,0,0,0,0
1420,5,-7,0,0,0,0,0,0
1421,3,-7,1,0,0,0,0,0
1422,0,-7,1,0,0,0,0,0
1423,2,-8,0,0,0,0,0,0
1424,2,-8,0,0,0,0,0,0
1425,2,-7,0,0,0,0,0,0
1426,2,-7,0,0,0,0,0,0
1427,3,-8,-1,0,0,0,0,0
1428,2,-7,0,0,0,0,0,0
1429,5,-8,-1,0,0,0,0,0
1430,1,-7,-1,0,0,0,0,0
1431,3,-7,-1,0,0,0,0,0
1432,2,-6,0,0,0,0,0,0
1433,1,-7,0,0,0,0,0,0
1434,3,-7,0,0,0,0,0,0
1435,3,-7,-1,0,0,0,0,0
1436,3,-8,0,0,0,0,0,0
1437,2,-6,-1,0,0,0,0,0
1438,1,-7,-1,0,0,0,0,0
1439,2,-8,-1,0,0,0,0,0
1440,1,-6,0,0,0,0,0,0
1441,3,-8,-2,0,0,0,0,0
1442,2,-7,-1,0,0,0,0,0
1443,2,-9,-2,0,0,0,0,0
1444,3,-8,-1,0,0,0,0,0
1445,1,-7,-1,0,0,0,0,0
1446,2,-9,2,0,0,0,0,0
1447,4,-7,-1,0,0,0,0,0
1448,1,-9,0,0,0,0,0,0
1449,2,-7,0,0,0,0,0,0
1450,3,-6,0,0,0,0,0,0
1451,4,-7,0,0,0,0,0,0
1452,3,-8,0,0,0,0,0,0
1453,3,-8,0,0,0,0,0,0
1454,4,-8,0,0,0,0,0,0
1455,2,-9,-1,0,0,0,0,0
1456,4,-7,0,0,0,0,0,0
1457,3,-6,-1,0,0,0,0,0
1458,1,-8,0,0,0,0,0,0
1459,3,-8,0,0,0,0,0,0
1460,1,-7,0,0,0,0,0,0
1461,3,-7,0,0,0,0,0,0
1462,1,-6,-1,0,0,0,0,0
1463,3,-7,-1,0,0,0,0,0
1464,3,-8,0,0,0,0,0,0
1465,3,-9,-1,0,0,0,0,0
1466,3,-7,-1,0,0,0,0,0
1467,3,-7,-1,0,0,0,0,0
1468,4,-7,-1,0,0,0,0,0
1469,2,-6,0,0,0,0,0,0
1470,2,-6,0,0,0,0,0,0
1471,4,-5,0,0,0,0,0,0
1472,2,-7,-1,0,0,0,0,0
1473,4,-7,1,0,0,0,0,0
1474,4,-8,0,0,0,0,0,0
1475,3,-8,0,0,0,0,0,0
1476,4,-6,-1,0,0,0,0,0
1477,3,-7,1,0,0,0,0,0
1478,3,-8,0,0,0,0,0,0
1479,1,-7,0,0,0,0,0,0
1480,2,-8,1,0,0,0,0,0
1481,3,-7,0,0,0,0,0,0
1482,4,-7,0,0,0,0,0,0
1483,3,-8,-1,0,0,0,0,0
1484,3,-7,0,0,0,0,0,0
1485,2,-7,-1,0,0,0,0,0
1486,4,-8,0,0,0,0,0,0
1487,1,-8,0,0,0,0,0,0
1488,3,-6,0,0,0,0,0,0
1489,2,-7,0,0,0,0,0,0
1490,2,-8,0,0,0,0,0,0
1491,3,-8,-1,0,0,0,0,0
1492,2,-7,0,0,0,0,0,0
1493,1,-8,-1,0,0,0,0,0
1494,3,-9,1,0,0,0,0,0
1495,4,-8,0,0,0,0,0,0
1496,2,-7,0,0,0,0,0,0
1497,4,-8,0,0,0,0,0,0
1498,4,-8,-1,0,0,0,0,0
1499,2,-8,0,0,0,0,0,0
1500,1,-7,-1,0,0,0,0,0
1501,4,-7,0,0,0,0,0,0
1502,2,-7,1,0,0,0,0,0
1503,4,-7,-1,0,0,0,0,0
1504,3,-7,0,0,0,0,0,0
1505,4,-8,0,0,0,0,0,0
1506,3,-8,0,0,0,0,0,0
1507,3,-8,-1,0,0,0,0,0
1508,2,-7,0,0,0,0,0,0
1509,4,-7,-1,0,0,0,0,0
1510,2,-8,0,0,0,0,0,0
1511,4,-7,-1,0,0,0,0,0
1512,1,-8,-1,0,0,0,0,0
1513,3,-7,0,0,0,0,0,0
1514,2,-7,0,0,0,0,0,0
1515,2,-7,0,0,0,0,0,0
1516,2,-9,0,0,0,0,0,0
1517,4,-8,-1,0,0,0,0,0
1518,3,-7,0,0,0,0,0,0
1519,4,-7,-1,0,0,0,0,0
1520,3,-7,-1,0,0,0,0,0
1521,2,-8,0,0,0,0,0,0
1522,3,-8,-1,0,0,0,0,0
1523,2,-7,0,0,0,0,0,0
1524,2,-6,1,0,0,0,0,0
1525,2,-7,-1,0,0,0,0,0
1526,2,-9,-1,0,0,0,0,0
1527,2,-9,0,0,0,0,0,0
1528,1,-9,-1,0,0,0,0,0
1529,4,-6,0,0,0,0,0,0
1530,3,-8,-1,0,0,0,0,0
1531,2,-5,0,0,0,0,0,0
1532,2,-7,-1,0,0,0,0,0
1533,3,-9,1,0,0,0,0,0
1534,4,-7,0,0,0,0,0,0
1535,1,-8,-1,0,0,0,0,0
1536,4,-7,-1,0,0,0,0,0
1537,4,-7,-1,0,0,0,0,0
1538,2,-7,0,0,0,0,0,0
1539,2,-7,0,0,0,0,0,0
1540,3,-9,-1,0,0,0,0,0
1541,2,-8,0,0,0,0,0,0
1542,4,-7,0,0,0,0,0,0
1543,11,-5,0,0,0,0,0,0
1544,0,12,2,0,0,0,0,0
1545,0,-1,0,0,0,0,0,0
1546,5,11,-2,0,0,0,0,0
1547,-45,-26,-3,0,0,0,0,0
1548,-5,35,1,0,0,0,0,0
1549,15,4,-7,0,0,0,0,0
1550,-15,59,10,0,0,0,0,0
1551,7,46,-10,0,0,0,0,0
1552,-11,72,2,0,0,0,0,0
1553,13,71,-5,0,0,0,0,0
1554,-11,82,-7,0,0,0,0,0
1555,36,79,-6,0,0,0,0,0
1556,0,93,7,0,0,0,0,0
1557,39,91,-3,0,0,0,0,0
1558,24,112,9,0,0,0,0,0
1559,19,107,-2,0,0,0,0,0
1560,19,117,-4,0,0,0,0,0
1561,42,126,6,0,0,0,0,0
1562,0,131,4,0,0,0,0,0
1563,49,152,-2,713,0,0,0,0
1564,-35,141,-2,0,0,0,0,0
1565,-8,155,-1,0,0,0,0,0
1566,38,152,3,0,0,0,0,0
1567,14,158,-2,679,0,0,0,0
1568,12,165,-11,0,0,0,0,0
1569,5,165,4,276,0,0,0,0
1570,42,173,-11,0,0,0,0,0
1571,1,167,-6,287,0,0,0,0
1572,41,188,1,0,0,0,0,0
1573,9,168,-6,298,0,0,0,0
1574,-30,166,1,0,0,0,0,0
1575,78,202,6,0,0,0,0,0
1576,45,212,6,333,0,0,0,0
1577,14,209,13,0,0,0,0,0
1578,0,207,-8,348,0,0,0,0
1579,71,229,4,0,0,0,0,0
1580,-55,217,-5,365,0,0,0,0
1581,18,225,2,0,0,0,0,0
1582,47,244,18,382,0,0,0,0
1583,28,237,11,0,0,0,0,0
1584,61,260,24,399,0,0,0,0
1585,15,249,7,0,0,0,0,0
1586,23,250,5,425,0,0,0,0
1587,79,268,13,0,0,0,0,0
1588,125,277,9,1160,0,0,0,0
1589,-10,263,9,0,0,0,0,0
1590,19,271,32,460,0,0,0,0
1591,62,288,13,0,0,0,0,0
1592,24,292,19,0,0,0,0,0
1593,-38,290,53,0,0,0,0,0
1594,67,295,36,0,0,0,0,0
1595,-36,269,46,0,0,0,0,0
1596,-22,280,26,0,0,0,0,0
1597,68,290,37,0,0,0,0,0
1598,37,317,-16,1068,0,0,0,0
1599,77,321,2,0,0,0,0,0
1600,-35,306,-9,0,0,0,0,0
1601,11,327,5,1048,0,0,0,0
1602,13,321,11,0,0,0,0,0
1603,32,327,13,0,0,0,0,0
1604,-27,324,11,0,0,0,0,0
1605,73,355,0,0,0,0,0,0
1606,48,365,31,0,0,0,0,0
1607,-77,326,25,0,0,0,0,0
1608,-43,347,12,0,0,0,0,0
1609,124,359,2,0,0,0,0,0
1610,57,332,-14,0,0,0,0,0
1611,88,349,-25,0,0,0,0,0
1612,210,370,3,0,0,0,0,0
1613,150,348,-2,0,0,0,0,0
1614,128,362,13,0,0,0,0,0
1615,146,361,10,0,0,0,0,0
1616,32,345,-21,0,0,0,0,0
1617,85,345,2,0,0,0,0,0
1618,73,353,13,0,0,0,0,0
1619,100,354,10,0,0,0,0,0
1620,132,382,14,0,0,0,0,0
1621,61,358,10,0,0,0,0,0
1622,-65,351,-12,0,0,0,0,0
1623,79,367,10,0,0,0,0,0
1624,78,360,1,0,0,0,0,0
1625,37,342,20,0,0,0,0,0
1626,53,367,28,0,0,0,0,0
1627,21,372,-37,0,0,0,0,0
1628,110,384,53,0,0,0,0,0
1629,-89,341,-14,0,0,0,0,0
1630,-52,339,-2,0,0,0,0,0
1631,99,343,-38,0,0,0,0,0
1632,26,333,-15,0,0,0,0,0
1633,-32,269,-6,0,0,0,0,0
1634,65,233,-37,0,0,0,0,0
1635,-25,196,-4,0,0,0,0,0
1636,136,137,-1,0,0,0,0,0
1637,-38,92,6,0,0,0,0,0
1638,-92,71,-17,0,0,0,0,0
1639,103,68,9,0,0,0,0,0
1640,87,38,53,0,0,0,0,0
1641,46,2,7,0,0,0,0,0
1642,16,0,-37,0,0,0,0,0
1643,28,-46,0,0,0,0,0,0
1644,76,-49,-14,0,0,0,0,0
1645,-13,-49,5,0,0,0,0,0
1646,5,-36,-25,0,0,0,0,0
1647,-111,-49,8,0,0,0,0,0
1648,29,-73,0,0,0,0,0,0
1649,69,-31,6,0,0,0,0,0
1650,104,-43,-29,0,0,0,0,0
1651,-131,-77,28,0,0,0,0,0
1652,-42,-62,-10,0,0,0,0,0
1653,18,-71,-22,0,0,0,0,0
1654,56,-37,21,0,0,0,0,0
1655,93,-52,-12,0,0,0,0,0
1656,-45,-63,16,0,0,0,0,0
1657,-40,-65,-17,0,0,0,0,0
1658,-29,-72,-10,0,0,0,0,0
1659,10,-71,13,0,0,0,0,0
1660,-54,-59,10,0,0,0,0,0
1661,-79,-93,8,0,0,0,0,0
1662,91,-65,25,1061,0,0,0,0
1663,-3,-60,37,0,0,0,0,0
1664,-84,-49,-30,0,0,0,0,0
1665,77,-71,44,0,0,0,0,0
1666,-37,-71,-19,0,0,0,0,0
1667,-67,-48,-14,0,0,0,0,0
1668,120,-73,28,0,0,0,0,0
1669,3,-44,3,0,0,0,0,0
1670,-158,-59,14,0,0,0,0,0
1671,-92,-70,7,0,0,0,0,0
1672,-2,-31,8,1092,0,0,0,0
1673,-50,-65,13,0,0,0,0,0
1674,50,-40,1,1091,0,0,0,0
1675,-261,-48,14,0,0,0,0,0
1676,110,-52,-4,1099,0,0,0,0
1677,191,-20,11,0,0,0,0,0
1678,-36,-24,-33,1075,0,0,0,0
1679,-38,-30,11,0,0,0,0,0
1680,46,-9,-7,1090,0,0,0,0
1681,-10,-11,-15,0,0,0,0,0
1682,159,5,-14,476,0,0,0,0
1683,-260,-48,-5,0,0,0,0,0
1684,-42,-22,-6,0,0,0,0,0
1685,26,-8,-24,0,0,0,0,0
1686,35,-6,25,1146,0,0,0,0
1687,-16,-18,-17,0,0,0,0,0
1688,-91,-20,-41,475,0,0,0,0
1689,-34,-41,17,0,0,0,0,0
1690,77,8,9,0,0,0,0,0
1691,66,-19,-50,0,0,0,0,0
1692,-41,-8,-4,459,0,0,0,0
1693,-150,-46,8,0,0,0,0,0
1694,48,-14,3,0,0,0,0,0
1695,147,-9,-7,0,0,0,0,0
1696,114,21,59,0,0,0,0,0
1697,37,-23,9,0,0,0,0,0
1698,-53,-3,34,0,0,0,0,0
1699,-84,-32,-29,0,0,0,0,0
1700,-11,-33,2,0,0,0,0,0
1701,-79,-21,-3,0,0,0,0,0
1702,44,-13,-2,0,0,0,0,0
1703,-118,-47,-13,0,0,0,0,0
1704,128,-18,27,0,0,0,0,0
1705,-22,-49,46,0,0,0,0,0
1706,-10,-8,-11,0,0,0,0,0
1707,-28,-10,-30,0,0,0,0,0
1708,48,-12,42,0,0,0,0,0
1709,54,-6,-13,0,0,0,0,0
1710,-83,4,-3,0,0,0,0,0
1711,91,25,29,0,0,0,0,0
1712,-45,-19,11,0,0,0,0,0
1713,-14,-37,8,0,0,0,0,0
1714,86,-12,-40,0,0,0,0,0
1715,73,30,-8,0,0,0,0,0
1716,-140,-49,14,0,0,0,0,0
1717,-115,-21,-29,0,0,0,0,0
1718,65,-1,-8,0,0,0,0,0
1719,109,-27,4,1355,0,0,0,0
1720,-21,-35,6,0,0,0,0,0
1721,-12,-35,-19,0,0,0,0,0
1722,89,6,17,0,0,0,0,0
1723,-79,-32,-20,0,0,0,0,0
1724,-51,-47,-46,0,0,0,0,0
1725,-5,-17,-10,0,0,0,0,0
1726,229,0,-7,0,0,0,0,0
1727,30,-16,15,0,0,0,0,0
1728,24,-11,-16,0,0,0,0,0
1729,93,-26,-5,0,0,0,0,0
1730,-109,-56,13,0,0,0,0,0
1731,59,-31,49,0,0,0,0,0
1732,-85,-32,36,0,0,0,0,0
1733,-64,-62,-62,0,0,0,0,0
1734,101,-18,-12,0,0,0,0,0
1735,-12,-66,-7,0,0,0,0,0
1736,128,2,-29,1436,0,0,0,0
1737,200,8,-23,0,0,0,0,0
1738,-24,-43,-9,0,0,0,0,0
1739,174,-33,-36,0,0,0,0,0
1740,-49,-65,4,0,0,0,0,0
1741,-24,-54,-28,0,0,0,0,0
1742,-51,-72,-25,0,0,0,0,0
1743,64,-21,12,0,0,0,0,0
1744,-28,-33,-51,0,0,0,0,0
1745,-7,-55,54,0,0,0,0,0
1746,-203,-69,58,0,0,0,0,0
1747,-30,-59,-4,0,0,0,0,0
1748,-219,-118,-3,0,0,0,0,0
1749,-28,-16,-20,0,0,0,0,0
1750,94,-41,22,0,0,0,0,0
1751,58,302,38,765,0,0,0,0
1752,-28,375,3,0,0,0,0,0
1753,37,403,-28,0,0,0,0,0
1754,10,394,10,0,0,0,0,0
1755,94,379,11,792,0,0,0,0
1756,95,394,-17,0,0,0,0,0
1757,62,376,-35,777,0,0,0,0
1758,-19,386,-2,772,0,0,0,0
1759,170,401,8,0,0,0,0,0
1760,-13,370,-24,991,0,0,0,0
1761,242,376,-28,0,0,0,0,0
1762,-19,364,-6,984,0,0,0,0
1763,-29,321,-7,0,0,0,0,0
1764,10,366,14,0,0,0,0,0
1765,32,370,-11,0,0,0,0,0
1766,76,345,-1,0,0,0,0,0
1767,38,284,10,0,0,0,0,0
1768,-72,271,6,0,0,0,0,0
1769,54,270,10,0,0,0,0,0
1770,-30,221,-12,0,0,0,0,0
1771,79,230,8,0,0,0,0,0
1772,37,211,27,0,0,0,0,0
1773,16,205,12,0,0,0,0,0
1774,15,188,12,0,0,0,0,0
1775,50,193,3,0,0,0,0,0
1776,13,180,-8,197,0,0,0,0
1777,14,171,7,0,0,0,0,0
1778,-215,162,4,0,0,0,0,0
1779,12,158,0,2,0,0,0,0
1780,2,151,5,2,0,0,0,0
1781,20,139,6,0,0,0,0,0
1782,-7,125,-2,0,0,0,0,0
1783,5,119,-2,3,0,0,0,0
1784,9,113,-7,471,0,0,0,0
1785,19,104,5,0,0,0,0,0
1786,29,105,-3,1,0,0,0,0
1787,-13,97,-1,0,0,0,0,0
1788,20,101,3,123,0,0,0,0
1789,47,92,0,0,0,0,0,0
1790,4,84,2,653,0,0,0,0
1791,14,80,1,0,0,0,0,0
1792,14,72,-2,749,0,0,0,0
1793,1,55,-7,0,0,0,0,0
1794,0,60,-3,0,0,0,0,0
1795,18,48,4,0,0,0,0,0
1796,105,36,24,0,0,0,0,0
1797,-230,67,23,0,0,0,0,0
1798,-14,106,-27,0,0,0,0,0
1799,4,45,16,0,0,0,0,0
1800,41,100,1,0,0,0,0,0
1801,38,86,-2,908,0,0,0,0
1802,3,-7,1,0,0,0,0,0
1803,3,-7,-1,0,0,0,0,0
1804,3,-7,0,0,0,0,0,0
1805,4,-8,0,0,0,0,0,0
1806,2,-8,0,0,0,0,0,0
1807,3,-7,0,0,0,0,0,0
1808,4,-8,0,0,0,0,0,0
1809,2,-7,-1,0,0,0,0,0
1810,2,-8,-1,0,0,0,0,0
1811,4,-7,0,0,0,0,0,0
1812,2,-8,-1,0,0,0,0,0
1813,4,-7,-1,0,0,0,0,0
1814,2,-7,-1,0,0,0,0,0
1815,3,-8,-1,0,0,0,0,0
1816,3,-8,1,0,0,0,0,0
1817,2,-8,1,0,0,0,0,0
1818,3,-7,-1,0,0,0,0,0
1819,2,-6,-1,0,0,0,0,0
1820,4,-6,0,0,0,0,0,0
1821,1,-7,-1,0,0,0,0,0
1822,3,-8,0,0,0,0,0,0
1823,2,-7,0,0,0,0,0,0
1824,4,-8,-2,0,0,0,0,0
1825,4,-8,0,0,0,0,0,0
1826,2,-7,0,0,0,0,0,0
1827,2,-6,0,0,0,0,0,0
1828,3,-8,-1,0,0,0,0,0
1829,3,-8,-1,0,0,0,0,0
1830,4,-7,-1,0,0,0,0,0
1831,3,-9,0,0,0,0,0,0
1832,2,-6,-1,0,0,0,0,0
1833,3,-8,0,0,0,0,0,0
1834,4,-6,0,0,0,0,0,0
1835,3,-9,-1,0,0,0,0,0
1836,0,-7,0,0,0,0,0,0
1837,1,-7,-1,0,0,0,0,0
1838,3,-7,0,0,0,0,0,0
1839,2,-7,0,0,0,0,0,0
1840,2,-8,0,0,0,0,0,0
1841,2,-6,1,0,0,0,0,0
1842,5,-6,-1,0,0,0,0,0
1843,-5,-4,-1,0,0,0,0,0
1844,2,-2,0,0,0,0,0,0
1845,-6,-8,-1,0,0,0,0,0
1846,4,-8,0,0,0,0,0,0
1847,8,-2,-2,0,0,0,0,0
1848,7,-9,-1,0,0,0,0,0
1849,2,-7,-1,0,0,0,0,0
1850,13,-7,-2,0,0,0,0,0
1851,-6,-6,1,0,0,0,0,0
1852,11,-10,-1,0,0,0,0,0
1853,-1,-5,-2,0,0,0,0,0
1854,8,-10,-2,0,0,0,0,0
1855,4,-9,0,0,0,0,0,0
1856,1,-8,-1,0,0,0,0,0
1857,5,-6,-1,0,0,0,0,0
1858,3,-7,-2,0,0,0,0,0
1859,4,-8,-2,0,0,0,0,0
1860,4,-6,0,0,0,0,0,0
1861,2,-8,-1,0,0,0,0,0
1862,6,-7,-1,0,0,0,0,0
1863,4,-7,-1,0,0,0,0,0
1864,2,-7,0,0,0,0,0,0
1865,1,-7,-1,0,0,0,0,0
1866,2,-9,0,0,0,0,0,0
1867,3,-8,0,0,0,0,0,0
1868,3,-7,0,0,0,0,0,0
1869,3,-8,-1,0,0,0,0,0
1870,3,-7,-1,0,0,0,0,0
1871,3,-8,-2,0,0,0,0,0
1872,1,-8,0,0,0,0,0,0
1873,4,-8,0,0,0,0,0,0
1874,1,-7,-1,0,0,0,0,0
1875,3,-8,1,0,0,0,0,0
1876,4,-8,1,0,0,0,0,0
1877,3,-8,-1,0,0,0,0,0
1878,4,-6,0,0,0,0,0,0
1879,8,-5,-2,0,0,0,0,0
1880,-6,-3,0,0,0,0,0,0
1881,-2,-7,-1,0,0,0,0,0
1882,4,-8,-2,0,0,0,0,0
1883,1,-10,-2,0,0,0,0,0
1884,11,-12,0,0,0,0,0,0
1885,6,-7,-2,0,0,0,0,0
1886,-2,-6,1,0,0,0,0,0
1887,5,-11,1,0,0,0,0,0
1888,0,-8,-1,0,0,0,0,0
1889,3,-9,0,0,0,0,0,0
1890,1,-9,-1,0,0,0,0,0
1891,4,-8,1,0,0,0,0,0
1892,3,-7,-2,0,0,0,0,0
1893,3,-7,0,0,0,0,0,0
1894,1,-9,1,0,0,0,0,0
1895,3,-5,0,0,0,0,0,0
1896,3,-8,0,0,0,0,0,0
1897,2,-7,1,0,0,0,0,0
1898,5,-7,0,0,0,0,0,0
1899,3,-9,1,0,0,0,0,0
1900,3,-9,-1,0,0,0,0,0
1901,2,-7,-1,0,0,0,0,0
1902,4,-7,-1,0,0,0,0,0
1903,3,-7,-1,0,0,0,0,0
1904,3,-7,-1,0,0,0,0,0
1905,3,-7,-2,0,0,0,0,0
1906,3,-6,1,0,0,0,0,0
1907,4,-8,0,0,0,0,0,0
1908,2,-8,-1,0,0,0,0,0
1909,3,-8,-1,0,0,0,0,0
1910,2,-7,0,0,0,0,0,0
1911,1,-7,0,0,0,0,0,0
1912,1,-8,0,0,0,0,0,0
1913,2,-9,0,0,0,0,0,0
1914,2,-7,0,0,0,0,0,0
1915,2,-7,0,0,0,0,0,0
1916,3,-6,-2,0,0,0,0,0
1917,3,-7,0,0,0,0,0,0
1918,3,-7,-1,0,0,0,0,0
1919,3,-7,-1,0,0,0,0,0
1920,4,-8,0,0,0,0,0,0
1921,3,-7,-1,0,0,0,0,0
1922,3,-8,-1,0,0,0,0,0
1923,2,-6,-1,0,0,0,0,0
1924,3,-7,0,0,0,0,0,0
1925,3,-6,-2,0,0,0,0,0
1926,2,-7,0,0,0,0,0,0
1927,2,-8,-1,0,0,0,0,0
1928,2,-6,-1,0,0,0,0,0
1929,3,-7,-1,0,0,0,0,0
1930,3,-6,-1,0,0,0,0,0
1931,2,-8,-1,0,0,0,0,0
1932,3,-7,0,0,0,0,0,0
1933,2,-6,0,0,0,0,0,0
1934,3,-8,0,0,0,0,0,0
1935,1,-7,0,0,0,0,0,0
1936,2,-6,-2,0,0,0,0,0
1937,2,-7,1,0,0,0,0,0
1938,2,-8,-1,0,0,0,0,0
1939,1,-7,0,0,0,0,0,0
1940,5,-5,-2,0,0,0,0,0
1941,3,-6,0,0,0,0,0,0
1942,1,-7,-1,0,0,0,0,0
1943,3,-6,-1,0,0,0,0,0
1944,2,-7,0,0,0,0,0,0
1945,3,-8,0,0,0,0,0,0
1946,2,-8,0,0,0,0,0,0
1947,4,-8,0,0,0,0,0,0
1948,3,-8,0,0,0,0,0,0
1949,3,-6,-1,0,0,0,0,0
1950,3,-9,0,0,0,0,0,0
1951,3,-6,-1,0,0,0,0,0
1952,2,-8,0,0,0,0,0,0
1953,1,-9,0,0,0,0,0,0
1954,4,-8,0,0,0,0,0,0
1955,2,-6,0,0,0,0,0,0
1956,3,-7,0,0,0,0,0,0
1957,3,-8,-1,0,0,0,0,0
1958,2,-7,-1,0,0,0,0,0
1959,3,-6,0,0,0,0,0,0
1960,4,-7,0,0,0,0,0,0
1961,3,-7,-1,0,0,0,0,0
1962,2,-7,0,0,0,0,0,0
1963,3,-7,1,0,0,0,0,0
1964,1,-6,0,0,0,0,0,0
1965,3,-8,-1,0,0,0,0,0
1966,3,-7,0,0,0,0,0,0
1967,0,-8,0,0,0,0,0,0
1968,1,-7,-2,0,0,0,0,0
1969,3,-7,0,0,0,0,0,0
1970,3,-9,0,0,0,0,0,0
1971,3,-8,-1,0,0,0,0,0
1972,5,-7,0,0,0,0,0,0
1973,2,-7,-1,0,0,0,0,0
1974,4,-9,0,0,0,0,0,0
1975,0,-8,-1,0,0,0,0,0
1976,4,-10,0,0,0,0,0,0
1977,2,-6,0,0,0,0,0,0
1978,3,-7,-2,0,0,0,0,0
1979,2,-6,0,0,0,0,0,0
1980,-1,-7,0,0,0,0,0,0
1981,1,-7,0,0,0,0,0,0
1982,3,-8,0,0,0,0,0,0
1983,4,-7,-1,0,0,0,0,0
1984,2,-8,0,0,0,0,0,0
1985,2,-8,-1,0,0,0,0,0
1986,2,-8,1,0,0,0,0,0
1987,4,-7,-1,0,0,0,0,0
1988,3,-7,0,0,0,0,0,0
1989,2,-8,0,0,0,0,0,0
1990,5,-6,-1,0,0,0,0,0
1991,2,-9,-1,0,0,0,0,0
1992,3,-7,-1,0,0,0,0,0
1993,1,-8,1,0,0,0,0,0
1994,3,-8,-1,0,0,0,0,0
1995,3,-6,0,0,0,0,0,0
1996,2,-8,-1,0,0,0,0,0
1997,4,-7,0,0,0,0,0,0
1998,3,-8,-2,0,0,0,0,0
1999,5,-7,-1,0,0,0,0,0
2000,2,-7,0,0,0,0,0,0
2001,3,-8,0,0,0,0,0,0
2002,0,-8,1,0,0,0,0,0
2003,-6,-10,2,0,0,0,0,0
2004,18,-17,30,0,0,0,0,0
2005,7,-5,6,0,0,0,0,0
2006,7,-6,0,0,0,0,0,0
2007,-32,35,-65,0,0,0,0,0
2008,-53,-5,231,0,0,0,0,0
2009,-27,-14,-2,0,0,0,0,0
2010,3,-7,-256,0,0,0,0,0
2011,-7,-8,0,0,0,0,0,0
2012,-6,-7,-1,0,0,0,0,0
2013,7,-6,-1,0,0,0,0,0
2014,6,-7,0,0,0,0,0,0
2015,3,-7,0,0,0,0,0,0
2016,1,-8,-2,0,0,0,0,0
2017,4,-7,-1,0,0,0,0,0
2018,0,-8,0,0,0,0,0,0
2019,2,-8,0,0,0,0,0,0
2020,3,-7,0,0,0,0,0,0
2021,2,-7,0,0,0,0,0,0
2022,3,-6,0,0,0,0,0,0
2023,3,-8,0,0,0,0,0,0
2024,2,-8,-1,0,0,0,0,0
2025,3,-8,0,0,0,0,0,0
2026,3,-6,1,0,0,0,0,0
2027,4,-7,-1,0,0,0,0,0
2028,1,-7,-1,0,0,0,0,0
2029,2,-6,0,0,0,0,0,0
2030,2,-8,-1,0,0,0,0,0
2031,3,-8,0,0,0,0,0,0
2032,1,-8,-1,0,0,0,0,0
2033,2,-7,1,0,0,0,0,0
2034,3,-8,0,0,0,0,0,0
2035,4,-9,-1,0,0,0,0,0
2036,2,-7,0,0,0,0,0,0
2037,3,-8,-1,0,0,0,0,0
2038,4,-7,0,0,0,0,0,0
2039,3,-9,-1,0,0,0,0,0
2040,4,-6,0,0,0,0,0,0
2041,4,-8,-2,0,0,0,0,0
2042,3,-6,0,0,0,0,0,0
2043,6,-7,0,0,0,0,0,0
2044,4,-6,-1,0,0,0,0,0
2045,2,-8,-2,0,0,0,0,0
2046,2,-7,0,0,0,0,0,0
2047,1,-6,0,0,0,0,0,0
2048,2,-7,-1,0,0,0,0,0
2049,7,-9,2,0,0,0,0,0
2050,6,-7,-4,0,0,0,0,0
2051,-1,-9,-2,0,0,0,0,0
2052,7,-5,2,0,0,0,0,0
2053,-2,-7,0,0,0,0,0,0
2054,4,-8,-3,0,0,0,0,0
2055,-1,-5,0,0,0,0,0,0
2056,2,-3,-2,0,0,0,0,0
2057,3,-8,1,0,0,0,0,0
2058,3,-5,0,0,0,0,0,0
2059,2,-10,-1,0,0,0,0,0
2060,0,-6,-1,0,0,0,0,0
2061,-1,-11,0,0,0,0,0,0
2062,4,-7,-1,0,0,0,0,0
2063,5,-11,-1,0,0,0,0,0
2064,1,-10,0,0,0,0,0,0
2065,2,-9,0,0,0,0,0,0
2066,4,-11,-1,0,0,0,0,0
2067,3,-7,-1,0,0,0,0,0
2068,2,-8,1,0,0,0,0,0
2069,1,-8,-1,0,0,0,0,0
2070,6,-7,-1,0,0,0,0,0
2071,2,-8,-1,0,0,0,0,0
2072,3,-6,-1,0,0,0,0,0
2073,11,-6,0,0,0,0,0,0
2074,-3,-7,0,0,0,0,0,0
2075,3,-9,-1,0,0,0,0,0
2076,0,-8,1,0,0,0,0,0
2077,2,-6,1,0,0,0,0,0
2078,2,-8,0,0,0,0,0,0
2079,2,-7,-256,0,0,0,0,0
2080,4,-7,-1,0,0,0,0,0
2081,2,-8,0,0,0,0,0,0
2082,4,-7,1,0,0,0,0,0
2083,1,-8,-1,0,0,0,0,0
2084,5,-7,-1,0,0,0,0,0
2085,2,-7,-1,0,0,0,0,0
2086,3,-8,-1,0,0,0,0,0
2087,3,-7,0,0,0,0,0,0
2088,2,-9,-1,0,0,0,0,0
2089,4,-6,0,0,0,0,0,0
2090,3,-8,0,0,0,0,0,0
2091,2,-8,-1,0,0,0,0,0
2092,5,-7,1,0,0,0,0,0
2093,3,-9,-1,0,0,0,0,0
2094,5,-7,0,0,0,0,0,0
2095,4,-4,-1,0,0,0,0,0
2096,3,-9,1,0,0,0,0,0
2097,3,-8,0,0,0,0,0,0
2098,4,-7,-1,0,0,0,0,0
2099,1,-7,0,0,0,0,0,0
2100,2,-6,-1,0,0,0,0,0
2101,3,-8,-1,0,0,0,0,0
2102,1,-8,0,0,0,0,0,0
2103,3,-7,-1,0,0,0,0,0
2104,4,-7,1,0,0,0,0,0
2105,1,-8,0,0,0,0,0,0
2106,4,-5,0,0,0,0,0,0
2107,3,-8,0,0,0,0,0,0
2108,1,-8,0,0,0,0,0,0
2109,3,-7,-1,0,0,0,0,0
2110,2,-7,0,0,0,0,0,0
2111,1,-6,1,0,0,0,0,0
2112,3,-7,-1,0,0,0,0,0
2113,3,-7,0,0,0,0,0,0
2114,1,-7,0,0,0,0,0,0
2115,-3,-8,0,0,0,0,0,0
2116,2,-7,-1,0,0,0,0,0
2117,3,-7,-1,0,0,0,0,0
2118,2,-8,0,0,0,0,0,0
2119,2,-8,-2,0,0,0,0,0
2120,3,-8,0,0,0,0,0,0
2121,3,-7,0,0,0,0,0,0
2122,2,-8,-1,0,0,0,0,0
2123,3,-8,0,0,0,0,0,0
2124,4,-7,0,0,0,0,0,0
2125,3,-7,0,0,0,0,0,0
2126,1,-8,1,0,0,0,0,0
2127,4,-7,-1,0,0,0,0,0
2128,3,-7,-1,0,0,0,0,0
2129,4,-10,-1,0,0,0,0,0
2130,1,-7,1,0,0,0,0,0
2131,0,-8,0,0,0,0,0,0
2132,2,-7,0,0,0,0,0,0
2133,2,-7,0,0,0,0,0,0
2134,2,-6,-1,0,0,0,0,0
2135,2,-6,0,0,0,0,0,0
2136,3,-6,-1,0,0,0,0,0
2137,0,-8,0,0,0,0,0,0
2138,4,-6,-1,0,0,0,0,0
2139,3,-7,0,0,0,0,0,0
2140,3,-7,1,0,0,0,0,0
2141,2,-8,-1,0,0,0,0,0
2142,3,-8,-1,0,0,0,0,0
2143,3,-8,-2,0,0,0,0,0
2144,2,-7,-1,0,0,0,0,0
2145,3,-10,-1,0,0,0,0,0
2146,3,-6,-1,0,0,0,0,0
2147,2,-7,0,0,0,0,0,0
2148,1,-10,-1,0,0,0,0,0
2149,2,-7,-1,0,0,0,0,0
2150,2,-7,-1,0,0,0,0,0
2151,3,-7,-1,0,0,0,0,0
2152,3,-7,0,0,0,0,0,0
2153,4,-6,-1,0,0,0,0,0
2154,4,-8,-1,0,0,0,0,0
2155,3,-9,0,0,0,0,0,0
2156,1,-8,-1,0,0,0,0,0
2157,3,-8,0,0,0,0,0,0
2158,3,-8,0,0,0,0,0,0
2159,4,-8,0,0,0,0,0,0
2160,4,-7,-1,0,0,0,0,0
2161,0,-9,0,0,0,0,0,0
2162,2,-8,0,0,0,0,0,0
2163,3,-8,-1,0,0,0,0,0
2164,5,-8,0,0,0,0,0,0
2165,3,-6,-1,0,0,0,0,0
2166,4,-8,0,0,0,0,0,0
2167,3,-8,-1,0,0,0,0,0
2168,2,-8,-1,0,0,0,0,0
2169,3,-7,0,0,0,0,0,0
2170,3,-8,0,0,0,0,0,0
2171,1,-7,-1,0,0,0,0,0
2172,4,-7,0,0,0,0,0,0
2173,3,-8,0,0,0,0,0,0
2174,2,-8,-1,0,0,0,0,0
2175,3,-7,-1,0,0,0,0,0
2176,2,-7,1,0,0,0,0,0
2177,3,-8,-2,0,0,0,0,0
2178,2,-7,0,0,0,0,0,0
2179,2,-7,1,0,0,0,0,0
2180,3,-6,-1,0,0,0,0,0
2181,2,-8,0,0,0,0,0,0
2182,3,-8,-1,0,0,0,0,0
2183,1,-7,-1,0,0,0,0,0
2184,2,-7,0,0,0,0,0,0
2185,3,-8,-1,0,0,0,0,0
2186,3,-8,-1,0,0,0,0,0
2187,2,-8,0,0,0,0,0,0
2188,2,-8,-1,0,0,0,0,0
2189,4,-7,0,0,0,0,0,0
2190,3,-8,-1,0,0,0,0,0
2191,3,-7,-1,0,0,0,0,0
2192,2,-6,-2,0,0,0,0,0
2193,3,-7,-1,0,0,0,0,0
2194,2,-7,-1,0,0,0,0,0
2195,3,-7,0,0,0,0,0,0
2196,2,-7,0,0,0,0,0,0
2197,3,-7,0,0,0,0,0,0
2198,2,-8,-1,0,0,0,0,0
2199,2,-8,-1,0,0,0,0,0
2200,3,-8,0,0,0,0,0,0
2201,3,-7,0,0,0,0,0,0
2202,1,-8,-1,0,0,0,0,0
2203,3,-8,0,0,0,0,0,0
2204,1,-8,-2,0,0,0,0,0
2205,2,-8,0,0,0,0,0,0
2206,3,-8,0,0,0,0,0,0
2207,1,-8,1,0,0,0,0,0
2208,2,-8,0,0,0,0,0,0
2209,4,-6,-1,0,0,0,0,0
2210,2,-9,0,0,0,0,0,0
2211,2,-6,0,0,0,0,0,0
2212,4,-8,-1,0,0,0,0,0
2213,3,-8,0,0,0,0,0,0
2214,2,-9,-1,0,0,0,0,0
2215,2,-7,-2,0,0,0,0,0
2216,2,-7,1,0,0,0,0,0
2217,2,-7,0,0,0,0,0,0
2218,2,-8,0,0,0,0,0,0
2219,4,-7,0,0,0,0,0,0
2220,3,-7,0,0,0,0,0,0
2221,4,-7,1,0,0,0,0,0
2222,4,-7,-1,0,0,0,0,0
2223,2,-8,-1,0,0,0,0,0
2224,2,-8,2,0,0,0,0,0
2225,2,-8,-1,0,0,0,0,0
2226,3,-8,0,0,0,0,0,0
2227,3,-6,0,0,0,0,0,0
2228,3,-8,0,0,0,0,0,0
2229,2,-6,1,0,0,0,0,0
2230,2,-8,0,0,0,0,0,0
2231,3,-7,0,0,0,0,0,0
2232,2,-7,-1,0,0,0,0,0
2233,3,-7,0,0,0,0,0,0
2234,3,-8,0,0,0,0,0,0
2235,4,-8,0,0,0,0,0,0
2236,2,-8,-1,0,0,0,0,0
2237,2,-7,-1,0,0,0,0,0
2238,3,-6,0,0,0,0,0,0
2239,5,-7,-1,0,0,0,0,0
2240,3,-7,-1,0,0,0,0,0
2241,2,-7,-1,0,0,0,0,0
2242,3,-8,-1,0,0,0,0,0
2243,2,-8,-1,0,0,0,0,0
2244,2,-8,-1,0,0,0,0,0
2245,3,-6,0,0,0,0,0,0
2246,2,-9,-1,0,0,0,0,0
2247,3,-7,-1,0,0,0,0,0
2248,4,-7,-1,0,0,0,0,0
2249,4,-7,-1,0,0,0,0,0
2250,1,-8,-1,0,0,0,0,0
2251,2,-7,-1,0,0,0,0,0
2252,4,-8,0,0,0,0,0,0
2253,1,-8,-1,0,0,0,0,0
2254,4,-7,0,0,0,0,0,0
2255,1,-7,-2,0,0,0,0,0
2256,3,-7,-1,0,0,0,0,0
2257,2,-8,0,0,0,0,0,0
2258,2,-7,-1,0,0,0,0,0
2259,3,-7,0,0,0,0,0,0
2260,3,-7,0,0,0,0,0,0
2261,3,-7,-1,0,0,0,0,0
2262,2,-7,-1,0,0,0,0,0
2263,3,-7,0,0,0,0,0,0
2264,3,-8,0,0,0,0,0,0
2265,1,-9,0,0,0,0,0,0
2266,2,-7,-1,0,0,0,0,0
2267,1,-7,-1,0,0,0,0,0
2268,3,-7,-1,0,0,0,0,0
2269,3,-6,-1,0,0,0,0,0
2270,2,-7,0,0,0,0,0,0
2271,3,-8,-1,0,0,0,0,0
2272,2,-7,0,0,0,0,0,0
2273,3,-7,0,0,0,0,0,0
2274,2,-7,0,0,0,0,0,0
2275,1,-8,-1,0,0,0,0,0
2276,2,-7,0,0,0,0,0,0
2277,2,-7,0,0,0,0,0,0
2278,3,-6,0,0,0,0,0,0
2279,3,-6,0,0,0,0,0,0
2280,3,-9,0,0,0,0,0,0
2281,1,-8,-1,0,0,0,0,0
2282,3,-6,-2,0,0,0,0,0
2283,3,-7,0,0,0,0,0,0
2284,4,-8,0,0,0,0,0,0
2285,2,-9,-1,0,0,0,0,0
2286,3,-7,0,0,0,0,0,0
2287,4,-10,-1,0,0,0,0,0
2288,0,-7,-1,0,0,0,0,0
2289,3,-7,-1,0,0,0,0,0
2290,4,-6,0,0,0,0,0,0
2291,3,-7,-1,0,0,0,0,0
2292,4,-6,-1,0,0,0,0,0
2293,2,-8,0,0,0,0,0,0
2294,3,-7,0,0,0,0,0,0
2295,2,-7,0,0,0,0,0,0
2296,2,-8,-1,0,0,0,0,0
2297,1,-6,-1,0,0,0,0,0
2298,2,-8,-2,0,0,0,0,0
2299,5,-7,-1,0,0,0,0,0
2300,3,-7,-1,0,0,0,0,0
2301,2,-7,0,0,0,0,0,0
2302,5,-6,-1,0,0,0,0,0
2303,3,-7,-1,0,0,0,0,0
2304,2,-8,0,0,0,0,0,0
2305,2,-8,-1,0,0,0,0,0
2306,2,-7,-1,0,0,0,0,0
2307,2,-7,-1,0,0,0,0,0
2308,2,-7,0,0,0,0,0,0
2309,3,-7,1,0,0,0,0,0
2310,2,-7,-1,0,0,0,0,0
2311,3,-8,0,0,0,0,0,0
2312,4,-8,-1,0,0,0,0,0
2313,3,-5,-1,0,0,0,0,0
2314,2,-9,-1,0,0,0,0,0
2315,2,-7,0,0,0,0,0,0
2316,3,-7,-3,0,0,0,0,0
2317,4,-8,-1,0,0,0,0,0
2318,2,-7,0,0,0,0,0,0
2319,3,-9,0,0,0,0,0,0
2320,3,-8,0,0,0,0,0,0
2321,1,-8,-1,0,0,0,0,0
2322,3,-7,0,0,0,0,0,0
2323,3,-8,-1,0,0,0,0,0
2324,2,-7,0,0,0,0,0,0
2325,3,-7,0,0,0,0,0,0
2326,2,-8,-1,0,0,0,0,0
2327,3,-7,-1,0,0,0,0,0
2328,3,-8,0,0,0,0,0,0
2329,4,-9,0,0,0,0,0,0
2330,4,-8,-1,0,0,0,0,0
2331,3,-7,0,0,0,0,0,0
2332,3,-7,-1,0,0,0,0,0
2333,4,-7,1,0,0,0,0,0
2334,2,-7,0,0,0,0,0,0
2335,3,-7,-1,0,0,0,0,0
2336,3,-7,-1,0,0,0,0,0
2337,3,-7,-1,0,0,0,0,0
2338,4,-6,0,0,0,0,0,0
2339,3,-7,-1,0,0,0,0,0
2340,2,-6,0,0,0,0,0,0
2341,3,-8,-1,0,0,0,0,0
2342,2,-7,-1,0,0,0,0,0
2343,1,-8,-1,0,0,0,0,0
2344,2,-8,0,0,0,0,0,0
2345,2,-7,0,0,0,0,0,0
2346,2,-7,0,0,0,0,0,0
2347,4,-8,0,0,0,0,0,0
2348,4,-8,0,0,0,0,0,0
2349,4,-7,-1,0,0,0,0,0
2350,4,-8,0,0,0,0,0,0
2351,1,-5,-1,0,0,0,0,0
2352,2,-8,0,0,0,0,0,0
2353,2,-6,-1,0,0,0,0,0
2354,2,-8,1,0,0,0,0,0
2355,1,-7,0,0,0,0,0,0
2356,3,-7,-1,0,0,0,0,0
2357,2,-7,-1,0,0,0,0,0
2358,2,-8,-1,0,0,0,0,0
2359,3,-6,-1,0,0,0,0,0
2360,2,-8,-256,0,0,0,0,0
2361,3,-7,-2,0,0,0,0,0
2362,4,-6,-1,0,0,0,0,0
2363,4,-7,0,0,0,0,0,0
2364,3,-6,0,0,0,0,0,0
2365,2,-7,-1,0,0,0,0,0
2366,3,-8,0,0,0,0,0,0
2367,1,-7,0,0,0,0,0,0
2368,2,-8,-2,0,0,0,0,0
2369,3,-7,0,0,0,0,0,0
2370,3,-7,-1,0,0,0,0,0
2371,4,-7,-1,0,0,0,0,0
2372,2,-7,-1,0,0,0,0,0
2373,3,-9,-1,0,0,0,0,0
2374,2,-6,0,0,0,0,0,0
2375,3,-6,0,0,0,0,0,0
2376,2,-8,0,0,0,0,0,0
2377,2,-6,-1,0,0,0,0,0
2378,2,-7,-1,0,0,0,0,0
2379,2,-7,-1,0,0,0,0,0
2380,3,-6,1,0,0,0,0,0
2381,4,-9,0,0,0,0,0,0
2382,3,-7,0,0,0,0,0,0
2383,3,-7,-1,0,0,0,0,0
2384,3,-6,-1,0,0,0,0,0
2385,3,-10,0,0,0,0,0,0
2386,3,-7,255,0,0,0,0,0
2387,5,-8,-1,0,0,0,0,0
2388,3,-6,-1,0,0,0,0,0
2389,2,-8,-1,0,0,0,0,0
2390,0,-8,-1,0,0,0,0,0
2391,5,-8,-1,0,0,0,0,0
2392,2,-5,0,0,0,0,0,0
2393,4,-8,0,0,0,0,0,0
2394,5,-6,1,0,0,0,0,0
2395,2,-7,-1,0,0,0,0,0
2396,1,-7,0,0,0,0,0,0
2397,2,-7,-1,0,0,0,0,0
2398,1,-8,0,0,0,0,0,0
2399,-1,-7,0,0,0,0,0,0
2400,1,-7,-1,0,0,0,0,0
2401,4,-6,0,0,0,0,0,0
2402,3,-7,-2,0,0,0,0,0
2403,2,-8,-1,0,0,0,0,0
2404,3,-6,-1,0,0,0,0,0
2405,2,-5,-1,0,0,0,0,0
2406,5,-7,-2,0,0,0,0,0
2407,2,-8,0,0,0,0,0,0
2408,4,-6,0,0,0,0,0,0
2409,2,-6,0,0,0,0,0,0
2410,2,-8,0,0,0,0,0,0
2411,2,-7,-1,0,0,0,0,0
2412,3,-8,0,0,0,0,0,0
2413,2,-8,-1,0,0,0,0,0
2414,3,-6,-1,0,0,0,0,0
2415,-1,-7,0,0,0,0,0,0
2416,4,-6,0,0,0,0,0,0
2417,1,-8,0,0,0,0,0,0
2418,2,-6,0,0,0,0,0,0
2419,2,-8,0,0,0,0,0,0
2420,1,-6,0,0,0,0,0,0
2421,4,-9,-1,0,0,0,0,0
2422,2,-8,0,0,0,0,0,0
2423,3,-7,1,0,0,0,0,0
2424,3,-7,0,0,0,0,0,0
2425,1,-6,-1,0,0,0,0,0
2426,4,-6,0,0,0,0,0,0
2427,1,-8,-1,0,0,0,0,0
2428,5,-8,0,0,0,0,0,0
2429,3,-7,0,0,0,0,0,0
2430,4,-7,0,0,0,0,0,0
2431,3,-6,0,0,0,0,0,0
2432,3,-7,-1,0,0,0,0,0
2433,4,-7,0,0,0,0,0,0
2434,3,-7,0,0,0,0,0,0
2435,1,-9,-1,0,0,0,0,0
2436,3,-7,-1,0,0,0,0,0
2437,2,-7,-1,0,0,0,0,0
2438,2,-6,-2,0,0,0,0,0
2439,3,-7,0,0,0,0,0,0
2440,4,-6,1,0,0,0,0,0
2441,2,-7,0,0,0,0,0,0
2442,3,-9,0,0,0,0,0,0
2443,5,-7,-1,0,0,0,0,0
2444,3,-8,0,0,0,0,0,0
2445,3,-8,-1,0,0,0,0,0
2446,2,-8,0,0,0,0,0,0
2447,4,-8,1,0,0,0,0,0
2448,1,-7,0,0,0,0,0,0
2449,3,-6,1,0,0,0,0,0
2450,4,-6,0,0,0,0,0,0
2451,3,-7,0,0,0,0,0,0
2452,2,-8,0,0,0,0,0,0
2453,2,-7,-1,0,0,0,0,0
2454,2,-8,-1,0,0,0,0,0
2455,2,-8,-1,0,0,0,0,0
2456,1,-8,-256,0,0,0,0,0
2457,1,-8,0,0,0,0,0,0
2458,3,-5,0,0,0,0,0,0
2459,4,-8,0,0,0,0,0,0
2460,3,-6,-1,0,0,0,0,0
2461,2,-8,-1,0,0,0,0,0
2462,3,-8,-1,0,0,0,0,0
2463,2,-6,0,0,0,0,0,0
2464,5,-7,0,0,0,0,0,0
2465,2,-5,-2,0,0,0,0,0
2466,3,-8,-1,0,0,0,0,0
2467,2,-8,0,0,0,0,0,0
2468,3,-7,-1,0,0,0,0,0
2469,3,-9,0,0,0,0,0,0
2470,1,-8,-1,0,0,0,0,0
2471,5,-9,0,0,0,0,0,0
2472,3,-8,0,0,0,0,0,0
2473,4,-6,-1,0,0,0,0,0
2474,5,-6,0,0,0,0,0,0
2475,3,-8,1,0,0,0,0,0
2476,3,-8,-1,0,0,0,0,0
2477,5,-8,-1,0,0,0,0,0
2478,3,-7,0,0,0,0,0,0
2479,4,-7,0,0,0,0,0,0
2480,2,-8,0,0,0,0,0,0
2481,2,-5,-1,0,0,0,0,0
2482,3,-8,-1,0,0,0,0,0
2483,3,-8,-1,0,0,0,0,0
2484,3,-8,-1,0,0,0,0,0
2485,3,-6,0,0,0,0,0,0
2486,1,-8,0,0,0,0,0,0
2487,5,-6,-2,0,0,0,0,0
2488,2,-8,-1,0,0,0,0,0
2489,2,-7,-1,0,0,0,0,0
2490,2,-7,1,0,0,0,0,0
2491,2,-8,1,0,0,0,0,0
2492,4,-8,0,0,0,0,0,0
2493,3,-7,-1,0,0,0,0,0
2494,3,-7,0,0,0,0,0,0
2495,3,-6,-2,0,0,0,0,0
2496,2,-7,1,0,0,0,0,0
2497,4,-8,-1,0,0,0,0,0
2498,5,-7,-1,0,0,0,0,0
2499,1,-8,0,0,0,0,0,0
2500,4,-7,0,0,0,0,0,0
2501,0,-8,0,0,0,0,0,0
2502,2,-7,1,0,0,0,0,0
2503,3,-7,1,0,0,0,0,0
2504,2,-7,-1,0,0,0,0,0
2505,0,-7,0,0,0,0,0,0
2506,2,-7,-1,0,0,0,0,0
2507,3,-7,1,0,0,0,0,0
2508,4,-7,-2,0,0,0,0,0
2509,2,-7,0,0,0,0,0,0
2510,4,-7,-1,0,0,0,0,0
2511,3,-8,-1,0,0,0,0,0
2512,3,-8,0,0,0,0,0,0
2513,3,-8,0,0,0,0,0,0
2514,2,-7,0,0,0,0,0,0
2515,2,-7,0,0,0,0,0,0
2516,2,-8,0,0,0,0,0,0
2517,3,-6,-1,0,0,0,0,0
2518,3,-6,-1,0,0,0,0,0
2519,3,-8,0,0,0,0,0,0
2520,4,-7,0,0,0,0,0,0
2521,2,-7,0,0,0,0,0,0
2522,2,-7,-256,0,0,0,0,0
2523,4,-6,1,0,0,0,0,0
2524,3,-8,0,0,0,0,0,0
2525,4,-9,-1,0,0,0,0,0
2526,3,-7,0,0,0,0,0,0
2527,1,-7,-1,0,0,0,0,0
2528,3,-8,-1,0,0,0,0,0
2529,3,-7,-1,0,0,0,0,0
2530,4,-6,-1,0,0,0,0,0
2531,2,-7,-1,0,0,0,0,0
2532,3,-8,-1,0,0,0,0,0
2533,3,-7,0,0,0,0,0,0
2534,2,-8,-1,0,0,0,0,0
2535,3,-8,1,0,0,0,0,0
2536,2,-8,0,0,0,0,0,0
2537,3,-7,-1,0,0,0,0,0
2538,2,-7,-1,0,0,0,0,0
2539,3,-8,-1,0,0,0,0,0
2540,4,-7,255,0,0,0,0,0
2541,2,-8,0,0,0,0,0,0
2542,4,-8,-2,0,0,0,0,0
2543,1,-8,0,0,0,0,0,0
2544,3,-8,-1,0,0,0,0,0
2545,4,-8,-1,0,0,0,0,0
2546,-5,-7,-3,0,0,0,0,0
2547,-2,-10,-1,0,0,0,0,0
2548,-1,-7,2,0,0,0,0,0
2549,4,-10,0,0,0,0,0,0
2550,2,-6,-3,0,0,0,0,0
2551,2,-6,-1,0,0,0,0,0
2552,4,-9,0,0,0,0,0,0
2553,3,-6,1,0,0,0,0,0
2554,3,-8,-1,0,0,0,0,0
2555,2,-7,-2,0,0,0,0,0
2556,3,-6,-2,0,0,0,0,0
2557,1,-8,0,0,0,0,0,0
2558,5,-7,1,0,0,0,0,0
2559,3,-9,-2,0,0,0,0,0
2560,2,-7,1,0,0,0,0,0
2561,3,-6,0,0,0,0,0,0
2562,3,-6,-2,0,0,0,0,0
2563,1,-7,0,0,0,0,0,0
2564,2,-8,-1,0,0,0,0,0
2565,3,-6,-1,0,0,0,0,0
2566,4,-6,-2,0,0,0,0,0
2567,3,-8,0,0,0,0,0,0
2568,4,-7,1,0,0,0,0,0
2569,2,-8,0,0,0,0,0,0
2570,3,-8,1,0,0,0,0,0
2571,3,-8,-1,0,0,0,0,0
2572,2,-8,-1,0,0,0,0,0
2573,4,-6,-1,0,0,0,0,0
2574,3,-7,0,0,0,0,0,0
2575,1,-7,0,0,0,0,0,0
2576,3,-6,0,0,0,0,0,0
2577,2,-7,-2,0,0,0,0,0
2578,3,-7,1,0,0,0,0,0
2579,2,-7,0,0,0,0,0,0
2580,2,-9,-1,0,0,0,0,0
2581,1,-6,-2,0,0,0,0,0
2582,2,-8,0,0,0,0,0,0
2583,2,-7,-1,0,0,0,0,0
2584,2,-8,0,0,0,0,0,0
2585,3,-9,0,0,0,0,0,0
2586,3,-6,0,0,0,0,0,0
2587,2,-8,0,0,0,0,0,0
2588,5,-8,-1,0,0,0,0,0
2589,2,-7,-1,0,0,0,0,0
2590,2,-8,0,0,0,0,0,0
2591,2,-7,-1,0,0,0,0,0
2592,2,-8,0,0,0,0,0,0
2593,3,-7,-1,0,0,0,0,0
2594,3,-7,1,0,0,0,0,0
2595,3,-7,-1,0,0,0,0,0
2596,3,-9,-1,0,0,0,0,0
2597,4,-7,-1,0,0,0,0,0
2598,3,-8,0,0,0,0,0,0
2599,3,-7,0,0,0,0,0,0
2600,3,-7,-1,0,0,0,0,0
2601,1,-8,0,0,0,0,0,0
2602,3,-7,0,0,0,0,0,0
2603,1,-7,0,0,0,0,0,0
2604,3,-8,-1,0,0,0,0,0
2605,2,-7,-2,0,0,0,0,0
2606,3,-8,0,0,0,0,0,0
2607,3,-6,0,0,0,0,0,0
2608,0,-7,0,0,0,0,0,0
2609,3,-6,-1,0,0,0,0,0
2610,2,-8,-1,0,0,0,0,0
2611,3,-7,-1,0,0,0,0,0
2612,2,-8,1,0,0,0,0,0
2613,3,-7,0,0,0,0,0,0
2614,3,-7,0,0,0,0,0,0
2615,3,-7,-1,0,0,0,0,0
2616,4,-6,1,0,0,0,0,0
2617,2,-8,1,0,0,0,0,0
2618,2,-6,0,0,0,0,0,0
2619,3,-7,0,0,0,0,0,0
2620,2,-7,-1,0,0,0,0,0
2621,3,-9,-1,0,0,0,0,0
2622,3,-7,-1,0,0,0,0,0
2623,3,-8,0,0,0,0,0,0
2624,3,-7,0,0,0,0,0,0
2625,3,-9,0,0,0,0,0,0
2626,3,-9,-1,0,0,0,0,0
2627,1,-7,0,0,0,0,0,0
2628,3,-8,0,0,0,0,0,0
2629,3,-7,0,0,0,0,0,0
2630,3,-7,0,0,0,0,0,0
2631,3,-9,0,0,0,0,0,0
2632,2,-7,0,0,0,0,0,0
2633,2,-6,0,0,0,0,0,0
2634,4,-6,-1,0,0,0,0,0
2635,2,-6,-1,0,0,0,0,0
2636,2,-8,-1,0,0,0,0,0
2637,2,-7,-1,0,0,0,0,0
2638,3,-7,-255,0,0,0,0,0
2639,1,-8,0,0,0,0,0,0
2640,2,-8,0,0,0,0,0,0
2641,3,-6,0,0,0,0,0,0
2642,3,-8,0,0,0,0,0,0
2643,2,-7,0,0,0,0,0,0
2644,2,-9,-2,0,0,0,0,0
2645,2,-8,-1,0,0,0,0,0
2646,2,-7,1,0,0,0,0,0
2647,3,-8,1,0,0,0,0,0
2648,1,-7,-1,0,0,0,0,0
2649,3,-7,-1,0,0,0,0,0
2650,4,-7,0,0,0,0,0,0
2651,2,-8,0,0,0,0,0,0
2652,4,-8,-1,0,0,0,0,0
2653,4,-6,-2,0,0,0,0,0
2654,4,-8,0,0,0,0,0,0
2655,3,-6,-1,0,0,0,0,0
2656,2,-6,-1,0,0,0,0,0
2657,2,-8,-1,0,0,0,0,0
2658,1,-6,0,0,0,0,0,0
2659,3,-7,0,0,0,0,0,0
2660,2,-8,0,0,0,0,0,0
2661,3,-8,-1,0,0,0,0,0
2662,2,-8,2,0,0,0,0,0
2663,3,-7,0,0,0,0,0,0
2664,4,-7,1,0,0,0,0,0
2665,4,-8,0,0,0,0,0,0
2666,4,-8,-1,0,0,0,0,0
2667,4,-6,-1,0,0,0,0,0
2668,3,-8,-1,0,0,0,0,0
2669,2,-7,-1,0,0,0,0,0
2670,2,-6,0,0,0,0,0,0
2671,4,-6,-2,0,0,0,0,0
2672,1,-8,-1,0,0,0,0,0
2673,4,-7,0,0,0,0,0,0
2674,3,-7,-2,0,0,0,0,0
2675,3,-7,0,0,0,0,0,0
2676,1,-7,0,0,0,0,0,0
2677,3,-8,-2,0,0,0,0,0
2678,1,-8,-1,0,0,0,0,0
2679,3,-9,0,0,0,0,0,0
2680,3,-8,-1,0,0,0,0,0
2681,2,-9,-1,0,0,0,0,0
2682,3,-8,-1,0,0,0,0,0
2683,3,-8,-1,0,0,0,0,0
2684,2,-7,-1,0,0,0,0,0
2685,3,-8,-1,0,0,0,0,0
2686,3,-7,-1,0,0,0,0,0
2687,2,-6,0,0,0,0,0,0
2688,2,-7,-256,0,0,0,0,0
2689,2,-8,1,0,0,0,0,0
2690,2,-8,-1,0,0,0,0,0
2691,3,-7,-1,0,0,0,0,0
2692,1,-7,-1,0,0,0,0,0
2693,3,-7,0,0,0,0,0,0
2694,2,-6,-1,0,0,0,0,0
2695,2,-8,-2,0,0,0,0,0
2696,3,-7,-256,0,0,0,0,0
2697,3,-8,255,0,0,0,0,0
2698,3,-9,0,0,0,0,0,0
2699,3,-5,-1,0,0,0,0,0
2700,0,-5,-1,0,0,0,0,0
2701,2,-7,-1,0,0,0,0,0
2702,4,-7,0,0,0,0,0,0
2703,2,-7,-1,0,0,0,0,0
2704,2,-7,-1,0,0,0,0,0
2705,2,-6,-1,0,0,0,0,0
2706,3,-7,0,0,0,0,0,0
2707,2,-7,-1,0,0,0,0,0
2708,3,-7,1,0,0,0,0,0
2709,2,-8,-1,0,0,0,0,0
2710,2,-8,0,0,0,0,0,0
2711,3,-8,-1,0,0,0,0,0
2712,2,-7,1,0,0,0,0,0
2713,3,-8,-1,0,0,0,0,0
2714,3,-7,-1,0,0,0,0,0
2715,2,-7,0,0,0,0,0,0
2716,3,-6,-1,0,0,0,0,0
2717,2,-7,1,0,0,0,0,0
2718,4,-6,-1,0,0,0,0,0
2719,2,-7,0,0,0,0,0,0
2720,3,-7,1,0,0,0,0,0
2721,3,-7,0,0,0,0,0,0
2722,4,-6,0,0,0,0,0,0
2723,2,-7,0,0,0,0,0,0
2724,3,-6,-1,0,0,0,0,0
2725,1,-7,-1,0,0,0,0,0
2726,2,-7,0,0,0,0,0,0
2727,3,-7,0,0,0,0,0,0
2728,2,-6,-1,0,0,0,0,0
2729,3,-8,0,0,0,0,0,0
2730,3,-6,0,0,0,0,0,0
2731,3,-6,-1,0,0,0,0,0
2732,2,-8,-1,0,0,0,0,0
2733,3,-9,0,0,0,0,0,0
2734,4,-8,0,0,0,0,0,0
2735,3,-9,0,0,0,0,0,0
2736,2,-6,-1,0,0,0,0,0
2737,4,-8,0,0,0,0,0,0
2738,2,-8,0,0,0,0,0,0
2739,3,-7,0,0,0,0,0,0
2740,2,-8,-1,0,0,0,0,0
2741,3,-7,0,0,0,0,0,0
2742,2,-6,1,0,0,0,0,0
2743,2,-7,0,0,0,0,0,0
2744,2,-7,-1,0,0,0,0,0
2745,4,-7,-1,0,0,0,0,0
2746,3,-7,1,0,0,0,0,0
2747,4,-6,-1,0,0,0,0,0
2748,3,-7,0,0,0,0,0,0
2749,2,-7,0,0,0,0,0,0
2750,4,-7,1,0,0,0,0,0
2751,2,-7,-1,0,0,0,0,0
2752,2,-7,-1,0,0,0,0,0
2753,3,-8,0,0,0,0,0,0
2754,2,-8,-1,0,0,0,0,0
2755,4,-7,1,0,0,0,0,0
2756,1,-8,-1,0,0,0,0,0
2757,1,-8,-256,0,0,0,0,0
2758,1,-8,-1,0,0,0,0,0
2759,2,-8,-1,0,0,0,0,0
2760,2,-8,0,0,0,0,0,0
2761,0,-7,0,0,0,0,0,0
2762,3,-7,0,0,0,0,0,0
2763,3,-7,0,0,0,0,0,0
2764,3,-7,0,0,0,0,0,0
2765,2,-7,0,0,0,0,0,0
2766,2,-7,0,0,0,0,0,0
2767,2,-7,0,0,0,0,0,0
2768,3,-7,-1,0,0,0,0,0
2769,4,-8,0,0,0,0,0,0
2770,3,-7,0,0,0,0,0,0
2771,2,-8,-1,0,0,0,0,0
2772,5,-7,-2,0,0,0,0,0
2773,3,-7,1,0,0,0,0,0
2774,4,-7,0,0,0,0,0,0
2775,2,-8,1,0,0,0,0,0
2776,3,-6,0,0,0,0,0,0
2777,4,-7,-1,0,0,0,0,0
2778,2,-7,-2,0,0,0,0,0
2779,2,-7,0,0,0,0,0,0
2780,2,-7,-1,0,0,0,0,0
2781,4,-8,-1,0,0,0,0,0
2782,1,-7,1,0,0,0,0,0
2783,5,-7,-1,0,0,0,0,0
2784,-7,-11,1,0,0,0,0,0
2785,4,-7,0,0,0,0,0,0
2786,1,-6,0,0,0,0,0,0
2787,0,-7,0,0,0,0,0,0
2788,4,-5,0,0,0,0,0,0
2789,-1,-8,0,0,0,0,0,0
2790,3,-6,0,0,0,0,0,0
2791,2,-7,0,0,0,0,0,0
2792,1,-8,0,0,0,0,0,0
2793,3,-6,-1,0,0,0,0,0
2794,3,-9,-1,0,0,0,0,0
2795,1,-7,-1,0,0,0,0,0
2796,2,-7,0,0,0,0,0,0
2797,3,-6,0,0,0,0,0,0
2798,2,-7,-1,0,0,0,0,0
2799,2,-7,-1,0,0,0,0,0
2800,2,-8,0,0,0,0,0,0
2801,3,-7,0,0,0,0,0,0
2802,2,-8,-1,0,0,0,0,0
2803,2,-6,0,0,0,0,0,0
2804,4,-7,0,0,0,0,0,0
2805,1,-7,-2,0,0,0,0,0
2806,4,-8,0,0,0,0,0,0
2807,3,-6,0,0,0,0,0,0
2808,1,-7,-1,0,0,0,0,0
2809,3,-8,-1,0,0,0,0,0
2810,1,-7,-1,0,0,0,0,0
2811,3,-8,0,0,0,0,0,0
2812,2,-8,0,0,0,0,0,0
2813,2,-7,-1,0,0,0,0,0
2814,3,-6,0,0,0,0,0,0
2815,3,-9,-1,0,0,0,0,0
2816,3,-8,-1,0,0,0,0,0
2817,3,-7,0,0,0,0,0,0
2818,3,-7,0,0,0,0,0,0
2819,4,-7,-1,0,0,0,0,0
2820,2,-6,-1,0,0,0,0,0
2821,1,-7,0,0,0,0,0,0
2822,2,-9,0,0,0,0,0,0
2823,1,-8,-1,0,0,0,0,0
2824,3,-7,-1,0,0,0,0,0
2825,2,-8,-1,0,0,0,0,0
2826,3,-6,-1,0,0,0,0,0
2827,2,-8,-1,0,0,0,0,0
2828,3,-8,-1,0,0,0,0,0
2829,2,-6,0,0,0,0,0,0
2830,1,-8,0,0,0,0,0,0
2831,2,-7,-1,0,0,0,0,0
2832,3,-6,0,0,0,0,0,0
2833,2,-7,-2,0,0,0,0,0
2834,3,-7,-1,0,0,0,0,0
2835,2,-8,0,0,0,0,0,0
2836,3,-6,0,0,0,0,0,0
2837,1,-8,0,0,0,0,0,0
2838,2,-7,0,0,0,0,0,0
2839,1,-7,0,0,0,0,0,0
2840,3,-8,0,0,0,0,0,0
2841,2,-8,-1,0,0,0,0,0
2842,3,-7,0,0,0,0,0,0
2843,3,-7,0,0,0,0,0,0
2844,3,-8,0,0,0,0,0,0
2845,3,-7,0,0,0,0,0,0
2846,4,-7,1,0,0,0,0,0
2847,2,-7,-1,0,0,0,0,0
2848,2,-9,-1,0,0,0,0,0
2849,2,-9,-1,0,0,0,0,0
2850,3,-7,-1,0,0,0,0,0
2851,3,-7,-1,0,0,0,0,0
2852,3,-5,0,0,0,0,0,0
2853,3,-7,0,0,0,0,0,0
2854,4,-9,-1,0,0,0,0,0
2855,2,-8,0,0,0,0,0,0
2856,2,-7,-1,0,0,0,0,0
2857,3,-7,0,0,0,0,0,0
2858,2,-7,0,0,0,0,0,0
2859,3,-7,-1,0,0,0,0,0
2860,1,-7,0,0,0,0,0,0
2861,1,-7,0,0,0,0,0,0
2862,1,-8,0,0,0,0,0,0
2863,3,-8,0,0,0,0,0,0
2864,4,-8,0,0,0,0,0,0
2865,2,-7,0,0,0,0,0,0
2866,2,-6,-1,0,0,0,0,0
2867,3,-8,-1,0,0,0,0,0
2868,2,-7,0,0,0,0,0,0
2869,4,-8,-1,0,0,0,0,0
2870,2,-8,-1,0,0,0,0,0
2871,4,-6,0,0,0,0,0,0
2872,2,-8,0,0,0,0,0,0
2873,2,-7,0,0,0,0,0,0
2874,0,-6,0,0,0,0,0,0
2875,3,-7,-1,0,0,0,0,0
2876,2,-8,0,0,0,0,0,0
2877,4,-8,0,0,0,0,0,0
2878,3,-7,0,0,0,0,0,0
2879,3,-7,-1,0,0,0,0,0
2880,2,-7,0,0,0,0,0,0
2881,0,-7,-1,0,0,0,0,0
2882,4,-7,-1,0,0,0,0,0
2883,3,-7,1,0,0,0,0,0
2884,2,-7,-1,0,0,0,0,0
2885,2,-7,0,0,0,0,0,0
2886,2,-7,-1,0,0,0,0,0
2887,3,-7,-1,0,0,0,0,0
2888,3,-7,1,0,0,0,0,0
2889,4,-7,0,0,0,0,0,0
2890,2,-8,0,0,0,0,0,0
2891,1,-8,1,0,0,0,0,0
2892,3,-7,-1,0,0,0,0,0
2893,1,-6,0,0,0,0,0,0
2894,3,-7,0,0,0,0,0,0
2895,4,-7,0,0,0,0,0,0
2896,2,-8,-1,0,0,0,0,0
2897,3,-7,0,0,0,0,0,0
2898,3,-7,0,0,0,0,0,0
2899,2,-8,0,0,0,0,0,0
2900,4,-7,-1,0,0,0,0,0
2901,3,-5,-1,0,0,0,0,0
2902,3,-8,0,0,0,0,0,0
2903,3,-8,0,0,0,0,0,0
2904,4,-8,0,0,0,0,0,0
2905,3,-7,0,0,0,0,0,0
2906,4,-8,-1,0,0,0,0,0
2907,3,-7,-1,0,0,0,0,0
2908,2,-8,-1,0,0,0,0,0
2909,1,-9,0,0,0,0,0,0
2910,4,-6,0,0,0,0,0,0
2911,4,-6,0,0,0,0,0,0
2912,4,-9,0,0,0,0,0,0
2913,2,-8,0,0,0,0,0,0
2914,2,-8,-1,0,0,0,0,0
2915,2,-7,0,0,0,0,0,0
2916,2,-7,0,0,0,0,0,0
2917,3,-7,-256,0,0,0,0,0
2918,2,-7,0,0,0,0,0,0
2919,4,-6,0,0,0,0,0,0
2920,3,-8,-1,0,0,0,0,0
2921,4,-6,0,0,0,0,0,0
2922,4,-7,0,0,0,0,0,0
2923,3,-8,-1,0,0,0,0,0
2924,2,-7,-1,0,0,0,0,0
2925,2,-7,0,0,0,0,0,0
2926,2,-7,0,0,0,0,0,0
2927,4,-8,0,0,0,0,0,0
2928,2,-5,0,0,0,0,0,0
2929,3,-6,0,0,0,0,0,0
2930,2,-6,-1,0,0,0,0,0
2931,1,-8,-1,0,0,0,0,0
2932,3,-8,0,0,0,0,0,0
2933,2,-8,0,0,0,0,0,0
2934,4,-8,0,0,0,0,0,0
2935,2,-7,-1,0,0,0,0,0
2936,4,-9,0,0,0,0,0,0
2937,2,-7,-1,0,0,0,0,0
2938,2,-8,-1,0,0,0,0,0
2939,2,-6,-1,0,0,0,0,0
2940,4,-7,0,0,0,0,0,0
2941,3,-7,0,0,0,0,0,0
2942,3,-7,0,0,0,0,0,0
2943,3,-7,-1,0,0,0,0,0
2944,2,-7,0,0,0,0,0,0
2945,1,-7,-1,0,0,0,0,0
2946,3,-7,-1,0,0,0,0,0
2947,3,-7,1,0,0,0,0,0
2948,3,-8,-1,0,0,0,0,0
2949,2,-7,0,0,0,0,0,0
2950,1,-8,0,0,0,0,0,0
2951,3,-8,-1,0,0,0,0,0
2952,3,-7,0,0,0,0,0,0
2953,2,-7,-1,0,0,0,0,0
2954,3,-7,0,0,0,0,0,0
2955,2,-7,-1,0,0,0,0,0
2956,4,-8,0,0,0,0,0,0
2957,5,-9,-1,0,0,0,0,0
2958,5,-7,1,0,0,0,0,0
2959,2,-8,-1,0,0,0,0,0
2960,3,-8,-1,0,0,0,0,0
2961,5,-7,-1,0,0,0,0,0
2962,4,-7,-1,0,0,0,0,0
2963,2,-6,-1,0,0,0,0,0
2964,1,-7,0,0,0,0,0,0
2965,2,-7,0,0,0,0,0,0
2966,4,-8,-1,0,0,0,0,0
2967,2,-8,0,0,0,0,0,0
2968,2,-7,0,0,0,0,0,0
2969,2,-7,-1,0,0,0,0,0
2970,2,-8,0,0,0,0,0,0
2971,2,-7,-1,0,0,0,0,0
2972,2,-7,0,0,0,0,0,0
2973,5,-8,-1,0,0,0,0,0
2974,4,-7,-1,0,0,0,0,0
2975,2,-7,-1,0,0,0,0,0
2976,3,-9,-2,0,0,0,0,0
2977,3,-7,0,0,0,0,0,0
2978,2,-8,-1,0,0,0,0,0
2979,3,-8,-1,0,0,0,0,0
2980,3,-8,-1,0,0,0,0,0
2981,4,-6,-1,0,0,0,0,0
2982,1,-7,0,0,0,0,0,0
2983,3,-7,-1,0,0,0,0,0
2984,3,-8,1,0,0,0,0,0
2985,2,-7,0,0,0,0,0,0
2986,3,-7,0,0,0,0,0,0
2987,3,-8,0,0,0,0,0,0
2988,2,-7,0,0,0,0,0,0
2989,1,-6,0,0,0,0,0,0
2990,3,-9,0,0,0,0,0,0
2991,2,-6,-1,0,0,0,0,0
2992,4,-8,-1,0,0,0,0,0
2993,4,-8,0,0,0,0,0,0
2994,3,-7,-1,0,0,0,0,0
2995,3,-8,0,0,0,0,0,0
2996,2,-8,0,0,0,0,0,0
2997,4,-7,0,0,0,0,0,0
2998,3,-7,-1,0,0,0,0,0
2999,2,-7,-2,0,0,0,0,0
3000,4,-7,1,0,0,0,0,0
3001,3,-8,0,0,0,0,0,0
3002,3,-6,0,0,0,0,0,0
3003,2,-8,-1,0,0,0,0,0
3004,2,-7,-1,0,0,0,0,0
3005,2,-7,0,0,0,0,0,0
3006,3,-6,0,0,0,0,0,0
3007,1,-7,0,0,0,0,0,0
3008,4,-8,0,0,0,0,0,0
3009,3,-8,-2,0,0,0,0,0
3010,2,-6,-1,0,0,0,0,0
3011,3,-6,0,0,0,0,0,0
3012,4,-8,0,0,0,0,0,0
3013,2,-7,0,0,0,0,0,0
3014,3,-6,0,0,0,0,0,0
3015,3,-7,0,0,0,0,0,0
3016,4,-8,1,0,0,0,0,0
3017,3,-7,0,0,0,0,0,0
3018,2,-8,0,0,0,0,0,0
3019,4,-8,0,0,0,0,0,0
3020,2,-7,0,0,0,0,0,0
3021,3,-7,-1,0,0,0,0,0
3022,-21,-5,29,0,0,0,0,0
3023,9,-18,14,0,0,0,0,0
3024,42,11,-25,0,0,0,0,0
3025,-9,-6,-31,0,0,0,0,0
3026,-14,-33,32,0,0,0,0,0
3027,35,-12,10,0,0,0,0,0
3028,-23,-26,-3,0,0,0,0,0
3029,41,-29,6,0,0,0,0,0
3030,15,-9,-3,0,0,0,0,0
3031,-15,-12,31,0,0,0,0,0
3032,-48,-5,40,0,0,0,0,0
3033,-2,10,-2,0,0,0,0,0
3034,128,13,7,0,0,0,0,0
3035,21,32,-41,0,0,0,0,0
3036,39,8,-49,792,0,0,0,0
3037,84,53,4,0,0,0,0,0
3038,-46,-3,2,790,0,0,0,0
3039,-17,-2,5,0,0,0,0,0
3040,65,23,58,1372,0,0,0,0
3041,67,10,-59,0,0,0,0,0
3042,-49,-33,33,1401,0,0,0,0
3043,-35,56,84,0,0,0,0,0
3044,-239,-17,49,1281,0,0,0,0
3045,-23,25,-56,0,0,0,0,0
3046,-35,6,-44,1502,0,0,0,0
3047,-12,47,-55,0,0,0,0,0
3048,-151,-6,26,1531,0,0,0,0
3049,-107,-4,-42,0,0,0,0,0
3050,241,-1,12,1561,0,0,0,0
3051,-135,-65,-4,0,0,0,0,0
3052,-96,33,21,1591,0,0,0,0
3053,-33,1,24,0,0,0,0,0
3054,-108,-23,-10,1639,0,0,0,0
3055,-11,13,-24,0,0,0,0,0
3056,-246,-33,12,1668,0,0,0,0
3057,66,19,5,0,0,0,0,0
3058,-33,-3,-24,1697,0,0,0,0
3059,-45,-24,9,0,0,0,0,0
3060,76,16,-31,1727,0,0,0,0
3061,-20,-45,-33,0,0,0,0,0
3062,-7,-13,13,1281,0,0,0,0
3063,-76,-46,-62,0,0,0,0,0
3064,-6,-15,6,1284,0,0,0,0
3065,0,-58,255,0,0,0,0,0
3066,110,-34,-36,0,0,0,0,0
3067,-13,-10,14,0,0,0,0,0
3068,0,-40,18,1279,0,0,0,0
3069,-44,-8,49,0,0,0,0,0
3070,-18,-43,5,0,0,0,0,0
3071,11,-4,-37,0,0,0,0,0
3072,-63,-71,19,1274,0,0,0,0
3073,57,-33,67,0,0,0,0,0
3074,-149,-56,-60,0,0,0,0,0
3075,-17,-53,2,0,0,0,0,0
3076,-166,-7,-103,1980,0,0,0,0
3077,50,-6,61,0,0,0,0,0
3078,-7,-23,17,0,0,0,0,0
3079,-87,4,-47,1288,0,0,0,0
3080,-1,-54,5,0,0,0,0,0
3081,-184,-38,-30,0,0,0,0,0
3082,140,-6,-3,0,0,0,0,0
3083,39,-18,19,1287,0,0,0,0
3084,-12,29,39,0,0,0,0,0
3085,93,15,-23,0,0,0,0,0
3086,-113,-37,67,0,0,0,0,0
3087,-50,-42,-20,1282,0,0,0,0
3088,-97,-44,16,0,0,0,0,0
3089,-174,21,56,0,0,0,0,0
3090,141,39,17,0,0,0,0,0
3091,-26,-9,-10,1276,0,0,0,0
3092,-169,26,34,0,0,0,0,0
3093,113,24,-47,0,0,0,0,0
3094,70,39,-26,0,0,0,0,0
3095,92,11,-19,1266,0,0,0,0
3096,47,49,-83,0,0,0,0,0
3097,72,12,55,2324,0,0,0,0
3098,183,141,-90,0,0,0,0,0
3099,-27,2,46,2352,0,0,0,0
3100,-4,39,-82,0,0,0,0,0
3101,-87,-19,14,791,0,0,0,0
3102,235,5,-16,0,0,0,0,0
3103,48,63,66,0,0,0,0,0
3104,43,19,-112,0,0,0,0,0
3105,57,33,-4,0,0,0,0,0
3106,-9,-4,21,0,0,0,0,0
3107,80,95,25,0,0,0,0,0
3108,-167,213,18,0,0,0,0,0
3109,-12,28,30,0,0,0,0,0
3110,62,-49,-87,0,0,0,0,0
3111,129,14,24,0,0,0,0,0
3112,-150,11,-6,0,0,0,0,0
3113,-76,37,33,0,0,0,0,0
3114,-35,11,31,0,0,0,0,0
3115,206,23,-2,0,0,0,0,0
3116,53,-48,6,0,0,0,0,0
3117,68,18,89,0,0,0,0,0
3118,-76,-228,41,0,0,0,0,0
3119,-12,23,-154,0,0,0,0,0
3120,90,-14,108,0,0,0,0,0
3121,-25,72,34,0,0,0,0,0
3122,13,40,-17,0,0,0,0,0
3123,-22,15,-49,0,0,0,0,0
3124,21,39,36,0,0,0,0,0
3125,38,50,-34,0,0,0,0,0
3126,79,-14,-103,0,0,0,0,0
3127,67,1,-16,0,0,0,0,0
3128,87,-32,-67,0,0,0,0,0
3129,-63,-18,0,0,0,0,0,0
3130,87,35,7,0,0,0,0,0
3131,-100,21,-18,1296,0,0,0,0
3132,25,2,-82,0,0,0,0,0
3133,-54,46,37,0,0,0,0,0
3134,27,10,-50,0,0,0,0,0
3135,185,-91,16,1306,0,0,0,0
3136,144,0,57,0,0,0,0,0
3137,171,30,-37,0,0,0,0,0
3138,9,-38,49,0,0,0,0,0
3139,-150,-17,-126,1299,0,0,0,0
3140,-121,-13,-8,2921,0,0,0,0
3141,-112,-3,-79,0,0,0,0,0
3142,-93,77,1,2945,0,0,0,0
3143,-24,43,15,0,0,0,0,0
3144,167,104,-94,0,0,0,0,0
3145,147,33,-25,0,0,0,0,0
3146,58,89,9,0,0,0,0,0
3147,-14,61,15,0,0,0,0,0
3148,16,70,-50,0,0,0,0,0
3149,144,148,13,0,0,0,0,0
3150,-154,44,6,0,0,0,0,0
3151,-179,-26,11,0,0,0,0,0
3152,0,101,-13,0,0,0,0,0
3153,282,-44,-35,0,0,0,0,0
3154,-48,79,-26,0,0,0,0,0
3155,156,37,-54,0,0,0,0,0
3156,-79,-43,7,0,0,0,0,0
3157,108,-11,-48,791,0,0,0,0
3158,-10,-47,64,0,0,0,0,0
3159,46,-8,68,0,0,0,0,0
3160,-163,-73,-43,628,0,0,0,0
3161,-31,-52,-57,0,0,0,0,0
3162,-104,-35,31,0,0,0,0,0
3163,-141,90,45,0,0,0,0,0
3164,239,269,-130,0,0,0,0,0
3165,169,38,-9,1054,0,0,0,0
3166,7,-6,-2,0,0,0,0,0
3167,2,-7,-1,0,0,0,0,0
3168,0,-8,-1,1048,0,0,0,0
3169,3,-8,0,0,0,0,0,0
3170,4,-7,0,0,0,0,0,0
3171,3,-7,1,0,0,0,0,0
3172,4,-8,-1,0,0,0,0,0
3173,3,-8,0,0,0,0,0,0
3174,3,-7,0,2887,0,0,0,0
3175,3,-7,-1,0,0,0,0,0
3176,3,-6,-1,2887,0,0,0,0
3177,3,-9,-1,0,0,0,0,0
3178,3,-8,-1,2887,0,0,0,0
3179,2,-8,1,0,0,0,0,0
3180,3,-7,0,1054,0,0,0,0
3181,4,-7,1,0,0,0,0,0
3182,3,-8,-1,0,0,0,0,0
3183,3,-7,0,0,0,0,0,0
3184,3,-8,-1,0,0,0,0,0
3185,2,-8,-1,0,0,0,0,0
3186,2,-6,0,0,0,0,0,0
3187,3,-5,0,0,0,0,0,0
3188,3,-7,0,0,0,0,0,0
3189,2,-8,-1,0,0,0,0,0
3190,1,-7,-1,0,0,0,0,0
3191,2,-7,0,0,0,0,0,0
3192,3,-7,0,2887,0,0,0,0
3193,-9,-6,0,0,0,0,0,0
3194,-10,-13,2,2887,0,0,0,0
3195,3,-7,0,0,0,0,0,0
3196,3,-5,-1,0,0,0,0,0
3197,1,-8,-1,0,0,0,0,0
3198,3,-8,0,0,0,0,0,0
3199,0,-9,1,0,0,0,0,0
3200,3,-7,-1,2887,0,0,0,0
3201,3,-8,-1,0,0,0,0,0
3202,4,-7,0,0,0,0,0,0
3203,2,-9,1,0,0,0,0,0
3204,2,-9,0,0,0,0,0,0
3205,2,-7,1,0,0,0,0,0
3206,3,-7,-1,0,0,0,0,0
3207,2,-8,0,1,0,0,0,0
3208,2,-6,0,0,0,0,0,0
3209,4,-8,-1,0,0,0,0,0
3210,3,-7,-1,2887,0,0,0,0
3211,4,-7,0,1054,0,0,0,0
3212,3,-7,-2,0,0,0,0,0
3213,2,-8,-1,1,0,0,0,0
3214,1,-7,-1,0,0,0,0,0
3215,4,-4,0,0,0,0,0,0
3216,3,-9,-1,0,0,0,0,0
3217,1,-7,1,1054,0,0,0,0
3218,0,-8,-1,0,0,0,0,0
3219,2,-8,-2,1048,0,0,0,0
3220,3,-8,-1,0,0,0,0,0
3221,3,-6,0,0,0,0,0,0
3222,3,-7,0,0,0,0,0,0
3223,4,-8,0,0,0,0,0,0
3224,3,-6,0,0,0,0,0,0
3225,1,-6,-1,0,0,0,0,0
3226,0,-7,-1,0,0,0,0,0
3227,3,-8,1,0,0,0,0,0
3228,1,-8,0,0,0,0,0,0
3229,1,-8,-1,0,0,0,0,0
3230,4,-8,0,0,0,0,0,0
3231,3,-9,0,0,0,0,0,0
3232,6,-8,-2,2887,0,0,0,0
3233,2,-8,1,1054,0,0,0,0
3234,3,-7,0,1048,0,0,0,0
3235,5,-7,0,0,0,0,0,0
3236,3,-7,0,2887,0,0,0,0
3237,2,-7,-1,0,0,0,0,0
3238,1,-7,-1,0,0,0,0,0
3239,3,-6,-1,0,0,0,0,0
3240,3,-7,-1,0,0,0,0,0
3241,2,-8,1,0,0,0,0,0
3242,3,-7,0,0,0,0,0,0
3243,1,-7,0,0,0,0,0,0
3244,3,-8,0,0,0,0,0,0
3245,4,-7,0,0,0,0,0,0
3246,3,-8,-1,0,0,0,0,0
3247,6,-7,1,0,0,0,0,0
3248,2,-7,-1,0,0,0,0,0
3249,3,-7,1,2887,0,0,0,0
3250,3,-7,-1,0,0,0,0,0
3251,2,-9,-1,0,0,0,0,0
3252,2,-8,1,0,0,0,0,0
3253,4,-8,0,0,0,0,0,0
3254,2,-8,-1,2887,0,0,0,0
3255,4,-7,0,0,0,0,0,0
3256,3,-7,0,2887,0,0,0,0
3257,1,-8,0,0,0,0,0,0
3258,2,-8,-1,0,0,0,0,0
3259,3,-7,0,1054,0,0,0,0
3260,3,-6,-1,0,0,0,0,0
3261,1,-7,0,0,0,0,0,0
3262,4,-7,-1,0,0,0,0,0
3263,3,-7,0,0,0,0,0,0
3264,4,-7,0,0,0,0,0,0
3265,4,-7,0,0,0,0,0,0
3266,4,-7,-1,0,0,0,0,0
3267,4,-7,0,0,0,0,0,0
3268,2,-9,0,1048,0,0,0,0
3269,3,-6,0,0,0,0,0,0
3270,1,-6,-1,0,0,0,0,0
3271,3,-8,-1,0,0,0,0,0
3272,2,-8,-1,0,0,0,0,0
3273,3,-7,0,0,0,0,0,0
3274,3,-7,-1,1048,0,0,0,0
3275,3,-7,-1,0,0,0,0,0
3276,3,-7,0,0,0,0,0,0
3277,2,-7,0,0,0,0,0,0
3278,1,-6,-2,0,0,0,0,0
3279,1,-8,-2,0,0,0,0,0
3280,0,-8,0,0,0,0,0,0
3281,6,-7,-2,0,0,0,0,0
3282,4,-8,0,0,0,0,0,0
3283,2,-7,-1,0,0,0,0,0
3284,3,-7,0,0,0,0,0,0
3285,2,-7,1,0,0,0,0,0
3286,2,-8,-1,0,0,0,0,0
3287,0,-6,1,0,0,0,0,0
3288,2,-8,-1,0,0,0,0,0
3289,7,-7,4,0,0,0,0,0
3290,10,-5,-2,1048,0,0,0,0
3291,3,-7,-1,0,0,0,0,0
3292,1,-8,0,0,0,0,0,0
3293,4,-5,0,2887,0,0,0,0
3294,3,-7,0,0,0,0,0,0
3295,3,-7,1,1054,0,0,0,0
3296,2,-7,0,0,0,0,0,0
3297,3,-7,1,1054,0,0,0,0
3298,2,-7,0,0,0,0,0,0
3299,1,-8,1,1054,0,0,0,0
3300,2,-8,3,1054,0,0,0,0
3301,5,-14,5,0,0,0,0,0
3302,9,-6,8,0,0,0,0,0
3303,-5,-7,-1,0,0,0,0,0
3304,6,-7,-3,0,0,0,0,0
3305,4,-6,0,0,0,0,0,0
3306,2,-7,0,1048,0,0,0,0
3307,2,-8,-1,0,0,0,0,0
3308,2,-6,1,0,0,0,0,0
3309,5,-6,0,0,0,0,0,0
3310,1,-7,0,0,0,0,0,0
3311,3,-5,-1,0,0,0,0,0
3312,1,-7,-2,0,0,0,0,0
3313,3,-7,0,0,0,0,0,0
3314,3,-6,-1,0,0,0,0,0
3315,3,-8,-1,0,0,0,0,0
3316,3,-9,-1,1048,0,0,0,0
3317,6,-9,0,0,0,0,0,0
3318,3,-8,0,0,0,0,0,0
3319,3,-8,-1,0,0,0,0,0
3320,2,-8,0,0,0,0,0,0
3321,3,-7,-1,0,0,0,0,0
3322,4,-6,0,0,0,0,0,0
3323,3,-8,-1,0,0,0,0,0
3324,2,-8,0,0,0,0,0,0
3325,3,-6,-1,0,0,0,0,0
3326,3,-8,1,0,0,0,0,0
3327,1,-7,-1,0,0,0,0,0
3328,3,-7,-1,0,0,0,0,0
3329,2,-7,0,0,0,0,0,0
3330,1,-8,0,0,0,0,0,0
3331,3,-8,0,0,0,0,0,0
3332,4,-7,0,0,0,0,0,0
3333,2,-7,-1,0,0,0,0,0
3334,3,-7,-1,0,0,0,0,0
3335,6,-7,0,2887,0,0,0,0
3336,1,-9,0,0,0,0,0,0
3337,9,-7,0,2887,0,0,0,0
3338,1,-8,-1,0,0,0,0,0
3339,2,-7,-1,0,0,0,0,0
3340,3,-6,-2,0,0,0,0,0
3341,2,-8,0,0,0,0,0,0
3342,3,-8,-1,0,0,0,0,0
3343,0,-8,0,0,0,0,0,0
3344,4,-9,0,0,0,0,0,0
3345,1,-8,-1,0,0,0,0,0
3346,5,-6,0,0,0,0,0,0
3347,3,-7,0,0,0,0,0,0
3348,2,-8,0,0,0,0,0,0
3349,3,-8,-1,0,0,0,0,0
3350,1,-8,-1,0,0,0,0,0
3351,2,-7,-1,0,0,0,0,0
3352,2,-9,1,0,0,0,0,0
3353,3,-8,0,0,0,0,0,0
3354,2,-7,-1,0,0,0,0,0
3355,2,-7,-1,0,0,0,0,0
3356,4,-9,-1,0,0,0,0,0
3357,3,-4,0,0,0,0,0,0
3358,3,-7,0,0,0,0,0,0
3359,2,-7,-2,0,0,0,0,0
3360,3,-7,0,0,0,0,0,0
3361,3,-6,0,0,0,0,0,0
3362,3,-7,-1,0,0,0,0,0
3363,2,-6,-1,2887,0,0,0,0
3364,3,-8,-1,0,0,0,0,0
3365,2,-8,0,2887,0,0,0,0
3366,3,-7,0,0,0,0,0,0
3367,3,-7,0,2887,0,0,0,0
3368,3,-6,0,0,0,0,0,0
3369,2,-8,0,2887,0,0,0,0
3370,3,-7,-1,0,0,0,0,0
3371,3,-7,-2,1054,0,0,0,0
3372,2,-8,-1,0,0,0,0,0
3373,3,-8,1,2887,0,0,0,0
3374,2,-7,0,0,0,0,0,0
3375,3,-9,0,0,0,0,0,0
3376,5,-6,0,0,0,0,0,0
3377,2,-7,-1,2887,0,0,0,0
3378,4,-8,0,1054,0,0,0,0
3379,4,-8,0,0,0,0,0,0
3380,3,-8,0,0,0,0,0,0
3381,4,-7,-1,1048,0,0,0,0
3382,3,-6,-1,0,0,0,0,0
3383,1,-8,0,1048,0,0,0,0
3384,4,-8,0,0,0,0,0,0
3385,4,-8,0,0,0,0,0,0
3386,4,-6,0,0,0,0,0,0
3387,3,-8,0,0,0,0,0,0
3388,3,-6,0,0,0,0,0,0
3389,3,-7,1,0,0,0,0,0
3390,3,-7,-1,0,0,0,0,0
3391,3,-7,-1,0,0,0,0,0
3392,3,-10,-1,0,0,0,0,0
3393,1,-6,-2,0,0,0,0,0
3394,2,-6,-1,0,0,0,0,0
3395,3,-7,-1,0,0,0,0,0
3396,4,-6,-1,0,0,0,0,0
3397,3,-6,-1,0,0,0,0,0
3398,2,-7,0,0,0,0,0,0
3399,1,-8,-1,0,0,0,0,0
3400,3,-8,-1,0,0,0,0,0
3401,2,-8,1,0,0,0,0,0
3402,1,-8,1,0,0,0,0,0
3403,5,-7,0,2887,0,0,0,0
3404,2,-8,-1,2887,0,0,0,0
3405,6,-5,0,0,0,0,0,0
3406,2,-9,1,0,0,0,0,0
3407,4,-5,1,0,0,0,0,0
3408,4,-6,0,0,0,0,0,0
3409,0,-9,0,0,0,0,0,0
3410,4,-6,0,0,0,0,0,0
3411,4,-7,-1,0,0,0,0,0
3412,3,-6,-1,0,0,0,0,0
3413,4,-7,0,0,0,0,0,0
3414,3,-8,0,0,0,0,0,0
3415,0,-8,-1,0,0,0,0,0
3416,3,-8,0,0,0,0,0,0
3417,2,-6,0,0,0,0,0,0
3418,3,-8,0,0,0,0,0,0
3419,2,-7,1,0,0,0,0,0
3420,5,-7,1,0,0,0,0,0
3421,2,-7,0,2887,0,0,0,0
3422,5,-6,0,0,0,0,0,0
3423,2,-7,0,0,0,0,0,0
3424,3,-9,1,1054,0,0,0,0
3425,1,-7,0,0,0,0,0,0
3426,2,-9,-2,1048,0,0,0,0
3427,8,-6,0,0,0,0,0,0
3428,3,-9,0,0,0,0,0,0
3429,5,-7,-1,0,0,0,0,0
3430,3,-8,-1,2887,0,0,0,0
3431,3,-8,0,0,0,0,0,0
3432,6,-9,1,0,0,0,0,0
3433,5,-9,0,0,0,0,0,0
3434,2,-7,0,0,0,0,0,0
3435,3,-7,0,0,0,0,0,0
3436,2,-7,-2,0,0,0,0,0
3437,4,-7,-1,0,0,0,0,0
3438,2,-8,0,0,0,0,0,0
3439,2,-7,0,2887,0,0,0,0
3440,4,-8,-1,0,0,0,0,0
3441,4,-7,0,1054,0,0,0,0
3442,3,-8,-1,0,0,0,0,0
3443,3,-6,1,0,0,0,0,0
3444,1,-8,0,1048,0,0,0,0
3445,2,-7,-2,0,0,0,0,0
3446,5,-8,0,0,0,0,0,0
3447,2,-7,0,0,0,0,0,0
3448,1,-7,0,0,0,0,0,0
3449,2,-8,0,2887,0,0,0,0
3450,4,-7,-1,0,0,0,0,0
3451,3,-6,1,0,0,0,0,0
3452,0,-8,0,0,0,0,0,0
3453,1,-7,-1,0,0,0,0,0
3454,2,-8,-256,0,0,0,0,0
3455,6,-7,-1,1054,0,0,0,0
3456,3,-7,1,0,0,0,0,0
3457,0,-8,0,0,0,0,0,0
3458,0,-7,-2,0,0,0,0,0
3459,3,-8,0,0,0,0,0,0
3460,3,-7,0,0,0,0,0,0
3461,3,-8,-1,1054,0,0,0,0
3462,2,-7,0,0,0,0,0,0
3463,3,-6,-1,0,0,0,0,0
3464,2,-8,-1,1054,0,0,0,0
3465,4,-8,-1,0,0,0,0,0
3466,2,-8,-1,0,0,0,0,0
3467,4,-8,0,0,0,0,0,0
3468,3,-6,0,0,0,0,0,0
3469,3,-8,0,0,0,0,0,0
3470,2,-6,0,0,0,0,0,0
3471,2,-8,-1,0,0,0,0,0
3472,2,-9,1,0,0,0,0,0
3473,4,-7,0,0,0,0,0,0
3474,4,-7,0,1048,0,0,0,0
3475,2,-8,-1,1048,0,0,0,0
3476,3,-8,-1,0,0,0,0,0
3477,3,-6,0,0,0,0,0,0
3478,3,-9,0,0,0,0,0,0
3479,4,-8,-1,0,0,0,0,0
3480,3,-7,0,0,0,0,0,0
3481,2,-8,1,0,0,0,0,0
3482,3,-8,0,0,0,0,0,0
3483,3,-8,-1,0,0,0,0,0
3484,2,-6,0,0,0,0,0,0
3485,4,-9,0,2887,0,0,0,0
3486,1,-8,-1,0,0,0,0,0
3487,3,-8,0,2887,0,0,0,0
3488,3,-8,-1,0,0,0,0,0
3489,4,-7,0,0,0,0,0,0
3490,1,-7,-1,1048,0,0,0,0
3491,2,-7,-1,0,0,0,0,0
3492,4,-8,1,0,0,0,0,0
3493,4,-8,0,0,0,0,0,0
3494,2,-8,-1,0,0,0,0,0
3495,3,-7,-1,0,0,0,0,0
3496,1,-8,1,0,0,0,0,0
3497,2,-7,-1,0,0,0,0,0
3498,3,-6,-256,0,0,0,0,0
3499,2,-6,-1,0,0,0,0,0
3500,3,-7,0,0,0,0,0,0
3501,4,-7,0,2887,0,0,0,0
3502,4,-6,-1,2887,0,0,0,0
3503,2,-7,0,0,0,0,0,0
3504,3,-6,1,1054,0,0,0,0
3505,2,-7,0,0,0,0,0,0
3506,4,-8,1,1054,0,0,0,0
3507,3,-8,0,0,0,0,0,0
3508,2,-7,-1,0,0,0,0,0
3509,4,-7,0,0,0,0,0,0
3510,3,-6,0,0,0,0,0,0
3511,5,-7,-1,0,0,0,0,0
3512,2,-6,0,0,0,0,0,0
3513,3,-8,0,0,0,0,0,0
3514,3,-8,-1,0,0,0,0,0
3515,3,-7,-1,0,0,0,0,0
3516,4,-7,-1,0,0,0,0,0
3517,3,-8,-1,0,0,0,0,0
3518,3,-8,1,0,0,0,0,0
3519,3,-7,0,0,0,0,0,0
3520,3,-9,0,0,0,0,0,0
3521,1,-6,-1,0,0,0,0,0
3522,4,-7,-1,0,0,0,0,0
3523,2,-6,0,2887,0,0,0,0
3524,2,-8,0,0,0,0,0,0
3525,3,-7,0,2887,0,0,0,0
3526,3,-8,-2,0,0,0,0,0
3527,3,-7,0,2887,0,0,0,0
3528,3,-7,-1,0,0,0,0,0
3529,4,-6,0,0,0,0,0,0
3530,2,-9,0,0,0,0,0,0
3531,3,-6,0,0,0,0,0,0
3532,3,-8,0,0,0,0,0,0
3533,2,-8,0,0,0,0,0,0
3534,3,-7,0,0,0,0,0,0
3535,2,-8,-1,1048,0,0,0,0
3536,4,-6,-1,0,0,0,0,0
3537,2,-8,-1,1048,0,0,0,0
3538,3,-6,0,0,0,0,0,0
3539,2,-6,-1,0,0,0,0,0
3540,3,-6,0,0,0,0,0,0
3541,2,-8,-1,0,0,0,0,0
3542,2,-7,-1,0,0,0,0,0
3543,4,-9,0,0,0,0,0,0
3544,3,-7,0,0,0,0,0,0
3545,2,-7,0,0,0,0,0,0
3546,1,-7,0,0,0,0,0,0
3547,2,-8,0,0,0,0,0,0
3548,3,-7,1,0,0,0,0,0
3549,2,-8,0,0,0,0,0,0
3550,2,-8,0,0,0,0,0,0
3551,4,-6,-1,0,0,0,0,0
3552,2,-6,-1,0,0,0,0,0
3553,2,-7,-1,0,0,0,0,0
3554,1,-8,0,0,0,0,0,0
3555,3,-6,-2,2887,0,0,0,0
3556,1,-9,0,0,0,0,0,0
3557,4,-6,0,1054,0,0,0,0
3558,3,-9,0,0,0,0,0,0
3559,3,-7,0,0,0,0,0,0
3560,4,-6,0,0,0,0,0,0
3561,3,-7,0,0,0,0,0,0
3562,4,-8,0,0,0,0,0,0
3563,2,-8,0,0,0,0,0,0
3564,2,-7,0,0,0,0,0,0
3565,2,-7,0,1048,0,0,0,0
3566,3,-8,-1,0,0,0,0,0
3567,2,-7,1,0,0,0,0,0
3568,3,-7,0,0,0,0,0,0
3569,1,-6,-1,0,0,0,0,0
3570,3,-7,0,1048,0,0,0,0
3571,3,-8,-1,0,0,0,0,0
3572,3,-6,-1,0,0,0,0,0
3573,2,-8,0,0,0,0,0,0
3574,2,-8,0,0,0,0,0,0
3575,2,-7,0,0,0,0,0,0
3576,3,-8,0,0,0,0,0,0
3577,2,-9,0,0,0,0,0,0
3578,2,-7,-1,0,0,0,0,0
3579,3,-7,1,0,0,0,0,0
3580,3,-6,1,0,0,0,0,0
3581,4,-7,0,0,0,0,0,0
3582,3,-8,-2,0,0,0,0,0
3583,3,-7,-1,0,0,0,0,0
3584,2,-8,0,0,0,0,0,0
3585,3,-8,0,2887,0,0,0,0
3586,3,-8,1,0,0,0,0,0
3587,3,-6,1,0,0,0,0,0
3588,3,-7,0,0,0,0,0,0
3589,3,-8,0,2887,0,0,0,0
3590,3,-7,0,0,0,0,0,0
3591,2,-7,0,2887,0,0,0,0
3592,3,-7,-1,0,0,0,0,0
3593,2,-8,-1,0,0,0,0,0
3594,3,-7,-1,0,0,0,0,0
3595,3,-7,1,0,0,0,0,0
3596,2,-8,0,0,0,0,0,0
3597,3,-7,0,0,0,0,0,0
3598,3,-7,0,0,0,0,0,0
3599,2,-8,0,0,0,0,0,0
3600,2,-7,-1,0,0,0,0,0
3601,3,-9,0,0,0,0,0,0
3602,1,-8,0,0,0,0,0,0
3603,4,-7,-1,0,0,0,0,0
3604,3,-8,0,0,0,0,0,0
3605,2,-8,-1,0,0,0,0,0
3606,3,-8,0,0,0,0,0,0
3607,3,-6,0,0,0,0,0,0
3608,3,-6,0,0,0,0,0,0
3609,3,-8,0,0,0,0,0,0
3610,3,-8,0,0,0,0,0,0
3611,2,-7,0,0,0,0,0,0
3612,2,-7,-1,0,0,0,0,0
3613,2,-8,-1,0,0,0,0,0
3614,3,-8,0,0,0,0,0,0
3615,2,-6,0,2887,0,0,0,0
3616,1,-7,0,0,0,0,0,0
3617,3,-8,0,2887,0,0,0,0
3618,3,-7,0,0,0,0,0,0
3619,3,-9,-1,1054,0,0,0,0
3620,3,-7,1,0,0,0,0,0
3621,3,-8,0,1054,0,0,0,0
3622,2,-8,0,0,0,0,0,0
3623,2,-8,-1,1054,0,0,0,0
3624,3,-8,-1,0,0,0,0,0
3625,2,-7,-1,1054,0,0,0,0
3626,3,-7,0,0,0,0,0,0
3627,3,-6,0,0,0,0,0,0
3628,3,-8,-1,0,0,0,0,0
3629,2,-7,0,0,0,0,0,0
3630,3,-8,0,0,0,0,0,0
3631,3,-7,0,0,0,0,0,0
3632,4,-7,1,0,0,0,0,0
3633,1,-8,1,0,0,0,0,0
3634,2,-8,1,0,0,0,0,0
3635,3,-6,-1,0,0,0,0,0
3636,2,-8,0,0,0,0,0,0
3637,3,-8,0,0,0,0,0,0
3638,3,-7,0,0,0,0,0,0
3639,3,-8,0,0,0,0,0,0
3640,4,-8,0,0,0,0,0,0
3641,3,-6,0,1048,0,0,0,0
3642,3,-8,0,0,0,0,0,0
3643,2,-8,-2,1048,0,0,0,0
3644,3,-8,1,0,0,0,0,0
3645,4,-8,-1,0,0,0,0,0
3646,2,-7,1,0,0,0,0,0
3647,3,-6,-1,0,0,0,0,0
3648,1,-8,0,0,0,0,0,0
3649,2,-8,-1,0,0,0,0,0
3650,3,-8,1,0,0,0,0,0
3651,4,-7,0,0,0,0,0,0
3652,2,-8,-1,0,0,0,0,0
3653,3,-8,0,0,0,0,0,0
3654,3,-8,0,0,0,0,0,0
3655,3,-8,-1,0,0,0,0,0
3656,3,-7,1,0,0,0,0,0
3657,1,-7,-2,0,0,0,0,0
3658,3,-8,0,0,0,0,0,0
3659,4,-7,0,0,0,0,0,0
3660,4,-7,0,0,0,0,0,0
3661,3,-7,-1,0,0,0,0,0
3662,1,-7,-1,0,0,0,0,0
3663,3,-7,0,0,0,0,0,0
3664,1,-7,-1,0,0,0,0,0
3665,2,-7,0,0,0,0,0,0
3666,1,-7,0,0,0,0,0,0
3667,1,-8,-1,0,0,0,0,0
3668,3,-7,0,0,0,0,0,0
3669,2,-7,0,0,0,0,0,0
3670,3,-8,0,0,0,0,0,0
3671,2,-7,-1,0,0,0,0,0
3672,3,-7,0,0,0,0,0,0
3673,4,-8,0,0,0,0,0,0
3674,3,-7,0,0,0,0,0,0
3675,2,-8,1,0,0,0,0,0
3676,4,-8,1,0,0,0,0,0
3677,3,-7,-1,0,0,0,0,0
3678,2,-6,1,0,0,0,0,0
3679,3,-7,0,0,0,0,0,0
3680,2,-8,0,0,0,0,0,0
3681,3,-7,0,0,0,0,0,0
3682,4,-8,-1,0,0,0,0,0
3683,4,-7,-1,0,0,0,0,0
3684,1,-8,0,0,0,0,0,0
3685,3,-6,-1,0,0,0,0,0
3686,3,-7,0,0,0,0,0,0
3687,3,-7,-1,0,0,0,0,0
3688,2,-7,-1,0,0,0,0,0
3689,3,-9,0,0,0,0,0,0
3690,1,-8,0,0,0,0,0,0
3691,2,-9,-1,0,0,0,0,0
3692,3,-7,0,0,0,0,0,0
3693,3,-8,0,0,0,0,0,0
3694,4,-8,-1,0,0,0,0,0
3695,2,-8,-1,0,0,0,0,0
3696,3,-8,-1,0,0,0,0,0
3697,3,-8,1,0,0,0,0,0
3698,3,-7,0,0,0,0,0,0
3699,3,-6,1,0,0,0,0,0
3700,3,-7,0,0,0,0,0,0
3701,2,-7,0,0,0,0,0,0
3702,3,-8,0,0,0,0,0,0
3703,3,-7,1,0,0,0,0,0
3704,3,-6,0,2887,0,0,0,0
3705,3,-9,0,0,0,0,0,0
3706,1,-6,-1,2887,0,0,0,0
3707,4,-7,0,0,0,0,0,0
3708,2,-7,-1,2887,0,0,0,0
3709,3,-7,-1,0,0,0,0,0
3710,3,-8,1,0,0,0,0,0
3711,3,-7,0,2887,0,0,0,0
3712,4,-8,-1,0,0,0,0,0
3713,2,-7,-1,0,0,0,0,0
3714,3,-7,-1,0,0,0,0,0
3715,2,-7,0,2887,0,0,0,0
3716,3,-8,1,0,0,0,0,0
3717,3,-7,0,2887,0,0,0,0
3718,2,-7,-1,0,0,0,0,0
3719,2,-9,0,1054,0,0,0,0
3720,4,-6,1,0,0,0,0,0
3721,4,-7,-1,2887,0,0,0,0
3722,2,-8,1,0,0,0,0,0
3723,3,-9,-1,1054,0,0,0,0
3724,3,-8,-1,0,0,0,0,0
3725,2,-8,0,1054,0,0,0,0
3726,2,-7,0,0,0,0,0,0
3727,3,-7,1,0,0,0,0,0
3728,3,-6,0,0,0,0,0,0
3729,1,-8,0,1054,0,0,0,0
3730,4,-8,0,0,0,0,0,0
3731,1,-7,-1,0,0,0,0,0
3732,3,-8,1,0,0,0,0,0
3733,3,-6,0,1054,0,0,0,0
3734,2,-7,0,0,0,0,0,0
3735,4,-7,-1,2887,0,0,0,0
3736,3,-8,0,0,0,0,0,0
3737,2,-7,0,2887,0,0,0,0
3738,3,-7,0,0,0,0,0,0
3739,2,-7,0,2887,0,0,0,0
3740,2,-8,0,0,0,0,0,0
3741,1,-6,-1,2887,0,0,0,0
3742,2,-7,-1,0,0,0,0,0
3743,2,-7,0,2887,0,0,0,0
3744,2,-7,1,0,0,0,0,0
3745,4,-7,0,2887,0,0,0,0
3746,2,-8,-1,0,0,0,0,0
3747,1,-7,0,1054,0,0,0,0
3748,4,-7,-2,0,0,0,0,0
3749,2,-8,0,2887,0,0,0,0
3750,4,-7,0,0,0,0,0,0
3751,2,-7,-1,0,0,0,0,0
3752,2,-7,0,0,0,0,0,0
3753,2,-8,-1,2887,0,0,0,0
3754,2,-9,0,0,0,0,0,0
3755,3,-6,0,0,0,0,0,0
3756,4,-8,-1,0,0,0,0,0
3757,3,-9,0,0,0,0,0,0
3758,3,-8,1,0,0,0,0,0
3759,2,-8,-1,0,0,0,0,0
3760,3,-7,-1,0,0,0,0,0
3761,3,-7,0,0,0,0,0,0
3762,1,-7,0,0,0,0,0,0
3763,3,-9,0,0,0,0,0,0
3764,2,-6,-1,0,0,0,0,0
3765,3,-7,0,2887,0,0,0,0
3766,2,-8,-1,0,0,0,0,0
3767,4,-7,0,2887,0,0,0,0
3768,2,-8,0,0,0,0,0,0
3769,1,-6,-2,0,0,0,0,0
3770,3,-7,0,0,0,0,0,0
3771,2,-7,0,0,0,0,0,0
3772,3,-8,-1,0,0,0,0,0
3773,4,-7,1,2887,0,0,0,0
3774,3,-6,-1,0,0,0,0,0
3775,2,-8,0,1054,0,0,0,0
3776,3,-8,0,0,0,0,0,0
3777,2,-7,-1,0,0,0,0,0
3778,4,-7,-1,0,0,0,0,0
3779,2,-9,-1,0,0,0,0,0
3780,3,-5,-256,0,0,0,0,0
3781,1,-7,-1,0,0,0,0,0
3782,1,-6,-1,1048,0,0,0,0
3783,3,-7,0,0,0,0,0,0
3784,4,-7,0,1048,0,0,0,0
3785,3,-6,0,0,0,0,0,0
3786,2,-7,0,0,0,0,0,0
3787,3,-8,1,0,0,0,0,0
3788,2,-7,0,1048,0,0,0,0
3789,2,-6,0,0,0,0,0,0
3790,2,-7,0,0,0,0,0,0
3791,2,-7,-1,0,0,0,0,0
3792,2,-8,0,0,0,0,0,0
3793,2,-7,0,0,0,0,0,0
3794,3,-7,0,0,0,0,0,0
3795,4,-9,0,0,0,0,0,0
3796,3,-4,-1,0,0,0,0,0
3797,5,-9,-1,2887,0,0,0,0
3798,3,-6,-1,0,0,0,0,0
3799,1,-9,-1,2887,0,0,0,0
3800,-3,-9,-2,0,0,0,0,0
3801,6,-6,-2,1054,0,0,0,0
3802,0,-9,-1,0,0,0,0,0
3803,2,-9,1,0,0,0,0,0
3804,3,-3,3,0,0,0,0,0
3805,0,-7,-2,0,0,0,0,0
3806,7,-7,-2,0,0,0,0,0
3807,0,-6,1,0,0,0,0,0
3808,2,-11,0,0,0,0,0,0
3809,4,-3,-1,0,0,0,0,0
3810,3,-6,0,0,0,0,0,0
3811,2,-5,0,1048,0,0,0,0
3812,3,-6,-1,0,0,0,0,0
3813,2,-8,0,1048,0,0,0,0
3814,2,-6,1,0,0,0,0,0
3815,2,-8,0,0,0,0,0,0
3816,2,-7,0,0,0,0,0,0
3817,5,-7,0,0,0,0,0,0
3818,3,-7,0,0,0,0,0,0
3819,5,-7,-1,0,0,0,0,0
3820,2,-8,-1,0,0,0,0,0
3821,-1,-8,-1,0,0,0,0,0
3822,1,-8,0,0,0,0,0,0
3823,3,-8,0,1054,0,0,0,0
3824,3,-8,0,0,0,0,0,0
3825,1,-6,0,0,0,0,0,0
3826,4,-7,-1,0,0,0,0,0
3827,4,-8,0,0,0,0,0,0
3828,2,-8,0,0,0,0,0,0
3829,0,-8,-1,0,0,0,0,0
3830,5,-7,0,0,0,0,0,0
3831,2,-7,-1,0,0,0,0,0
3832,3,-8,-1,0,0,0,0,0
3833,2,-8,-1,0,0,0,0,0
3834,3,-7,0,2887,0,0,0,0
3835,2,-5,0,0,0,0,0,0
3836,2,-6,0,2887,0,0,0,0
3837,2,-8,0,0,0,0,0,0
3838,3,-8,1,1048,0,0,0,0
3839,3,-7,0,0,0,0,0,0
3840,3,-7,0,0,0,0,0,0
3841,3,-7,0,0,0,0,0,0
3842,3,-8,0,0,0,0,0,0
3843,1,-9,0,0,0,0,0,0
3844,2,-7,-1,0,0,0,0,0
3845,5,-8,-1,0,0,0,0,0
3846,3,-7,-1,0,0,0,0,0
3847,3,-10,2,0,0,0,0,0
3848,8,-7,-1,0,0,0,0,0
3849,7,-6,-1,0,0,0,0,0
3850,2,-7,-1,0,0,0,0,0
3851,1,-7,0,0,0,0,0,0
3852,2,-7,0,0,0,0,0,0
3853,1,-8,0,0,0,0,0,0
3854,0,-8,-1,0,0,0,0,0
3855,1,-8,-1,0,0,0,0,0
3856,3,-7,0,0,0,0,0,0
3857,4,-8,0,0,0,0,0,0
3858,-9,-6,0,0,0,0,0,0
3859,-1,-9,-1,0,0,0,0,0
3860,3,-8,-1,0,0,0,0,0
3861,2,-7,-1,0,0,0,0,0
3862,5,-7,2,0,0,0,0,0
3863,-3,-7,0,0,0,0,0,0
3864,6,-8,-1,0,0,0,0,0
3865,4,-7,0,0,0,0,0,0
3866,220,-1,-5,0,0,0,0,0
3867,-10,-10,0,0,0,0,0,0
3868,11,-4,1,0,0,0,0,0
3869,-11,-6,-3,0,0,0,0,0
3870,30,-2,-4,0,0,0,0,0
3871,23,-1,-6,0,0,0,0,0
3872,10,-12,2,0,0,0,0,0
3873,-8,-10,3,0,0,0,0,0
3874,252,-9,-5,0,0,0,0,0
3875,-3,-11,3,0,0,0,0,0
3876,-4,-9,-1,0,0,0,0,0
3877,2,-4,-3,0,0,0,0,0
3878,-3,-11,1,0,0,0,0,0
3879,5,-6,1,0,0,0,0,0
3880,5,-7,2,0,0,0,0,0
3881,6,-6,0,0,0,0,0,0
3882,8,-7,-1,0,0,0,0,0
3883,6,-5,0,0,0,0,0,0
3884,3,-6,2,0,0,0,0,0
3885,8,-3,-5,0,0,0,0,0
3886,17,-6,1,0,0,0,0,0
3887,12,-1,-2,0,0,0,0,0
3888,9,-6,-1,0,0,0,0,0
3889,-13,-13,-4,0,0,0,0,0
3890,254,-2,-1,0,0,0,0,0
3891,-2,-13,1,0,0,0,0,0
3892,3,-7,-2,0,0,0,0,0
3893,10,-7,1,0,0,0,0,0
3894,8,-3,0,0,0,0,0,0
3895,12,-8,0,0,0,0,0,0
3896,-6,-6,-2,0,0,0,0,0
3897,6,-8,0,0,0,0,0,0
3898,5,-6,0,0,0,0,0,0
3899,2,-6,-1,0,0,0,0,0
3900,3,-8,-2,0,0,0,0,0
3901,0,-9,1,0,0,0,0,0
3902,3,-7,-1,0,0,0,0,0
3903,7,-6,-1,0,0,0,0,0
3904,2,-7,0,0,0,0,0,0
3905,3,-7,0,0,0,0,0,0
3906,2,-7,0,0,0,0,0,0
3907,2,-7,-1,0,0,0,0,0
3908,3,-6,0,0,0,0,0,0
3909,6,-5,-1,0,0,0,0,0
3910,8,-6,-1,0,0,0,0,0
3911,6,-7,-1,0,0,0,0,0
3912,4,-5,-1,0,0,0,0,0
3913,-6,-7,0,0,0,0,0,0
3914,8,-8,-1,0,0,0,0,0
3915,-6,-8,1,0,0,0,0,0
3916,6,-3,-2,0,0,0,0,0
3917,-3,-6,1,0,0,0,0,0
3918,10,-8,1,0,0,0,0,0
3919,4,-11,2,0,0,0,0,0
3920,-6,-6,0,0,0,0,0,0
3921,14,-12,-1,0,0,0,0,0
3922,2,-11,1,0,0,0,0,0
3923,-1,-7,-2,0,0,0,0,0
3924,-3,-19,-2,0,0,0,0,0
3925,-4,-8,1,0,0,0,0,0
3926,4,-10,1,0,0,0,0,0
3927,3,-11,0,0,0,0,0,0
3928,5,-4,0,0,0,0,0,0
3929,-1,-8,1,0,0,0,0,0
3930,8,-8,0,0,0,0,0,0
3931,1,-7,0,0,0,0,0,0
3932,5,-7,-1,0,0,0,0,0
3933,0,-7,0,0,0,0,0,0
3934,3,-5,-2,0,0,0,0,0
3935,2,-8,-2,0,0,0,0,0
3936,5,-6,-1,0,0,0,0,0
3937,1,-8,0,0,0,0,0,0
3938,4,-6,1,0,0,0,0,0
3939,0,-8,0,0,0,0,0,0
3940,-8,-11,-1,0,0,0,0,0
3941,11,-6,1,0,0,0,0,0
3942,2,-6,1,0,0,0,0,0
3943,1,-9,0,0,0,0,0,0
3944,-2,-6,1,0,0,0,0,0
3945,5,-6,1,0,0,0,0,0
3946,3,-7,0,0,0,0,0,0
3947,-3,-5,-1,0,0,0,0,0
3948,-1,-6,0,0,0,0,0,0
3949,5,-6,0,0,0,0,0,0
3950,5,1,0,0,0,0,0,0
3951,-5,-7,0,0,0,0,0,0
3952,6,-8,-1,0,0,0,0,0
3953,-1,-9,0,0,0,0,0,0
3954,1,-14,0,0,0,0,0,0
3955,14,-7,0,0,0,0,0,0
3956,3,-4,-1,0,0,0,0,0
3957,9,-12,-1,0,0,0,0,0
3958,3,-9,0,0,0,0,0,0
3959,4,-7,-1,0,0,0,0,0
3960,-4,-12,255,0,0,0,0,0
3961,3,-5,0,0,0,0,0,0
3962,1,-8,-2,0,0,0,0,0
3963,5,-8,1,0,0,0,0,0
3964,3,-9,0,0,0,0,0,0
3965,2,-9,0,0,0,0,0,0
3966,1,-6,-1,0,0,0,0,0
3967,2,-9,0,0,0,0,0,0
3968,2,-7,-1,0,0,0,0,0
3969,2,-7,1,0,0,0,0,0
3970,3,-7,0,0,0,0,0,0
3971,2,-8,0,0,0,0,0,0
3972,3,-6,-1,0,0,0,0,0
3973,3,-8,0,0,0,0,0,0
3974,0,-7,-1,0,0,0,0,0
3975,2,-6,0,0,0,0,0,0
3976,3,-6,0,0,0,0,0,0
3977,2,-6,0,0,0,0,0,0
3978,2,-7,-1,0,0,0,0,0
3979,2,-5,-2,0,0,0,0,0
3980,2,-8,-1,0,0,0,0,0
3981,2,-8,0,0,0,0,0,0
3982,2,-9,0,0,0,0,0,0
3983,1,-7,0,0,0,0,0,0
3984,3,-6,0,0,0,0,0,0
3985,4,-8,0,0,0,0,0,0
3986,2,-6,0,0,0,0,0,0
3987,2,-9,0,0,0,0,0,0
3988,2,-8,-1,0,0,0,0,0
3989,4,-7,-1,0,0,0,0,0
3990,1,-7,0,0,0,0,0,0
3991,3,-7,0,0,0,0,0,0
3992,3,-7,-1,0,0,0,0,0
3993,4,-8,0,0,0,0,0,0
3994,4,-8,0,0,0,0,0,0
3995,2,-7,0,0,0,0,0,0
3996,2,-9,-1,0,0,0,0,0
3997,3,-8,0,0,0,0,0,0
3998,3,-8,0,0,0,0,0,0
3999,2,-8,-1,0,0,0,0,0
4000,3,-7,1,0,0,0,0,0
4001,2,-8,0,0,0,0,0,0
4002,4,-7,0,0,0,0,0,0
4003,1,-8,0,0,0,0,0,0
4004,3,-7,1,0,0,0,0,0
4005,3,-8,0,0,0,0,0,0
4006,3,-7,-1,0,0,0,0,0
4007,5,-7,0,0,0,0,0,0
4008,3,-8,0,0,0,0,0,0
4009,1,-9,-1,0,0,0,0,0
4010,3,-6,1,0,0,0,0,0
4011,2,-8,-1,0,0,0,0,0
4012,2,-7,0,0,0,0,0,0
4013,4,-8,1,0,0,0,0,0
4014,2,-7,0,0,0,0,0,0
4015,1,-7,0,0,0,0,0,0
4016,3,-6,0,0,0,0,0,0
4017,3,-9,1,0,0,0,0,0
4018,3,-7,0,0,0,0,0,0
4019,3,-7,0,0,0,0,0,0
4020,2,-8,0,0,0,0,0,0
4021,2,-7,-1,0,0,0,0,0
4022,3,-8,-1,0,0,0,0,0
4023,1,-8,-1,0,0,0,0,0
4024,1,-7,1,0,0,0,0,0
4025,2,-7,-1,0,0,0,0,0
4026,2,-8,1,0,0,0,0,0
4027,2,-8,0,0,0,0,0,0
4028,1,-6,0,0,0,0,0,0
4029,3,-9,0,0,0,0,0,0
4030,3,-7,-1,0,0,0,0,0
4031,2,-7,-1,0,0,0,0,0
4032,3,-7,1,0,0,0,0,0
4033,7,-7,-1,0,0,0,0,0
4034,0,-8,-1,0,0,0,0,0
4035,3,-8,-1,0,0,0,0,0
4036,0,-8,1,0,0,0,0,0
4037,-1,-9,2,0,0,0,0,0
4038,2,-6,-1,0,0,0,0,0
4039,3,-8,0,0,0,0,0,0
4040,4,-6,0,0,0,0,0,0
4041,3,-8,0,0,0,0,0,0
4042,0,-5,-2,0,0,0,0,0
4043,4,-7,0,0,0,0,0,0
4044,3,-6,-1,0,0,0,0,0
4045,5,-7,-1,0,0,0,0,0
4046,3,-6,-2,0,0,0,0,0
4047,5,-7,1,0,0,0,0,0
4048,3,-7,1,0,0,0,0,0
4049,2,-7,0,0,0,0,0,0
4050,4,-7,0,0,0,0,0,0
4051,3,-7,0,0,0,0,0,0
4052,3,-6,0,0,0,0,0,0
4053,2,-9,-1,0,0,0,0,0
4054,1,-8,0,0,0,0,0,0
4055,2,-8,0,0,0,0,0,0
4056,2,-6,0,0,0,0,0,0
4057,4,-8,0,0,0,0,0,0
4058,3,-8,0,0,0,0,0,0
4059,3,-8,1,0,0,0,0,0
4060,2,-8,1,0,0,0,0,0
4061,3,-7,1,0,0,0,0,0
4062,3,-7,0,0,0,0,0,0
4063,2,-7,1,0,0,0,0,0
4064,2,-7,-1,0,0,0,0,0
4065,2,-8,-1,0,0,0,0,0
4066,2,-7,0,0,0,0,0,0
4067,5,-9,0,0,0,0,0,0
4068,3,-8,0,0,0,0,0,0
4069,2,-7,0,0,0,0,0,0
4070,3,-8,1,0,0,0,0,0
4071,4,-8,-1,0,0,0,0,0
4072,2,-8,0,0,0,0,0,0
4073,3,-6,-1,0,0,0,0,0
4074,1,-7,0,0,0,0,0,0
4075,2,-7,1,0,0,0,0,0
4076,1,-6,0,0,0,0,0,0
4077,5,-7,0,0,0,0,0,0
4078,2,-7,0,0,0,0,0,0
4079,4,-7,0,0,0,0,0,0
4080,1,-7,1,0,0,0,0,0
4081,4,-7,0,0,0,0,0,0
4082,3,-6,0,0,0,0,0,0
4083,1,-7,-1,0,0,0,0,0
4084,2,-7,-1,0,0,0,0,0
4085,4,-7,1,0,0,0,0,0
4086,3,-8,-1,0,0,0,0,0
4087,3,-7,0,0,0,0,0,0
4088,2,-6,0,0,0,0,0,0
4089,5,-8,1,0,0,0,0,0
4090,4,-6,0,0,0,0,0,0
4091,3,-8,-1,0,0,0,0,0
4092,4,-8,0,0,0,0,0,0
4093,4,-8,0,0,0,0,0,0
4094,2,-7,0,0,0,0,0,0
4095,2,-8,-1,0,0,0,0,0
4096,4,-8,-1,0,0,0,0,0
4097,3,-9,0,0,0,0,0,0
4098,2,-8,255,0,0,0,0,0
4099,4,-8,0,0,0,0,0,0
4100,4,-7,0,0,0,0,0,0
4101,2,-8,0,0,0,0,0,0
4102,4,-8,-1,0,0,0,0,0
4103,3,-7,-2,0,0,0,0,0
4104,2,-9,-1,0,0,0,0,0
4105,1,-8,0,0,0,0,0,0
4106,4,-7,0,0,0,0,0,0
4107,3,-6,0,0,0,0,0,0
4108,2,-7,-1,0,0,0,0,0
4109,4,-8,0,0,0,0,0,0
4110,3,-7,0,0,0,0,0,0
4111,4,-7,-1,0,0,0,0,0
4112,3,-6,0,0,0,0,0,0
4113,3,-8,-2,0,0,0,0,0
4114,3,-5,-1,0,0,0,0,0
4115,2,-6,0,0,0,0,0,0
4116,3,-8,-1,0,0,0,0,0
4117,3,-7,0,0,0,0,0,0
4118,2,-7,0,0,0,0,0,0
4119,3,-8,-2,0,0,0,0,0
4120,3,-7,-1,0,0,0,0,0
4121,4,-8,0,0,0,0,0,0
4122,2,-8,1,0,0,0,0,0
4123,1,-7,0,0,0,0,0,0
4124,3,-7,-1,0,0,0,0,0
4125,1,-6,-1,0,0,0,0,0
4126,2,-8,0,0,0,0,0,0
4127,2,-7,1,0,0,0,0,0
4128,3,-8,1,0,0,0,0,0
4129,3,-7,0,0,0,0,0,0
4130,4,-7,-1,0,0,0,0,0
4131,2,-7,0,0,0,0,0,0
4132,1,-7,-1,0,0,0,0,0
4133,3,-7,0,0,0,0,0,0
4134,3,-7,0,0,0,0,0,0
4135,3,-8,0,0,0,0,0,0
4136,2,-8,0,0,0,0,0,0
4137,3,-8,-2,0,0,0,0,0
4138,2,-7,1,0,0,0,0,0
4139,5,-8,-1,0,0,0,0,0
4140,4,-8,0,0,0,0,0,0
4141,3,-8,0,0,0,0,0,0
4142,1,-8,-1,0,0,0,0,0
4143,3,-7,-1,0,0,0,0,0
4144,3,-7,1,0,0,0,0,0
4145,3,-8,-1,0,0,0,0,0
4146,3,-8,1,0,0,0,0,0
4147,3,-6,0,0,0,0,0,0
4148,3,-9,0,0,0,0,0,0
4149,3,-9,0,0,0,0,0,0
4150,2,-6,0,0,0,0,0,0
4151,2,-6,0,0,0,0,0,0
4152,3,-8,0,0,0,0,0,0
4153,4,-8,-1,0,0,0,0,0
4154,4,-7,0,0,0,0,0,0
4155,3,-8,-1,0,0,0,0,0
4156,2,-9,-256,0,0,0,0,0
4157,2,-7,-1,0,0,0,0,0
4158,3,-6,0,0,0,0,0,0
4159,3,-8,0,0,0,0,0,0
4160,3,-8,0,0,0,0,0,0
4161,2,-8,0,0,0,0,0,0
4162,2,-7,0,0,0,0,0,0
4163,4,-8,0,0,0,0,0,0
4164,3,-9,0,0,0,0,0,0
4165,2,-8,1,0,0,0,0,0
4166,2,-7,-1,0,0,0,0,0
4167,2,-7,0,0,0,0,0,0
4168,2,-7,0,0,0,0,0,0
4169,1,-7,0,0,0,0,0,0
4170,1,-8,0,0,0,0,0,0
4171,2,-9,-1,0,0,0,0,0
4172,2,-6,-1,0,0,0,0,0
4173,4,-8,0,0,0,0,0,0
4174,2,-7,0,0,0,0,0,0
4175,3,-8,-1,0,0,0,0,0
4176,3,-8,0,0,0,0,0,0
4177,3,-7,255,0,0,0,0,0
4178,3,-9,0,0,0,0,0,0
4179,3,-6,-1,0,0,0,0,0
4180,2,-8,0,0,0,0,0,0
4181,4,-7,0,0,0,0,0,0
4182,3,-7,0,0,0,0,0,0
4183,3,-7,0,0,0,0,0,0
4184,2,-6,-1,0,0,0,0,0
4185,2,-8,-1,0,0,0,0,0
4186,3,-7,0,0,0,0,0,0
4187,3,-8,0,0,0,0,0,0
4188,3,-9,0,0,0,0,0,0
4189,3,-8,1,0,0,0,0,0
4190,2,-8,-1,0,0,0,0,0
4191,2,-8,0,0,0,0,0,0
4192,1,-7,-1,0,0,0,0,0
4193,2,-7,-2,0,0,0,0,0
4194,3,-6,0,0,0,0,0,0
4195,2,-7,-1,0,0,0,0,0
4196,4,-8,-1,0,0,0,0,0
4197,1,-8,-1,0,0,0,0,0
4198,4,-6,1,0,0,0,0,0
4199,2,-7,-1,0,0,0,0,0
4200,2,-8,-1,0,0,0,0,0
4201,3,-8,0,0,0,0,0,0
4202,3,-6,0,0,0,0,0,0
4203,3,-7,0,0,0,0,0,0
4204,3,-7,1,0,0,0,0,0
4205,1,-7,1,0,0,0,0,0
4206,3,-7,0,0,0,0,0,0
4207,4,-7,0,0,0,0,0,0
4208,3,-8,1,0,0,0,0,0
4209,5,-8,0,0,0,0,0,0
4210,3,-8,-1,0,0,0,0,0
4211,1,-7,1,0,0,0,0,0
4212,2,-7,0,0,0,0,0,0
4213,4,-8,0,0,0,0,0,0
4214,1,-9,0,0,0,0,0,0
4215,3,-7,0,0,0,0,0,0
4216,3,-8,0,0,0,0,0,0
4217,3,-8,1,0,0,0,0,0
4218,3,-8,-1,0,0,0,0,0
4219,3,-6,0,0,0,0,0,0
4220,3,-6,0,0,0,0,0,0
4221,4,-7,0,0,0,0,0,0
4222,4,-9,1,0,0,0,0,0
4223,3,-8,-1,0,0,0,0,0
4224,1,-7,0,0,0,0,0,0
4225,2,-8,-1,0,0,0,0,0
4226,2,-8,-1,0,0,0,0,0
4227,3,-8,0,0,0,0,0,0
4228,3,-7,0,0,0,0,0,0
4229,2,-8,0,0,0,0,0,0
4230,3,-8,0,0,0,0,0,0
4231,2,-7,1,0,0,0,0,0
4232,2,-6,-1,0,0,0,0,0
4233,3,-8,-1,0,0,0,0,0
4234,1,-7,0,0,0,0,0,0
4235,2,-6,-1,0,0,0,0,0
4236,3,-6,1,0,0,0,0,0
4237,4,-8,-1,0,0,0,0,0
4238,1,-6,0,0,0,0,0,0
4239,1,-9,0,0,0,0,0,0
4240,3,-8,-1,0,0,0,0,0
4241,2,-7,-1,0,0,0,0,0
4242,3,-8,0,0,0,0,0,0
4243,3,-7,1,0,0,0,0,0
4244,3,-7,0,0,0,0,0,0
4245,4,-8,-1,0,0,0,0,0
4246,3,-6,0,0,0,0,0,0
4247,1,-7,0,0,0,0,0,0
4248,4,-7,0,0,0,0,0,0
4249,3,-6,-1,0,0,0,0,0
4250,0,-7,1,0,0,0,0,0
4251,4,-6,0,0,0,0,0,0
4252,3,-8,1,0,0,0,0,0
4253,1,-8,0,0,0,0,0,0
4254,2,-7,-1,0,0,0,0,0
4255,2,-7,0,0,0,0,0,0
4256,4,-7,1,0,0,0,0,0
4257,3,-7,-1,0,0,0,0,0
4258,0,-8,0,0,0,0,0,0
4259,4,-7,0,0,0,0,0,0
4260,1,-7,0,0,0,0,0,0
4261,5,-6,1,0,0,0,0,0
4262,2,-7,0,0,0,0,0,0
4263,2,-6,-2,0,0,0,0,0
4264,4,-7,0,0,0,0,0,0
4265,2,-8,-1,0,0,0,0,0
4266,1,-9,0,0,0,0,0,0
4267,2,-6,1,0,0,0,0,0
4268,3,-6,1,0,0,0,0,0
4269,4,-8,0,0,0,0,0,0
4270,2,-7,0,0,0,0,0,0
4271,3,-6,0,0,0,0,0,0
4272,3,-7,-1,0,0,0,0,0
4273,3,-6,-1,0,0,0,0,0
4274,2,-6,0,0,0,0,0,0
4275,2,-6,0,0,0,0,0,0
4276,4,-7,0,0,0,0,0,0
4277,1,-9,0,0,0,0,0,0
4278,7,-6,-1,0,0,0,0,0
4279,2,-8,0,0,0,0,0,0
4280,4,-8,-1,0,0,0,0,0
4281,3,-7,0,0,0,0,0,0
4282,5,-8,0,0,0,0,0,0
4283,5,-7,-1,0,0,0,0,0
4284,3,-5,1,0,0,0,0,0
4285,3,-9,1,0,0,0,0,0
4286,3,-7,0,0,0,0,0,0
4287,4,-7,-1,0,0,0,0,0
4288,4,-6,0,0,0,0,0,0
4289,4,-7,1,0,0,0,0,0
4290,3,-8,0,0,0,0,0,0
4291,0,-6,-1,0,0,0,0,0
4292,-1,-8,0,0,0,0,0,0
4293,5,-6,-1,0,0,0,0,0
4294,2,-7,255,0,0,0,0,0
4295,4,-7,2,0,0,0,0,0
4296,2,-7,-1,0,0,0,0,0
4297,5,-7,0,0,0,0,0,0
4298,4,-7,-1,0,0,0,0,0
4299,1,-7,0,0,0,0,0,0
4300,4,-8,0,0,0,0,0,0
4301,3,-8,1,0,0,0,0,0
4302,4,-7,-1,0,0,0,0,0
4303,5,-9,0,0,0,0,0,0
4304,5,-7,-1,0,0,0,0,0
4305,5,-7,-1,0,0,0,0,0
4306,4,-8,0,0,0,0,0,0
4307,3,-6,0,0,0,0,0,0
4308,1,-9,1,0,0,0,0,0
4309,3,-7,1,0,0,0,0,0
4310,3,-7,0,0,0,0,0,0
4311,4,-7,0,0,0,0,0,0
4312,4,-7,0,0,0,0,0,0
4313,5,-9,-1,0,0,0,0,0
4314,2,-9,0,0,0,0,0,0
4315,3,-7,0,0,0,0,0,0
4316,2,-7,-1,0,0,0,0,0
4317,2,-7,0,0,0,0,0,0
4318,4,-7,0,0,0,0,0,0
4319,2,-7,-1,0,0,0,0,0
4320,2,-7,-256,0,0,0,0,0
4321,1,-8,0,0,0,0,0,0
4322,4,-7,0,0,0,0,0,0
4323,1,-7,0,0,0,0,0,0
4324,4,-7,1,0,0,0,0,0
4325,0,-7,-1,0,0,0,0,0
4326,4,-8,0,0,0,0,0,0
4327,6,-6,-256,0,0,0,0,0
4328,2,-8,-1,0,0,0,0,0
4329,4,-6,-1,0,0,0,0,0
4330,4,-7,1,0,0,0,0,0
4331,5,-7,-1,0,0,0,0,0
4332,2,-7,-1,0,0,0,0,0
4333,-1,-8,0,0,0,0,0,0
4334,0,-7,0,0,0,0,0,0
4335,3,-7,2,0,0,0,0,0
4336,5,-6,-1,0,0,0,0,0
4337,2,-7,-1,0,0,0,0,0
4338,5,-7,0,0,0,0,0,0
4339,2,-7,-1,0,0,0,0,0
4340,1,-7,0,0,0,0,0,0
4341,7,-2,0,0,0,0,0,0
4342,1,-8,-1,0,0,0,0,0
4343,1,-6,-1,0,0,0,0,0
4344,6,-10,-1,0,0,0,0,0
4345,1,-8,0,0,0,0,0,0
4346,-248,-11,5,0,0,0,0,0
4347,10,-32,3,0,0,0,0,0
4348,30,32,-7,1697,0,0,0,0
4349,-21,13,1,0,0,0,0,0
4350,8,-29,-6,1625,0,0,0,0
4351,22,29,0,0,0,0,0,0
4352,-16,11,0,0,0,0,0,0
4353,-49,44,11,0,0,0,0,0
4354,26,-4,2,0,0,0,0,0
4355,4,49,-7,0,0,0,0,0
4356,4,39,17,0,0,0,0,0
4357,20,29,-5,0,0,0,0,0
4358,6,43,-5,0,0,0,0,0
4359,2,45,8,0,0,0,0,0
4360,2,59,5,0,0,0,0,0
4361,25,58,-8,1072,0,0,0,0
4362,-5,57,-7,0,0,0,0,0
4363,25,70,-1,416,0,0,0,0
4364,-15,60,1,0,0,0,0,0
4365,251,91,1,720,0,0,0,0
4366,40,86,-5,0,0,0,0,0
4367,2,72,0,0,0,0,0,0
4368,21,105,-9,0,0,0,0,0
4369,-17,100,7,0,0,0,0,0
4370,83,114,-4,0,0,0,0,0
4371,-2,118,13,0,0,0,0,0
4372,26,141,-12,0,0,0,0,0
4373,48,137,3,0,0,0,0,0
4374,52,141,4,0,0,0,0,0
4375,26,142,-4,0,0,0,0,0
4376,-16,132,13,0,0,0,0,0
4377,44,153,0,0,0,0,0,0
4378,-16,145,6,0,0,0,0,0
4379,70,165,-3,0,0,0,0,0
4380,-20,134,41,0,0,0,0,0
4381,5,155,10,0,0,0,0,0
4382,107,157,-3,0,0,0,0,0
4383,5,140,-9,0,0,0,0,0
4384,-12,127,14,0,0,0,0,0
4385,-86,131,-4,0,0,0,0,0
4386,58,122,9,0,0,0,0,0
4387,85,126,-9,0,0,0,0,0
4388,2,86,28,0,0,0,0,0
4389,-56,84,13,0,0,0,0,0
4390,60,74,24,0,0,0,0,0
4391,61,43,15,0,0,0,0,0
4392,20,48,-4,0,0,0,0,0
4393,11,12,-17,0,0,0,0,0
4394,-38,5,6,592,0,0,0,0
4395,-21,2,24,0,0,0,0,0
4396,74,9,14,612,0,0,0,0
4397,-5,-11,10,0,0,0,0,0
4398,157,-17,16,637,0,0,0,0
4399,92,-4,7,654,0,0,0,0
4400,-32,-37,20,0,0,0,0,0
4401,-15,-38,30,669,0,0,0,0
4402,172,-3,-20,0,0,0,0,0
4403,93,-31,56,1068,0,0,0,0
4404,105,-2,-5,0,0,0,0,0
4405,174,-12,-4,1073,0,0,0,0
4406,29,0,17,0,0,0,0,0
4407,-69,-30,14,0,0,0,0,0
4408,17,-11,-6,0,0,0,0,0
4409,-13,-27,6,0,0,0,0,0
4410,182,-11,-36,0,0,0,0,0
4411,-25,-46,27,0,0,0,0,0
4412,128,1,-5,0,0,0,0,0
4413,21,-20,38,0,0,0,0,0
4414,-37,-36,-2,0,0,0,0,0
4415,109,-6,18,0,0,0,0,0
4416,115,11,3,0,0,0,0,0
4417,10,-26,3,0,0,0,0,0
4418,148,-25,14,0,0,0,0,0
4419,-58,-39,-55,0,0,0,0,0
4420,23,-1,-8,0,0,0,0,0
4421,30,248,0,838,0,0,0,0
4422,-33,-31,-11,0,0,0,0,0
4423,44,-10,18,850,0,0,0,0
4424,68,-19,-23,0,0,0,0,0
4425,-65,-21,-2,866,0,0,0,0
4426,64,-17,-28,0,0,0,0,0
4427,-65,-6,46,1037,0,0,0,0
4428,-27,-12,-43,0,0,0,0,0
4429,-75,7,2,0,0,0,0,0
4430,232,13,10,0,0,0,0,0
4431,-13,-8,-39,0,0,0,0,0
4432,-54,-2,10,0,0,0,0,0
4433,36,3,16,0,0,0,0,0
4434,134,3,32,0,0,0,0,0
4435,157,3,-12,0,0,0,0,0
4436,45,7,-44,346,0,0,0,0
4437,59,-4,-2,1040,0,0,0,0
4438,-39,-2,14,0,0,0,0,0
4439,146,6,40,0,0,0,0,0
4440,-93,-9,46,0,0,0,0,0
4441,-34,-1,-38,0,0,0,0,0
4442,-6,-6,18,994,0,0,0,0
4443,116,-5,21,0,0,0,0,0
4444,18,-9,-10,0,0,0,0,0
4445,140,-4,23,0,0,0,0,0
4446,2,-8,19,0,0,0,0,0
4447,-59,-32,-10,0,0,0,0,0
4448,71,-30,53,0,0,0,0,0
4449,154,-18,19,0,0,0,0,0
4450,-67,-22,15,0,0,0,0,0
4451,-50,-20,-22,0,0,0,0,0
4452,68,-255,-14,971,0,0,0,0
4453,17,-15,-8,974,0,0,0,0
4454,3,-24,11,0,0,0,0,0
4455,61,-26,-21,1043,0,0,0,0
4456,41,-33,-13,1041,0,0,0,0
4457,212,-10,32,0,0,0,0,0
4458,62,-26,-19,0,0,0,0,0
4459,155,-62,68,992,0,0,0,0
4460,-217,-14,16,0,0,0,0,0
4461,-100,-13,-23,0,0,0,0,0
4462,-31,-10,-9,998,0,0,0,0
4463,-75,-24,-60,0,0,0,0,0
4464,58,-25,80,0,0,0,0,0
4465,-164,-33,-27,0,0,0,0,0
4466,-4,-32,18,0,0,0,0,0
4467,-115,-37,-11,0,0,0,0,0
4468,1,-11,-30,0,0,0,0,0
4469,-115,-77,-36,0,0,0,0,0
4470,-280,-62,-59,0,0,0,0,0
4471,-29,-49,29,1000,0,0,0,0
4472,-23,-23,-8,1000,0,0,0,0
4473,55,-18,20,0,0,0,0,0
4474,-23,-35,-39,0,0,0,0,0
4475,83,1,-13,0,0,0,0,0
4476,-120,-14,24,0,0,0,0,0
4477,-52,-23,-23,0,0,0,0,0
4478,111,-12,32,0,0,0,0,0
4479,-6,-24,-3,0,0,0,0,0
4480,1,-26,-10,0,0,0,0,0
4481,-95,-25,-35,0,0,0,0,0
4482,117,-13,22,0,0,0,0,0
4483,-123,-21,16,0,0,0,0,0
4484,94,-19,-5,180,0,0,0,0
4485,-84,-30,-29,1095,0,0,0,0
4486,-12,-12,5,0,0,0,0,0
4487,119,-26,32,1020,0,0,0,0
4488,-58,-20,-36,0,0,0,0,0
4489,35,4,-9,0,0,0,0,0
4490,166,-5,9,0,0,0,0,0
4491,65,-30,17,1021,0,0,0,0
4492,40,-58,9,0,0,0,0,0
4493,29,19,23,1023,0,0,0,0
4494,-3,-29,-20,0,0,0,0,0
4495,-18,-40,8,0,0,0,0,0
4496,40,-46,-32,0,0,0,0,0
4497,49,8,8,977,0,0,0,0
4498,-157,-80,-8,0,0,0,0,0
4499,-70,-55,-3,0,0,0,0,0
4500,-13,-28,-8,0,0,0,0,0
4501,55,-22,-13,0,0,0,0,0
4502,-106,-46,-5,0,0,0,0,0
4503,182,-50,3,0,0,0,0,0
4504,-63,-41,-39,0,0,0,0,0
4505,-9,-75,41,975,0,0,0,0
4506,88,-32,-26,0,0,0,0,0
4507,-35,-51,15,0,0,0,0,0
4508,108,-36,30,0,0,0,0,0
4509,-67,-49,-2,0,0,0,0,0
4510,-165,-82,-48,0,0,0,0,0
4511,15,-62,0,0,0,0,0,0
4512,-53,-85,22,0,0,0,0,0
4513,128,-85,34,0,0,0,0,0
4514,-25,-95,23,0,0,0,0,0
4515,-230,-115,40,0,0,0,0,0
4516,169,-78,4,0,0,0,0,0
4517,59,-87,-41,0,0,0,0,0
4518,106,-79,-83,0,0,0,0,0
4519,-16,-113,-2,0,0,0,0,0
4520,12,-94,33,0,0,0,0,0
4521,126,-132,7,0,0,0,0,0
4522,-39,-79,-28,0,0,0,0,0
4523,118,-109,42,0,0,0,0,0
4524,-21,-118,-61,0,0,0,0,0
4525,91,-118,20,0,0,0,0,0
4526,69,-117,27,0,0,0,0,0
4527,29,-126,49,0,0,0,0,0
4528,-226,-175,-61,0,0,0,0,0
4529,42,-117,-20,0,0,0,0,0
4530,40,-105,58,0,0,0,0,0
4531,-49,-119,-59,0,0,0,0,0
4532,-88,-128,-40,0,0,0,0,0
4533,365,-56,25,1032,0,0,0,0
4534,-143,-117,-48,0,0,0,0,0
4535,-38,-108,72,1029,0,0,0,0
4536,-114,-92,-68,0,0,0,0,0
4537,-95,-108,42,1025,0,0,0,0
4538,40,-92,64,0,0,0,0,0
4539,67,-39,-43,1015,0,0,0,0
4540,-78,-44,-11,0,0,0,0,0
4541,-99,-66,24,1018,0,0,0,0
4542,-48,-64,50,0,0,0,0,0
4543,37,-57,-51,1016,0,0,0,0
4544,-134,-61,22,0,0,0,0,0
4545,-120,-70,-8,0,0,0,0,0
4546,-20,-54,31,0,0,0,0,0
4547,163,-50,-32,1015,0,0,0,0
4548,81,-29,18,0,0,0,0,0
4549,95,-10,-36,1006,0,0,0,0
4550,63,-23,15,0,0,0,0,0
4551,136,22,51,1005,0,0,0,0
4552,51,-3,-27,0,0,0,0,0
4553,-147,-10,-31,0,0,0,0,0
4554,-22,18,7,0,0,0,0,0
4555,56,31,-25,0,0,0,0,0
4556,-54,41,12,0,0,0,0,0
4557,160,56,-20,0,0,0,0,0
4558,-83,51,-17,0,0,0,0,0
4559,-76,70,-20,0,0,0,0,0
4560,-165,37,-43,0,0,0,0,0
4561,21,78,30,0,0,0,0,0
4562,-37,57,-12,0,0,0,0,0
4563,144,94,4,0,0,0,0,0
4564,16,106,-94,0,0,0,0,0
4565,2,96,-60,0,0,0,0,0
4566,121,130,-11,0,0,0,0,0
4567,23,106,-13,0,0,0,0,0
4568,43,102,-7,0,0,0,0,0
4569,-120,93,-39,0,0,0,0,0
4570,-35,81,-47,0,0,0,0,0
4571,-141,57,-18,985,0,0,0,0
4572,256,84,10,197,0,0,0,0
4573,32,59,-29,0,0,0,0,0
4574,49,20,-255,1006,0,0,0,0
4575,99,41,34,0,0,0,0,0
4576,-152,21,-6,1005,0,0,0,0
4577,-27,16,6,0,0,0,0,0
4578,39,-19,-10,0,0,0,0,0
4579,-8,-8,1,0,0,0,0,0
4580,-47,4,10,0,0,0,0,0
4581,11,-6,-10,0,0,0,0,0
4582,7,-12,-4,0,0,0,0,0
4583,18,5,4,0,0,0,0,0
4584,12,-7,0,0,0,0,0,0
4585,-2,-13,-8,0,0,0,0,0
4586,14,-3,2,0,0,0,0,0
4587,18,-1,-3,0,0,0,0,0
4588,12,-13,0,0,0,0,0,0
4589,2,-3,0,0,0,0,0,0
4590,5,-6,-1,0,0,0,0,0
4591,15,-8,-2,0,0,0,0,0
4592,47,1,1,0,0,0,0,0
4593,-12,-10,-3,0,0,0,0,0
4594,11,-10,-1,0,0,0,0,0
4595,3,-6,-1,0,0,0,0,0
4596,0,-9,-1,0,0,0,0,0
4597,7,-7,-2,0,0,0,0,0
4598,2,-7,0,0,0,0,0,0
4599,11,-6,-2,0,0,0,0,0
4600,3,-4,-2,0,0,0,0,0
4601,1,-6,0,0,0,0,0,0
4602,-2,-5,0,0,0,0,0,0
4603,7,-2,-2,0,0,0,0,0
4604,20,-3,-3,0,0,0,0,0
4605,13,-6,0,0,0,0,0,0
4606,15,-3,-3,0,0,0,0,0
4607,-6,-10,0,0,0,0,0,0
4608,3,-4,-1,0,0,0,0,0
4609,-2,-7,-3,0,0,0,0,0
4610,19,-5,0,0,0,0,0,0
4611,6,-5,1,0,0,0,0,0
4612,1,-6,2,0,0,0,0,0
4613,-5,-9,-2,0,0,0,0,0
4614,6,-8,0,0,0,0,0,0
4615,-6,-5,-1,0,0,0,0,0
4616,5,-4,-4,0,0,0,0,0
4617,-11,-9,-1,0,0,0,0,0
4618,-6,-12,2,0,0,0,0,0
4619,0,-12,0,0,0,0,0,0
4620,-3,-7,-2,0,0,0,0,0
4621,1,-8,-3,0,0,0,0,0
4622,6,-6,-2,0,0,0,0,0
4623,2,-8,2,0,0,0,0,0
4624,5,-7,0,0,0,0,0,0
4625,8,-7,0,0,0,0,0,0
4626,6,-5,1,0,0,0,0,0
4627,4,-6,0,0,0,0,0,0
4628,3,-6,-1,0,0,0,0,0
4629,2,-7,0,0,0,0,0,0
4630,6,-8,-1,0,0,0,0,0
4631,6,-7,0,0,0,0,0,0
4632,3,-7,-2,0,0,0,0,0
4633,11,-6,-1,0,0,0,0,0
4634,-2,-11,0,0,0,0,0,0
4635,5,-5,1,0,0,0,0,0
4636,6,-9,0,0,0,0,0,0
4637,1,-8,-1,0,0,0,0,0
4638,6,-6,0,0,0,0,0,0
4639,0,-9,1,0,0,0,0,0
4640,4,-7,-2,0,0,0,0,0
4641,-1,-8,1,0,0,0,0,0
4642,1,-8,1,0,0,0,0,0
4643,4,-7,-1,0,0,0,0,0
4644,3,-7,0,0,0,0,0,0
4645,-2,-5,1,0,0,0,0,0
4646,7,-8,-1,0,0,0,0,0
4647,2,-7,-1,0,0,0,0,0
4648,1,-9,0,0,0,0,0,0
4649,0,-8,0,0,0,0,0,0
4650,-1,-6,0,0,0,0,0,0
4651,3,-10,-1,0,0,0,0,0
4652,-2,-7,1,0,0,0,0,0
4653,3,-10,-1,0,0,0,0,0
4654,1,-7,-1,0,0,0,0,0
4655,1,-8,0,0,0,0,0,0
4656,4,-9,1,0,0,0,0,0
4657,3,-8,-2,0,0,0,0,0
4658,2,-7,-1,0,0,0,0,0
4659,3,-6,0,0,0,0,0,0
4660,0,-7,0,0,0,0,0,0
4661,5,-8,-1,0,0,0,0,0
4662,4,-6,-1,0,0,0,0,0
4663,2,-8,0,0,0,0,0,0
4664,2,-7,0,0,0,0,0,0
4665,3,-8,-1,0,0,0,0,0
4666,2,-7,-1,0,0,0,0,0
4667,3,-7,-1,0,0,0,0,0
4668,3,-8,1,0,0,0,0,0
4669,2,-7,-1,0,0,0,0,0
4670,3,-7,-1,0,0,0,0,0
4671,4,-8,-1,0,0,0,0,0
4672,4,-7,-1,0,0,0,0,0
4673,1,-6,-1,0,0,0,0,0
4674,2,-7,0,0,0,0,0,0
4675,2,-8,-1,0,0,0,0,0
4676,1,-7,0,0,0,0,0,0
4677,2,-8,-1,0,0,0,0,0
4678,2,-6,1,0,0,0,0,0
4679,2,-6,1,0,0,0,0,0
4680,4,-8,0,0,0,0,0,0
4681,5,-5,-1,0,0,0,0,0
4682,2,-8,0,0,0,0,0,0
4683,3,-7,0,0,0,0,0,0
4684,5,-7,0,0,0,0,0,0
4685,2,-9,0,0,0,0,0,0
4686,2,-6,0,0,0,0,0,0
4687,2,-8,-1,0,0,0,0,0
4688,5,-7,0,0,0,0,0,0
4689,2,-6,-1,0,0,0,0,0
4690,6,-8,0,0,0,0,0,0
4691,-7,-12,3,0,0,0,0,0
4692,2,-7,0,0,0,0,0,0
4693,1,-7,0,0,0,0,0,0
4694,1,-7,0,0,0,0,0,0
4695,6,-8,-1,0,0,0,0,0
4696,4,-8,-1,0,0,0,0,0
4697,4,-6,1,0,0,0,0,0
4698,0,-8,0,0,0,0,0,0
4699,6,-8,-1,0,0,0,0,0
4700,2,-7,-1,0,0,0,0,0
4701,3,-8,255,0,0,0,0,0
4702,8,-7,-1,0,0,0,0,0
4703,7,-5,1,0,0,0,0,0
4704,3,-8,-1,0,0,0,0,0
4705,-1,-7,0,0,0,0,0,0
4706,1,-6,0,0,0,0,0,0
4707,3,-7,0,0,0,0,0,0
4708,3,-7,0,0,0,0,0,0
4709,3,-8,0,0,0,0,0,0
4710,2,-8,0,0,0,0,0,0
4711,2,-6,1,0,0,0,0,0
4712,3,-7,0,0,0,0,0,0
4713,1,-7,0,0,0,0,0,0
4714,0,-9,-1,0,0,0,0,0
4715,3,-7,0,0,0,0,0,0
4716,4,-7,0,0,0,0,0,0
4717,1,-7,0,0,0,0,0,0
4718,1,-7,0,0,0,0,0,0
4719,2,-8,-1,0,0,0,0,0
4720,2,-8,-1,0,0,0,0,0
4721,2,-6,0,0,0,0,0,0
4722,4,-8,-1,0,0,0,0,0
4723,2,-7,-1,0,0,0,0,0
4724,3,-7,-1,0,0,0,0,0
4725,3,-7,0,0,0,0,0,0
4726,2,-8,-1,0,0,0,0,0
4727,3,-8,-1,0,0,0,0,0
4728,2,-9,-1,0,0,0,0,0
4729,2,-6,0,0,0,0,0,0
4730,2,-8,0,0,0,0,0,0
4731,2,-6,-2,0,0,0,0,0
4732,4,-6,0,0,0,0,0,0
4733,0,-8,-2,0,0,0,0,0
4734,7,-7,0,0,0,0,0,0
4735,1,-8,0,0,0,0,0,0
4736,3,-8,-1,0,0,0,0,0
4737,1,-6,-1,0,0,0,0,0
4738,0,-7,1,0,0,0,0,0
4739,4,-7,1,0,0,0,0,0
4740,-2,-8,0,0,0,0,0,0
4741,4,-8,-1,0,0,0,0,0
4742,4,-6,0,0,0,0,0,0
4743,3,-8,0,0,0,0,0,0
4744,2,-7,0,0,0,0,0,0
4745,2,-8,-1,0,0,0,0,0
4746,2,-7,0,0,0,0,0,0
4747,3,-8,-1,0,0,0,0,0
4748,2,-7,-1,0,0,0,0,0
4749,3,-8,-1,0,0,0,0,0
4750,3,-8,0,0,0,0,0,0
4751,4,-10,-1,0,0,0,0,0
4752,1,-8,0,0,0,0,0,0
4753,3,-7,0,0,0,0,0,0
4754,3,-8,0,0,0,0,0,0
4755,2,-9,-256,0,0,0,0,0
4756,4,-9,0,0,0,0,0,0
4757,1,-6,0,0,0,0,0,0
4758,4,-6,-1,0,0,0,0,0
4759,3,-8,0,0,0,0,0,0
4760,4,-7,0,0,0,0,0,0
4761,3,-8,-1,0,0,0,0,0
4762,1,-7,1,0,0,0,0,0
4763,2,-7,-1,0,0,0,0,0
4764,2,-6,-1,0,0,0,0,0
4765,3,-6,0,0,0,0,0,0
4766,4,-6,0,0,0,0,0,0
4767,2,-8,0,0,0,0,0,0
4768,2,-8,-1,0,0,0,0,0
4769,4,-8,-1,0,0,0,0,0
4770,3,-8,0,0,0,0,0,0
4771,5,-7,0,0,0,0,0,0
4772,3,-6,-1,0,0,0,0,0
4773,3,-8,-1,0,0,0,0,0
4774,2,-8,1,0,0,0,0,0
4775,2,-7,-1,0,0,0,0,0
4776,3,-6,0,0,0,0,0,0
4777,3,-7,-1,0,0,0,0,0
4778,4,-7,0,0,0,0,0,0
4779,2,-9,0,0,0,0,0,0
4780,3,-7,-1,0,0,0,0,0
4781,4,-7,-1,0,0,0,0,0
4782,2,-8,-1,0,0,0,0,0
4783,3,-7,-1,0,0,0,0,0
4784,1,-7,-1,0,0,0,0,0
4785,1,-9,-1,0,0,0,0,0
4786,4,-8,1,0,0,0,0,0
4787,2,-7,0,0,0,0,0,0
4788,0,-9,1,0,0,0,0,0
4789,2,-8,-2,0,0,0,0,0
4790,2,-7,-1,0,0,0,0,0
4791,2,-7,0,0,0,0,0,0
4792,3,-7,-1,0,0,0,0,0
4793,3,-7,0,0,0,0,0,0
4794,4,-6,-1,0,0,0,0,0
4795,4,-7,0,0,0,0,0,0
4796,2,-7,-2,0,0,0,0,0
4797,0,-9,1,0,0,0,0,0
4798,3,-6,0,0,0,0,0,0
4799,0,-8,0,0,0,0,0,0
4800,4,-8,0,0,0,0,0,0
4801,2,-7,-1,0,0,0,0,0
4802,2,-8,0,0,0,0,0,0
4803,3,-7,-1,0,0,0,0,0
4804,3,-9,-1,0,0,0,0,0
4805,4,-6,0,0,0,0,0,0
4806,1,-7,-2,0,0,0,0,0
4807,2,-7,0,0,0,0,0,0
4808,4,-6,-1,0,0,0,0,0
4809,1,-9,-1,0,0,0,0,0
4810,1,-8,0,0,0,0,0,0
4811,3,-6,-1,0,0,0,0,0
4812,4,-8,0,0,0,0,0,0
4813,2,-7,1,0,0,0,0,0
4814,3,-8,-1,0,0,0,0,0
4815,3,-8,0,0,0,0,0,0
4816,4,-7,-1,0,0,0,0,0
4817,3,-7,0,0,0,0,0,0
4818,2,-7,0,0,0,0,0,0
4819,2,-6,-1,0,0,0,0,0
4820,4,-7,-1,0,0,0,0,0
4821,2,-7,0,0,0,0,0,0
4822,3,-6,0,0,0,0,0,0
4823,4,-8,-1,0,0,0,0,0
4824,1,-9,0,0,0,0,0,0
4825,2,-7,-1,0,0,0,0,0
4826,4,-6,-1,0,0,0,0,0
4827,2,-9,1,0,0,0,0,0
4828,4,-8,-1,0,0,0,0,0
4829,3,-6,-1,0,0,0,0,0
4830,3,-9,0,0,0,0,0,0
4831,1,-8,0,0,0,0,0,0
4832,3,-7,1,0,0,0,0,0
4833,3,-7,-1,0,0,0,0,0
4834,3,-7,0,0,0,0,0,0
4835,4,-8,0,0,0,0,0,0
4836,1,-8,0,0,0,0,0,0
4837,5,-7,0,0,0,0,0,0
4838,26,-2,-1,0,0,0,0,0
4839,5,-9,2,0,0,0,0,0
4840,1,-4,1,0,0,0,0,0
4841,5,-6,1,0,0,0,0,0
4842,9,-7,2,0,0,0,0,0
4843,8,-7,-1,0,0,0,0,0
4844,-3,-8,-4,0,0,0,0,0
4845,3,-8,0,0,0,0,0,0
4846,2,-7,-1,0,0,0,0,0
4847,1,-7,-1,0,0,0,0,0
4848,2,-8,0,0,0,0,0,0
4849,2,-8,1,0,0,0,0,0
4850,2,-7,0,0,0,0,0,0
4851,4,-8,0,0,0,0,0,0
4852,3,-8,1,0,0,0,0,0
4853,2,-8,0,0,0,0,0,0
4854,5,-6,-2,0,0,0,0,0
4855,2,-8,-1,0,0,0,0,0
4856,4,-7,-1,0,0,0,0,0
4857,3,-6,-1,0,0,0,0,0
4858,4,-6,0,0,0,0,0,0
4859,2,-8,-1,0,0,0,0,0
4860,3,-6,0,0,0,0,0,0
4861,3,-9,-1,0,0,0,0,0
4862,3,-7,0,0,0,0,0,0
4863,3,-7,-1,0,0,0,0,0
4864,1,-7,1,0,0,0,0,0
4865,1,-8,-1,0,0,0,0,0
4866,0,-9,0,0,0,0,0,0
4867,3,-9,-1,0,0,0,0,0
4868,4,-7,1,0,0,0,0,0
4869,4,-7,0,0,0,0,0,0
4870,1,-7,0,0,0,0,0,0
4871,2,-7,-1,0,0,0,0,0
4872,3,-7,0,0,0,0,0,0
4873,4,-8,0,0,0,0,0,0
4874,3,-8,-1,0,0,0,0,0
4875,3,-7,0,0,0,0,0,0
4876,1,-7,1,0,0,0,0,0
4877,3,-7,0,0,0,0,0,0
4878,3,-7,-2,0,0,0,0,0
4879,2,-7,-1,0,0,0,0,0
4880,4,-9,1,0,0,0,0,0
4881,3,-8,0,0,0,0,0,0
4882,2,-7,0,0,0,0,0,0
4883,4,-8,-1,0,0,0,0,0
4884,3,-7,0,0,0,0,0,0
4885,4,-8,0,0,0,0,0,0
4886,3,-6,-1,0,0,0,0,0
4887,3,-7,0,0,0,0,0,0
4888,2,-9,0,0,0,0,0,0
4889,3,-8,-1,0,0,0,0,0
4890,3,-7,-1,0,0,0,0,0
4891,3,-8,-1,0,0,0,0,0
4892,1,-9,-1,0,0,0,0,0
4893,2,-6,-1,0,0,0,0,0
4894,3,-6,0,0,0,0,0,0
4895,2,-9,0,0,0,0,0,0
4896,3,-9,1,0,0,0,0,0
4897,3,-8,1,0,0,0,0,0
4898,3,-7,-1,0,0,0,0,0
4899,3,-6,0,0,0,0,0,0
4900,3,-7,0,0,0,0,0,0
4901,2,-7,0,0,0,0,0,0
4902,3,-7,0,0,0,0,0,0
4903,2,-8,-1,0,0,0,0,0
4904,3,-9,-1,0,0,0,0,0
4905,3,-8,0,0,0,0,0,0
4906,2,-7,-1,0,0,0,0,0
4907,4,-8,-2,0,0,0,0,0
4908,2,-7,0,0,0,0,0,0
4909,7,-6,-1,0,0,0,0,0
4910,4,-7,-1,0,0,0,0,0
4911,1,-6,0,0,0,0,0,0
4912,3,-7,0,0,0,0,0,0
4913,2,-7,0,0,0,0,0,0
4914,2,-7,0,0,0,0,0,0
4915,4,-7,0,0,0,0,0,0
4916,1,-6,-1,0,0,0,0,0
4917,4,-8,-1,0,0,0,0,0
4918,2,-9,0,0,0,0,0,0
4919,5,-8,-1,0,0,0,0,0
4920,1,-9,-1,0,0,0,0,0
4921,3,-7,255,0,0,0,0,0
4922,4,-7,1,0,0,0,0,0
4923,2,-7,-1,0,0,0,0,0
4924,3,-7,-1,0,0,0,0,0
4925,0,-8,-1,0,0,0,0,0
4926,2,-9,1,0,0,0,0,0
4927,4,-9,0,0,0,0,0,0
4928,3,-8,-1,0,0,0,0,0
4929,3,-8,0,0,0,0,0,0
4930,4,-7,0,0,0,0,0,0
4931,3,-8,-1,0,0,0,0,0
4932,3,-7,0,0,0,0,0,0
4933,2,-8,-2,0,0,0,0,0
4934,3,-7,0,0,0,0,0,0
4935,3,-8,0,0,0,0,0,0
4936,4,-8,1,0,0,0,0,0
4937,2,-6,0,0,0,0,0,0
4938,4,-7,0,0,0,0,0,0
4939,2,-8,0,0,0,0,0,0
4940,2,-7,0,0,0,0,0,0
4941,1,-6,-1,0,0,0,0,0
4942,2,-8,0,0,0,0,0,0
4943,3,-7,1,0,0,0,0,0
4944,1,-7,-1,0,0,0,0,0
4945,3,-8,-1,0,0,0,0,0
4946,3,-8,0,0,0,0,0,0
4947,2,-9,0,0,0,0,0,0
4948,2,-6,0,0,0,0,0,0
4949,4,-7,0,0,0,0,0,0
4950,3,-8,0,0,0,0,0,0
4951,3,-8,0,0,0,0,0,0
4952,3,-7,1,0,0,0,0,0
4953,3,-8,1,0,0,0,0,0
4954,3,-8,-1,0,0,0,0,0
4955,2,-5,0,0,0,0,0,0
4956,1,-8,0,0,0,0,0,0
4957,3,-6,-1,0,0,0,0,0
4958,3,-7,0,0,0,0,0,0
4959,2,-7,-1,0,0,0,0,0
4960,4,-8,-2,0,0,0,0,0
4961,2,-8,0,0,0,0,0,0
4962,3,-7,0,0,0,0,0,0
4963,3,-6,1,0,0,0,0,0
4964,3,-6,-2,0,0,0,0,0
4965,3,-7,1,0,0,0,0,0
4966,2,-8,-2,0,0,0,0,0
4967,2,-6,0,0,0,0,0,0
4968,2,-7,-1,0,0,0,0,0
4969,4,-9,-1,0,0,0,0,0
4970,3,-8,-1,0,0,0,0,0
4971,2,-7,0,0,0,0,0,0
4972,3,-8,-1,0,0,0,0,0
4973,4,-6,1,0,0,0,0,0
4974,2,-7,-1,0,0,0,0,0
4975,3,-7,-1,0,0,0,0,0
4976,3,-7,-1,0,0,0,0,0
4977,3,-8,-1,0,0,0,0,0
4978,4,-8,-1,0,0,0,0,0
4979,1,-6,-1,0,0,0,0,0
4980,2,-8,0,0,0,0,0,0
4981,3,-8,1,0,0,0,0,0
4982,3,-5,0,0,0,0,0,0
4983,2,-8,0,0,0,0,0,0
4984,3,-8,-1,0,0,0,0,0
4985,3,-7,-1,0,0,0,0,0
4986,3,-8,-1,0,0,0,0,0
4987,3,-6,0,0,0,0,0,0
4988,3,-5,-1,0,0,0,0,0
4989,3,-8,-1,0,0,0,0,0
4990,3,-8,0,0,0,0,0,0
4991,2,-8,1,0,0,0,0,0
4992,3,-7,-1,0,0,0,0,0
4993,2,-8,0,0,0,0,0,0
4994,4,-7,-1,0,0,0,0,0
4995,2,-8,1,0,0,0,0,0
4996,3,-8,0,0,0,0,0,0
4997,2,-7,-1,0,0,0,0,0
4998,2,-8,0,0,0,0,0,0
4999,3,-7,-1,0,0,0,0,0
5000,2,-9,-1,0,0,0,0,0
5001,3,-7,-1,0,0,0,0,0
5002,2,-8,-2,0,0,0,0,0
5003,2,-7,-1,0,0,0,0,0
5004,3,-6,-2,0,0,0,0,0
5005,3,-8,1,0,0,0,0,0
5006,3,-6,0,0,0,0,0,0
5007,4,-8,-1,0,0,0,0,0
5008,5,-7,0,0,0,0,0,0
5009,3,-6,0,0,0,0,0,0
5010,4,-7,-1,0,0,0,0,0
5011,2,-9,0,0,0,0,0,0
5012,3,-7,-1,0,0,0,0,0
5013,1,-8,0,0,0,0,0,0
5014,4,-7,0,0,0,0,0,0
5015,2,-7,-1,0,0,0,0,0
5016,4,-8,-1,0,0,0,0,0
5017,5,-7,0,0,0,0,0,0
5018,2,-6,0,0,0,0,0,0
5019,3,-7,-1,0,0,0,0,0
5020,4,-7,0,0,0,0,0,0
5021,2,-8,-1,0,0,0,0,0
5022,2,-6,0,0,0,0,0,0
5023,4,-7,0,0,0,0,0,0
5024,2,-7,-2,0,0,0,0,0
5025,2,-9,1,0,0,0,0,0
5026,2,-8,0,0,0,0,0,0
5027,4,-8,-1,0,0,0,0,0
5028,3,-9,0,0,0,0,0,0
5029,3,-6,0,0,0,0,0,0
5030,3,-9,0,0,0,0,0,0
5031,6,-8,-1,0,0,0,0,0
5032,2,-7,0,0,0,0,0,0
5033,6,-7,-1,0,0,0,0,0
5034,1,-8,-1,0,0,0,0,0
5035,6,-7,-1,0,0,0,0,0
5036,4,-7,-1,0,0,0,0,0
5037,4,-7,0,0,0,0,0,0
5038,3,-7,-1,0,0,0,0,0
5039,2,-8,-1,0,0,0,0,0
5040,2,-10,0,0,0,0,0,0
5041,0,-7,-1,0,0,0,0,0
5042,0,-7,0,0,0,0,0,0
5043,4,-6,0,0,0,0,0,0
5044,2,-9,-1,0,0,0,0,0
5045,5,-8,0,0,0,0,0,0
5046,3,-8,1,0,0,0,0,0
5047,2,-8,0,0,0,0,0,0
5048,3,-7,-1,0,0,0,0,0
5049,4,-8,0,0,0,0,0,0
5050,2,-8,-1,0,0,0,0,0
5051,2,-8,0,0,0,0,0,0
5052,3,-6,-1,0,0,0,0,0
5053,2,-9,-2,0,0,0,0,0
5054,2,-8,0,0,0,0,0,0
5055,2,-7,0,0,0,0,0,0
5056,2,-7,0,0,0,0,0,0
5057,1,-9,0,0,0,0,0,0
5058,2,-7,-1,0,0,0,0,0
5059,3,-7,1,0,0,0,0,0
5060,1,-7,-1,0,0,0,0,0
5061,2,-7,0,0,0,0,0,0
5062,4,-8,-1,0,0,0,0,0
5063,2,-8,-1,0,0,0,0,0
5064,2,-10,0,0,0,0,0,0
5065,2,-9,1,0,0,0,0,0
5066,4,-7,-1,0,0,0,0,0
5067,4,-7,0,0,0,0,0,0
5068,1,-8,-1,0,0,0,0,0
5069,3,-7,-1,0,0,0,0,0
5070,2,-7,0,0,0,0,0,0
5071,2,-7,0,0,0,0,0,0
5072,4,-6,-1,0,0,0,0,0
5073,3,-8,0,0,0,0,0,0
5074,3,-10,-1,0,0,0,0,0
5075,1,-8,-1,0,0,0,0,0
5076,3,-7,-1,0,0,0,0,0
5077,2,-8,-1,0,0,0,0,0
5078,4,-7,0,0,0,0,0,0
5079,4,-8,0,0,0,0,0,0
5080,2,-6,0,0,0,0,0,0
5081,0,-9,1,0,0,0,0,0
5082,0,-7,-1,0,0,0,0,0
5083,2,-8,0,0,0,0,0,0
5084,2,-7,0,0,0,0,0,0
5085,3,-7,0,0,0,0,0,0
5086,3,-7,0,0,0,0,0,0
5087,2,-8,1,0,0,0,0,0
5088,1,-8,-1,0,0,0,0,0
5089,1,-8,0,0,0,0,0,0
5090,1,-9,1,0,0,0,0,0
5091,3,-7,0,0,0,0,0,0
5092,4,-7,-256,0,0,0,0,0
5093,3,-7,0,0,0,0,0,0
5094,2,-7,-1,0,0,0,0,0
5095,5,-8,-1,0,0,0,0,0
5096,2,-6,-1,0,0,0,0,0
5097,5,-7,0,0,0,0,0,0
5098,3,-8,-2,0,0,0,0,0
5099,4,-7,0,0,0,0,0,0
5100,4,-7,0,0,0,0,0,0
5101,3,-7,-1,0,0,0,0,0
5102,2,-8,0,0,0,0,0,0
5103,2,-8,0,0,0,0,0,0
5104,4,-8,-1,0,0,0,0,0
5105,4,-7,0,0,0,0,0,0
5106,3,-7,0,0,0,0,0,0
5107,2,-6,-1,0,0,0,0,0
5108,3,-6,0,0,0,0,0,0
5109,3,-8,-1,0,0,0,0,0
5110,1,-8,0,0,0,0,0,0
5111,3,-6,-1,0,0,0,0,0
5112,4,-9,0,0,0,0,0,0
5113,2,-7,0,0,0,0,0,0
5114,3,-8,-1,0,0,0,0,0
5115,1,-8,-1,0,0,0,0,0
5116,3,-8,0,0,0,0,0,0
5117,2,-7,0,0,0,0,0,0
5118,4,-7,-1,0,0,0,0,0
5119,3,-6,0,0,0,0,0,0
5120,3,-7,-2,0,0,0,0,0
5121,5,-7,0,0,0,0,0,0
5122,2,-7,0,0,0,0,0,0
5123,3,-7,0,0,0,0,0,0
5124,2,-8,0,0,0,0,0,0
5125,0,-8,-1,0,0,0,0,0
5126,2,-7,0,0,0,0,0,0
5127,4,-9,1,0,0,0,0,0
5128,1,-7,-1,0,0,0,0,0
5129,2,-8,0,0,0,0,0,0
5130,4,-7,0,0,0,0,0,0
5131,3,-8,1,0,0,0,0,0
5132,2,-8,0,0,0,0,0,0
5133,2,-6,-1,0,0,0,0,0
5134,2,-7,0,0,0,0,0,0
5135,3,-7,0,0,0,0,0,0
5136,3,-8,0,0,0,0,0,0
5137,3,-7,-256,0,0,0,0,0
5138,1,-8,0,0,0,0,0,0
5139,2,-7,-1,0,0,0,0,0
5140,4,-6,-1,0,0,0,0,0
5141,3,-7,-2,0,0,0,0,0
5142,2,-8,0,0,0,0,0,0
5143,1,-7,-1,0,0,0,0,0
5144,3,-8,-256,0,0,0,0,0
5145,2,-7,-1,0,0,0,0,0
5146,2,-7,0,0,0,0,0,0
5147,3,-8,-1,0,0,0,0,0
5148,3,-7,-1,0,0,0,0,0
5149,3,-8,-1,0,0,0,0,0
5150,3,-8,0,0,0,0,0,0
5151,3,-7,-1,0,0,0,0,0
5152,4,-7,0,0,0,0,0,0
5153,2,-8,-1,0,0,0,0,0
5154,3,-8,0,0,0,0,0,0
5155,1,-8,0,0,0,0,0,0
5156,3,-8,-1,0,0,0,0,0
5157,4,-7,0,0,0,0,0,0
5158,1,-8,0,0,0,0,0,0
5159,3,-7,0,0,0,0,0,0
5160,3,-6,0,0,0,0,0,0
5161,2,-7,-1,0,0,0,0,0
5162,2,-6,0,0,0,0,0,0
5163,4,-7,1,0,0,0,0,0
5164,4,-8,-1,0,0,0,0,0
5165,4,-7,-1,0,0,0,0,0
5166,3,-7,0,0,0,0,0,0
5167,3,-7,0,0,0,0,0,0
5168,3,-7,0,0,0,0,0,0
5169,3,-8,0,0,0,0,0,0
5170,3,-8,0,0,0,0,0,0
5171,4,-8,-1,0,0,0,0,0
5172,2,-7,-1,0,0,0,0,0
5173,1,-9,2,0,0,0,0,0
5174,4,-8,-1,0,0,0,0,0
5175,3,-6,0,0,0,0,0,0
5176,3,-6,0,0,0,0,0,0
5177,2,-7,0,0,0,0,0,0
5178,2,-7,-1,0,0,0,0,0
5179,3,-8,-1,0,0,0,0,0
5180,2,-7,0,0,0,0,0,0
5181,1,-8,0,0,0,0,0,0
5182,2,-8,0,0,0,0,0,0
5183,3,-8,-1,0,0,0,0,0
5184,3,-7,-1,0,0,0,0,0
5185,3,-7,-2,0,0,0,0,0
5186,3,-7,0,0,0,0,0,0
5187,2,-7,1,0,0,0,0,0
5188,2,-7,-256,0,0,0,0,0
5189,5,-5,0,0,0,0,0,0
5190,0,-9,1,0,0,0,0,0
5191,3,-7,-1,0,0,0,0,0
5192,1,-7,0,0,0,0,0,0
5193,1,-9,-1,0,0,0,0,0
5194,3,-7,-1,0,0,0,0,0
5195,2,-7,0,0,0,0,0,0
5196,2,-6,-1,0,0,0,0,0
5197,1,-6,-1,0,0,0,0,0
5198,3,-8,0,0,0,0,0,0
5199,3,-7,-1,0,0,0,0,0
5200,3,-8,0,0,0,0,0,0
5201,3,-6,1,0,0,0,0,0
5202,3,-7,0,0,0,0,0,0
5203,4,-8,0,0,0,0,0,0
5204,3,-7,-1,0,0,0,0,0
5205,3,-8,0,0,0,0,0,0
5206,3,-8,-1,0,0,0,0,0
5207,3,-9,-1,0,0,0,0,0
5208,3,-7,0,0,0,0,0,0
5209,4,-9,1,0,0,0,0,0
5210,3,-8,0,0,0,0,0,0
5211,1,-7,0,0,0,0,0,0
5212,2,-8,0,0,0,0,0,0
5213,3,-6,-1,0,0,0,0,0
