index,date,ACCEL_X,ACCEL_Y,ACCEL_Z,1,2,3,4,5
0,1765895323020,-263,8412,-656,0,0,0,0,0
1,1765895323070,-199,8496,-609,0,0,0,0,0
2,1765895323121,-206,8472,-640,0,0,0,0,0
3,1765895323171,-252,8446,-660,0,0,0,0,0
4,1765895323220,-239,8423,-645,0,0,0,0,0
5,1765895323270,-196,8402,-699,0,0,0,0,0
6,1765895323320,-236,8565,-634,0,0,0,0,0
7,1765895323371,-174,8418,-632,0,0,0,0,0
8,1765895323419,-269,8429,-686,0,0,0,0,0
9,1765895323470,-194,8466,-666,0,0,0,0,0
10,1765895323521,-194,8469,-653,0,0,0,0,0
11,1765895323570,-214,8472,-616,0,0,0,0,0
12,1765895323620,-262,8406,-632,0,0,0,0,0
13,1765895323670,-247,8427,-648,0,0,0,0,0
14,1765895323719,-191,8502,-676,0,0,0,0,0
15,1765895323770,-219,8412,-706,0,0,0,0,0
16,1765895323820,-247,8455,-654,0,0,0,0,0
17,1765895323870,-272,8362,-684,0,0,0,0,0
18,1765895323921,-515,7631,-971,0,0,0,0,0
19,1765895324053,-2,8460,-636,0,0,0,0,0
20,1765895325800,-236,8420,-675,0,0,0,0,0
21,1765895327183,-206,8368,-719,0,0,0,0,0
22,1765895459339,-192,8427,-660,0,0,0,0,0
23,1765895459421,-203,8403,-650,0,0,0,0,0
24,1765895459571,-250,8449,-674,0,0,0,0,0
25,1765895459672,-217,8449,-634,0,0,0,0,0
26,1765895459806,-195,8408,-658,0,0,0,0,0
27,1765895459905,-246,8445,-684,0,0,0,0,0
28,1765895460022,-244,8467,-634,0,0,0,0,0
29,1765895460154,-208,8407,-632,0,0,0,0,0
30,1765895460254,-215,8431,-646,0,0,0,0,0
31,1765895461003,-222,8430,-631,0,0,0,0,0
32,1765895462536,-216,8362,-646,0,0,0,0,0
33,1765895466698,-205,8427,-635,0,0,0,0,0
34,1765895467065,-222,8448,-642,0,0,0,0,0
35,1765895469946,-233,8424,-639,0,0,0,0,0
36,1765895471611,-226,8439,-642,0,0,0,0,0
37,1765895475707,-214,8512,-680,0,0,0,0,0
38,1765895476773,-207,8442,-609,0,0,0,0,0
39,1765895486565,-236,8453,-644,0,0,0,0,0
40,1765895490412,-216,8428,-644,0,0,0,0,0
41,1765895499640,-226,8442,-639,0,0,0,0,0
42,1765895501370,-230,8423,-633,0,0,0,0,0
43,1765895502920,-226,8386,-650,0,0,0,0,0
44,1765895505350,-194,8412,-646,0,0,0,0,0
45,1765895507714,-222,8394,-629,0,0,0,0,0
46,1765895512246,-115,8649,-162,0,0,0,0,0
47,1765895513826,-105,8990,-372,0,0,0,0,0
48,1765895517256,-86,8526,-754,0,0,0,0,0
49,1765895517690,-176,8137,-404,0,0,0,0,0
50,1765895520986,169,8513,-613,0,0,0,0,0
51,1765895530047,-35,8839,-451,0,0,0,0,0
52,1765895534892,-153,7861,-86,0,0,0,0,0
53,1765895535275,-448,8221,-396,0,0,0,0,0
54,1765895537257,-679,8650,-378,0,0,0,0,0
55,1765895540290,-1098,7945,-196,0,0,0,0,0
56,1765895544584,-622,7711,-426,0,0,0,0,0
57,1765895545001,-474,7102,-494,0,0,0,0,0
58,1765895550796,-1164,8339,-507,0,0,0,0,0
59,1765895556074,-922,8777,-782,0,0,0,0,0
60,1765895556425,226,7313,-608,0,0,0,0,0
61,1765895559622,-310,8636,-458,0,0,0,0,0
62,1765895561437,-214,8716,-662,0,0,0,0,0
63,1765895566168,-206,8356,25,0,0,0,0,0
64,1765895574375,-516,8247,-488,0,0,0,0,0
65,1765895577308,-880,8668,-732,0,0,0,0,0
66,1765895581571,-2214,8244,-791,0,0,0,0,0
67,1765895582255,-2126,9452,-314,0,0,0,0,0
68,1765895582652,-1344,8702,-292,0,0,0,0,0
69,1765895583386,-762,8176,-128,0,0,0,0,0
70,1765895592411,1152,8380,-242,0,0,0,0,0
71,1765895594242,-1861,8354,-566,0,0,0,0,0
72,1765895595825,-1372,7995,-704,0,0,0,0,0
73,1765895609649,-1490,9367,-251,0,0,0,0,0
74,1765895610063,2274,8641,-1108,0,0,0,0,0
75,1765895615342,-913,8517,-964,0,0,0,0,0
76,1765895616941,-326,7760,-719,0,0,0,0,0
77,1765895622438,-188,8427,-363,0,0,0,0,0
78,1765895622821,-206,8421,-353,0,0,0,0,0
79,1765895623020,-180,8416,-380,0,0,0,0,0
80,1765895626866,-205,8439,-349,0,0,0,0,0
81,1765895631029,-214,8432,-382,0,0,0,0,0
82,1765895632112,-245,8446,-346,0,0,0,0,0
83,1765895635430,-201,8453,-350,0,0,0,0,0
84,1765895635875,-212,8460,-372,0,0,0,0,0
85,1765895636275,-258,8480,-269,0,0,0,0,0
86,1765895636457,-182,8384,-342,0,0,0,0,0
87,1765895639107,-223,8311,-314,0,0,0,0,0
88,1765895639489,-209,8471,-313,0,0,0,0,0
89,1765895641155,-205,8431,-347,0,0,0,0,0
90,1765895642452,-205,8469,-353,0,0,0,0,0
91,1765895644915,-212,8406,-351,0,0,0,0,0
92,1765895650893,-232,8389,-326,0,0,0,0,0
93,1765895654706,-203,8442,-366,0,0,0,0,0
94,1765895657204,-211,8418,-354,0,0,0,0,0
95,1765895658886,-207,8441,-384,0,0,0,0,0
96,1765895662594,-195,8409,-351,0,0,0,0,0
97,1765895663751,-199,8430,-372,0,0,0,0,0
98,1765895672558,-197,8415,-353,0,0,0,0,0
99,1765895676622,-220,8579,-372,0,0,0,0,0
100,1765895679054,-196,8412,-341,0,0,0,0,0
101,1765895679937,-199,8433,-356,0,0,0,0,0
102,1765895680401,-202,8392,-346,0,0,0,0,0
103,1765895680802,-219,8400,-360,0,0,0,0,0
104,1765895683902,-194,8403,-369,0,0,0,0,0
105,1765895684268,-193,8418,-349,0,0,0,0,0
106,1765895688049,-208,8423,-366,0,0,0,0,0
107,1765895689130,-179,8421,-360,0,0,0,0,0
108,1765895691179,-230,10980,24175,0,0,0,0,0
109,1765895694709,-177,8427,-363,0,0,0,0,0
110,1765895700405,-216,8413,-361,0,0,0,0,0
111,1765895704268,-208,8432,-334,0,0,0,0,0
112,1765895717042,-206,8398,-351,0,0,0,0,0
113,1765895722136,-188,8408,-356,0,0,0,0,0
114,1765895725018,-214,8415,-350,0,0,0,0,0
115,1765895727444,-210,8413,-349,0,0,0,0,0
116,1765895730376,-207,8432,-344,0,0,0,0,0
117,1765895736505,-208,8424,-355,0,0,0,0,0
118,1765895737887,-190,8411,-348,0,0,0,0,0
119,1765895739835,-197,8427,-337,0,0,0,0,0
120,1765895742232,-188,8416,-356,0,0,0,0,0
121,1765895747678,-195,8424,-373,0,0,0,0,0
122,1765895748094,-222,8400,-353,0,0,0,0,0
123,1765895749060,-206,8429,-370,0,0,0,0,0
124,1765895753140,-213,8404,-336,0,0,0,0,0
125,1765895757487,-186,8261,-379,0,0,0,0,0
126,1765895759919,-251,8395,-395,0,0,0,0,0
127,1765895763798,-214,8504,-355,0,0,0,0,0
128,1765895765095,-213,8419,-355,0,0,0,0,0
129,1765895766710,-222,8412,-338,0,0,0,0,0
130,1765895767595,-211,8406,-364,0,0,0,0,0
131,1765895768877,-200,8407,-340,0,0,0,0,0
132,1765895781537,-196,8438,-332,0,0,0,0,0
133,1765895783102,-214,8424,-350,0,0,0,0,0
134,1765895784450,-189,8413,-362,0,0,0,0,0
135,1765895785516,-230,8398,-348,0,0,0,0,0
136,1765895785867,-206,8432,-330,0,0,0,0,0
137,1765895788264,-281,8408,-352,0,0,0,0,0
138,1765895789546,-188,8403,-356,0,0,0,0,0
139,1765895790462,-207,8400,-354,0,0,0,0,0
140,1765895791744,-208,8410,-344,0,0,0,0,0
141,1765895796492,-189,8418,-368,0,0,0,0,0
142,1765895801175,-197,8413,-350,0,0,0,0,0
143,1765895806949,-205,8425,-347,0,0,0,0,0
144,1765895807931,-207,8412,-352,0,0,0,0,0
145,1765895896968,-168,8404,-378,0,0,0,0,0
146,1765895897135,-224,8412,-372,0,0,0,0,0
147,1765895897352,-166,8421,-363,0,0,0,0,0
148,1765895897468,-271,8423,-366,0,0,0,0,0
149,1765895897584,-190,8408,-334,0,0,0,0,0
150,1765895897717,-191,8422,-393,0,0,0,0,0
151,1765895897818,-218,8412,-366,0,0,0,0,0
152,1765895904549,-202,8394,-313,0,0,0,0,0
153,1765895907730,-207,8419,-334,0,0,0,0,0
154,1765895910227,-220,8419,-357,0,0,0,0,0
155,1765895915589,-202,8416,-360,0,0,0,0,0
156,1765895916722,-194,8403,-358,0,0,0,0,0
157,1765895924832,-179,8407,-356,0,0,0,0,0
158,1765895928612,-205,8418,-369,0,0,0,0,0
159,1765895929045,-202,8386,-341,0,0,0,0,0
160,1765895931527,-197,8413,-356,0,0,0,0,0
161,1765895932376,-214,8407,-340,0,0,0,0,0
162,1765895936405,-204,8411,-343,0,0,0,0,0
163,1765895937421,-206,8428,-360,0,0,0,0,0
164,1765895939387,-211,8408,-354,0,0,0,0,0
165,1765895942017,-201,8428,-353,0,0,0,0,0
166,1765895943482,-203,8428,-321,0,0,0,0,0
167,1765895946878,-205,8419,-376,0,0,0,0,0
168,1765895950093,-226,8397,-333,0,0,0,0,0
169,1765895957537,-210,8422,-355,0,0,0,0,0
170,1765895958887,-224,8412,-356,0,0,0,0,0
171,1765895960666,-237,8416,-332,0,0,0,0,0
172,1765895961983,-194,8428,-336,0,0,0,0,0
173,1765895963747,-214,8410,-359,0,0,0,0,0
174,1765895966829,-195,8417,-347,0,0,0,0,0
175,1765895967345,-201,8404,-315,0,0,0,0,0
176,1765895967778,-218,8436,-326,0,0,0,0,0
177,1765895970592,-205,8458,-341,0,0,0,0,0
178,1765895973039,-180,8432,-345,0,0,0,0,0
179,1765895974938,-198,8428,-360,0,0,0,0,0
180,1765895975355,-208,8408,-353,0,0,0,0,0
181,1765895976687,-216,8421,-338,0,0,0,0,0
182,1765895978035,-197,8426,-337,0,0,0,0,0
183,1765895979851,-212,8413,-354,0,0,0,0,0
184,1765895981167,-202,8393,-362,0,0,0,0,0
185,1765895982482,-196,8405,-352,0,0,0,0,0
186,1765895984098,-175,8418,-350,0,0,0,0,0
187,1765895985862,-198,8415,-370,0,0,0,0,0
188,1765895987211,-198,8422,-362,0,0,0,0,0
189,1765895989010,-213,8414,-373,0,0,0,0,0
190,1765895990293,-213,8407,-360,0,0,0,0,0
191,1765895992058,-202,8419,-335,0,0,0,0,0
192,1765895993406,-210,8421,-381,0,0,0,0,0
193,1765895994905,-235,8408,-296,0,0,0,0,0
194,1765895995157,-178,8438,-392,0,0,0,0,0
195,1765895997870,-203,8420,-364,0,0,0,0,0
196,1765895999468,-200,8412,-352,0,0,0,0,0
197,1765896001249,-208,8421,-379,0,0,0,0,0
198,1765896002599,-200,8421,-349,0,0,0,0,0
199,1765896003915,-208,8428,-352,0,0,0,0,0
200,1765896007261,-191,8436,-350,0,0,0,0,0
201,1765896008628,-208,8424,-358,0,0,0,0,0
202,1765896009992,-178,8376,-355,0,0,0,0,0
203,1765896010442,-195,8442,-337,0,0,0,0,0
204,1765896011725,-187,8427,-356,0,0,0,0,0
205,1765896015122,-218,8488,-340,0,0,0,0,0
206,1765896016936,-196,8412,-380,0,0,0,0,0
207,1765896018068,-247,8291,-262,0,0,0,0,0
208,1765896019818,-73,8491,-411,0,0,0,0,0
209,1765896021167,-470,8566,-469,0,0,0,0,0
210,1765896022465,-202,8394,-362,0,0,0,0,0
211,1765896022916,-210,8451,-364,0,0,0,0,0
212,1765896024280,-193,8414,-354,0,0,0,0,0
213,1765896027228,-186,8526,-317,0,0,0,0,0
214,1765896028561,-168,8398,-344,0,0,0,0,0
215,1765896029009,-226,8409,-356,0,0,0,0,0
216,1765896030359,-167,8366,-317,0,0,0,0,0
217,1765896033939,-210,8418,-350,0,0,0,0,0
218,1765896036854,-230,8390,-356,0,0,0,0,0
219,1765896041284,-196,8431,-346,0,0,0,0,0
220,1765896043083,-220,8416,-329,0,0,0,0,0
221,1765896046539,-203,8418,-345,0,0,0,0,0
222,1765896046564,-213,8391,-309,0,0,0,0,0
223,1765896047776,-199,8412,-354,0,0,0,0,0
224,1765896053805,-187,8422,-321,0,0,0,0,0
225,1765896055603,-220,8368,-359,0,0,0,0,0
226,1765896058235,-202,8373,-334,0,0,0,0,0
227,1765896058667,-241,8414,-351,0,0,0,0,0
228,1765896060000,-180,8351,-363,0,0,0,0,0
229,1765896061315,-208,8415,-342,0,0,0,0,0
230,1765896064629,-159,8382,-334,0,0,0,0,0
231,1765896066428,-158,8389,-342,0,0,0,0,0
232,1765896067743,-198,8389,-348,0,0,0,0,0
233,1765896069092,-243,8341,-362,0,0,0,0,0
234,1765896071141,-209,8400,-313,0,0,0,0,0
235,1765896072472,-194,8418,-328,0,0,0,0,0
236,1765896074320,-192,8408,-342,0,0,0,0,0
237,1765896075553,-214,8402,-338,0,0,0,0,0
238,1765896087077,-207,8398,-356,0,0,0,0,0
239,1765896087161,-199,-18022,24439,0,0,0,0,0
240,1765896087309,-222,8454,-371,0,0,0,0,0
241,1765896087411,-176,9685,-1133,0,0,0,0,0
242,1765896087542,-194,8384,-361,0,0,0,0,0
243,1765896087644,-241,8420,-16755,0,0,0,0,0
244,1765896087778,-211,8408,-404,0,0,0,0,0
245,1765896087893,-189,8380,-385,0,0,0,0,0
246,1765896087992,-189,8432,-327,0,0,0,0,0
247,1765896098401,-229,8386,-379,0,0,0,0,0
248,1765896103582,-211,8403,-347,0,0,0,0,0
249,1765896104579,-202,8411,-351,0,0,0,0,0
250,1765896111423,-208,8410,-348,0,0,0,0,0
251,1765896114622,-168,8308,-310,0,0,0,0,0
252,1765896115954,-223,8461,-322,0,0,0,0,0
253,1765896118236,-245,8404,-271,0,0,0,0,0
254,1765896120169,-227,8409,-335,0,0,0,0,0
255,1765896123111,-220,8412,-336,0,0,0,0,0
256,1765896130226,-216,8395,-353,0,0,0,0,0
257,1765896132325,-200,8384,-347,0,0,0,0,0
258,1765896132672,-226,8403,-296,0,0,0,0,0
259,1765896133372,-187,8407,-362,0,0,0,0,0
260,1765896136203,-200,8372,-328,0,0,0,0,0
261,1765896136571,-197,8385,-359,0,0,0,0,0
262,1765896139168,-202,8408,-340,0,0,0,0,0
263,1765896140467,-196,8431,-325,0,0,0,0,0
264,1765896140800,-136,8441,-264,0,0,0,0,0
265,1765896142115,-231,8408,-360,0,0,0,0,0
266,1765896143813,-206,8399,-328,0,0,0,0,0
267,1765896145944,-182,8366,-312,0,0,0,0,0
268,1765896148260,-165,8403,-348,0,0,0,0,0
269,1765896150991,-171,8440,-378,0,0,0,0,0
270,1765896152273,-179,8350,-330,0,0,0,0,0
271,1765896154687,-210,8399,-338,0,0,0,0,0
272,1765896157720,-208,8375,-330,0,0,0,0,0
273,1765896159300,-226,8357,-339,0,0,0,0,0
274,1765896159683,-211,8418,-327,0,0,0,0,0
275,1765896161249,-174,8376,-316,0,0,0,0,0
276,1765896163997,-197,8366,-324,0,0,0,0,0
277,1765896164413,-194,8390,-340,0,0,0,0,0
278,1765896165594,-206,8399,-350,0,0,0,0,0
279,1765896166762,-210,8405,-340,0,0,0,0,0
280,1765896169725,-214,8386,-351,0,0,0,0,0
281,1765896171274,-192,8382,-328,0,0,0,0,0
282,1765896172623,-203,8359,-348,0,0,0,0,0
283,1765896173039,-204,8401,-364,0,0,0,0,0
284,1765896174171,-213,8414,-320,0,0,0,0,0
285,1765896176489,-210,8382,-336,0,0,0,0,0
286,1765896181516,-217,8420,-1002,0,0,0,0,0
287,1765896183031,-192,8413,-333,0,0,0,0,0
288,1765896188242,-234,8408,-350,0,0,0,0,0
289,1765896196632,-424,8346,117,0,0,0,0,0
290,1765896197764,-212,8140,27,0,0,0,0,0
291,1765896200212,-522,8179,-820,0,0,0,0,0
292,1765896207893,-352,7759,-621,0,0,0,0,0
293,1765896213288,-417,8306,-733,0,0,0,0,0
294,1765896216736,-494,8442,-738,0,0,0,0,0
295,1765896217718,-485,8288,-755,0,0,0,0,0
296,1765896224312,-392,8382,-504,0,0,0,0,0
297,1765896226360,-388,8381,-492,0,0,0,0,0
298,1765896228241,-400,8386,-490,0,0,0,0,0
299,1765896231073,-408,8400,-500,0,0,0,0,0
300,1765896231407,-404,8399,-496,0,0,0,0,0
301,1765896235952,-404,8390,-501,0,0,0,0,0
302,1765896240331,-420,8404,-509,0,0,0,0,0
303,1765896251022,-404,8366,-507,0,0,0,0,0
304,1765896251539,-395,8400,-500,0,0,0,0,0
305,1765896255902,-403,8388,-485,0,0,0,0,0
306,1765896257150,-390,8369,-499,0,0,0,0,0
307,1765896257567,-413,8400,-500,0,0,0,0,0
308,1765896258967,-391,8378,-491,0,0,0,0,0
309,1765896264078,-387,8394,-502,0,0,0,0,0
310,1765896266037,-411,8375,-500,0,0,0,0,0
311,1765896267410,-2043,8383,-496,0,0,0,0,0
312,1765896272288,-306,168,-526,0,0,0,0,0
313,1765896276002,-422,8374,-498,0,0,0,0,0
314,1765896277967,-317,8450,-540,0,0,0,0,0
315,1765896278218,-432,8374,-484,0,0,0,0,0
316,1765896278301,-420,8357,-478,0,0,0,0,0
317,1765896278435,-381,8402,-489,0,0,0,0,0
318,1765896278534,-398,8385,-488,0,0,0,0,0
319,1765896278666,-421,8356,-489,0,0,0,0,0
320,1765896280281,-406,8364,-508,0,0,0,0,0
321,1765896281021,-398,8381,-476,0,0,0,0,0
322,1765896281114,-400,8370,-508,0,0,0,0,0
323,1765896287560,-398,8373,-486,0,0,0,0,0
324,1765896296902,-408,8384,-508,0,0,0,0,0
325,1765896296985,-399,8382,-510,0,0,0,0,0
326,1765896297135,-368,8384,-497,0,0,0,0,0
327,1765896297235,-390,8387,-511,0,0,0,0,0
328,1765896297369,-430,8371,-492,0,0,0,0,0
329,1765896297467,-398,8384,-509,0,0,0,0,0
330,1765896297585,-371,8395,-508,0,0,0,0,0
331,1765896297718,-420,8357,-496,0,0,0,0,0
332,1765896297818,-416,8384,-502,0,0,0,0,0
333,1765896297901,-415,8377,-505,0,0,0,0,0
334,1765896303661,-404,8382,-493,0,0,0,0,0
335,1765896305426,-402,8380,-483,0,0,0,0,0
336,1765896307127,-396,8389,-489,0,0,0,0,0
337,1765896307491,-401,8373,-488,0,0,0,0,0
338,1765896311805,-388,8399,-494,0,0,0,0,0
339,1765896313154,-406,8397,-494,0,0,0,0,0
340,1765896317383,-402,8385,-487,0,0,0,0,0
341,1765896320033,-384,8369,-478,0,0,0,0,0
342,1765896321681,-408,8394,-495,0,0,0,0,0
343,1765896325111,-411,8346,-542,0,0,0,0,0
344,1765896334502,-765,9278,-301,0,0,0,0,0
345,1765896334802,-602,8208,-458,0,0,0,0,0
346,1765896335251,90,7952,-385,0,0,0,0,0
347,1765896342660,-1303,7590,-35,0,0,0,0,0
348,1765896346242,-130,8520,-192,0,0,0,0,0
349,1765896346592,-596,8764,-299,0,0,0,0,0
350,1765896347009,-798,8259,-794,0,0,0,0,0
351,1765896349623,-957,8471,-889,0,0,0,0,0
352,1765896350254,-1173,9034,-3479,0,0,0,0,0
353,1765896350622,-567,7885,-2996,0,0,0,0,0
354,1765896351505,-422,8384,-642,0,0,0,0,0
355,1765896352937,-433,8345,-516,0,0,0,0,0
356,1765896355835,-432,8376,-434,0,0,0,0,0
357,1765896358282,-423,8402,-462,0,0,0,0,0
358,1765896358666,-448,8382,-420,0,0,0,0,0
359,1765896360081,-440,8379,-484,0,0,0,0,0
360,1765896362630,161,7960,228,0,0,0,0,0
361,1765896363911,-256,8886,96,0,0,0,0,0
362,1765896363928,-271,7922,-238,0,0,0,0,0
363,1765896364826,-481,7993,-157,0,0,0,0,0
364,1765896369357,-417,8408,-376,0,0,0,0,0
365,1765896371621,-514,8355,-456,0,0,0,0,0
366,1765896372020,-416,8446,-405,0,0,0,0,0
367,1765896372820,-437,8362,-415,0,0,0,0,0
368,1765896373220,-500,8464,-243,0,0,0,0,0
369,1765896376798,104,7964,990,0,0,0,0,0
370,1765896380696,7,9294,-79,0,0,0,0,0
371,1765896381745,2803,8007,-1139,0,0,0,0,0
372,1765896384028,2156,9342,110,0,0,0,0,0
373,1765896386876,-3185,7624,-610,0,0,0,0,0
374,1765896387240,-2005,7713,-614,0,0,0,0,0
375,1765896388891,-3216,7464,-555,0,0,0,0,0
376,1765896390555,-8392,7150,-7844,0,0,0,0,0
377,1765896391554,-1100,8949,-586,0,0,0,0,0
378,1765896393441,-2029,8470,650,0,0,0,0,0
379,1765896394886,-1063,8392,92,0,0,0,0,0
380,1765896397016,-2439,8429,-259,0,0,0,0,0
381,1765896400097,4582,7666,-2642,0,0,0,0,0
382,1765896401862,3361,8766,-476,0,0,0,0,0
383,1765896402761,3290,7119,-1436,0,0,0,0,0
384,1765896409323,-1912,8064,-340,0,0,0,0,0
385,1765896411071,-3434,6974,181,0,0,0,0,0
386,1765896411870,-2287,8958,-92,0,0,0,0,0
387,1765896412370,30731,8170,-2902,0,0,0,0,0
388,1765896414053,-1280,9581,-570,0,0,0,0,0
389,1765896418665,365,8541,-59,0,0,0,0,0
390,1765896429723,-555,7289,855,0,0,0,0,0
391,1765896431737,-1370,10276,-1292,0,0,0,0,0
392,1765896432785,-1958,9752,-2607,0,0,0,0,0
393,1765896435367,764,8210,-474,0,0,0,0,0
394,1765896439297,650,8366,-816,0,0,0,0,0
395,1765896443777,-1116,8524,-1062,0,0,0,0,0
396,1765896447091,-264,8399,-446,0,0,0,0,0
397,1765896448026,-238,8408,-438,0,0,0,0,0
398,1765896450871,-266,8436,-427,0,0,0,0,0
399,1765896452603,-232,8355,-424,0,0,0,0,0
400,1765896455233,-262,8383,-437,0,0,0,0,0
401,1765896455616,-259,8394,-440,0,0,0,0,0
402,1765896464276,-258,8412,-434,0,0,0,0,0
403,1765896465058,-246,8376,-438,0,0,0,0,0
404,1765896469490,-260,8407,-438,0,0,0,0,0
405,1765896469839,-241,8382,-425,0,0,0,0,0
406,1765896470855,-244,8399,-451,0,0,0,0,0
407,1765896472786,-236,8385,-424,0,0,0,0,0
408,1765896474234,-239,8394,-443,0,0,0,0,0
409,1765896475267,-228,8414,-447,0,0,0,0,0
410,1765896477374,-253,8378,-438,0,0,0,0,0
411,1765896478296,-259,8395,-416,0,0,0,0,0
412,1765896483543,-281,8449,-462,0,0,0,0,0
413,1765896483992,-252,8425,-444,0,0,0,0,0
414,1765896488389,-238,8382,-451,0,0,0,0,0
415,1765896488505,-246,8394,-437,0,0,0,0,0
416,1765896488621,-266,8425,-410,0,0,0,0,0
417,1765896488721,-256,8391,-425,0,0,0,0,0
418,1765896488838,-261,8390,-435,0,0,0,0,0
419,1765896488920,-256,8387,-431,0,0,0,0,0
420,1765896489071,-240,8390,-445,0,0,0,0,0
421,1765896489137,-241,8401,-454,0,0,0,0,0
422,1765896490004,-255,8391,-453,0,0,0,0,0
423,1765896490020,-252,8399,-428,0,0,0,0,0
424,1765896490036,-255,8364,-436,0,0,0,0,0
425,1765896490220,-252,8386,-422,0,0,0,0,0
426,1765896492885,-253,8383,-440,0,0,0,0,0
427,1765896493368,-252,8376,-440,0,0,0,0,0
428,1765896493867,-257,8399,-431,0,0,0,0,0
429,1765896494201,-238,8408,-440,0,0,0,0,0
430,1765896494483,-242,8410,-439,0,0,0,0,0
431,1765896494884,-257,8359,-454,0,0,0,0,0
432,1765896497615,-252,8417,-427,0,0,0,0,0
433,1765896502269,-231,8370,-446,0,0,0,0,0
434,1765896502293,-251,8430,-452,0,0,0,0,0
435,1765896504477,-252,8401,-444,0,0,0,0,0
436,1765896505007,-277,8382,-425,0,0,0,0,0
437,1765896505290,-259,8366,-440,0,0,0,0,0
438,1765896505559,-269,8397,-426,0,0,0,0,0
439,1765896506474,-235,8398,-442,0,0,0,0,0
440,1765896511070,-289,8366,-444,0,0,0,0,0
441,1765896511420,-256,8409,-446,0,0,0,0,0
442,1765896511587,-232,8380,-442,0,0,0,0,0
443,1765896511853,-258,8384,-448,0,0,0,0,0
444,1765896513435,-252,8387,-430,0,0,0,0,0
445,1765896515231,-254,8396,-444,0,0,0,0,0
446,1765896515599,-262,8394,-430,0,0,0,0,0
447,1765896516728,-248,8406,-436,0,0,0,0,0
448,1765896517512,-246,8379,-423,0,0,0,0,0
449,1765896518245,-274,8371,-442,0,0,0,0,0
450,1765896518561,-266,8383,-442,0,0,0,0,0
451,1765896518745,-258,8391,-425,0,0,0,0,0
452,1765896519112,-265,8414,-693,0,0,0,0,0
453,1765896519378,-257,8380,-436,0,0,0,0,0
454,1765896522692,-254,8396,-438,0,0,0,0,0
455,1765896522776,-239,8400,-427,0,0,0,0,0
456,1765896523025,-256,8388,-433,0,0,0,0,0
457,1765896524390,-260,8385,-423,0,0,0,0,0
458,1765896524907,-247,8391,-436,0,0,0,0,0
459,1765896525473,-236,8380,-438,0,0,0,0,0
460,1765896527638,-273,8338,-433,0,0,0,0,0
461,1765896528954,-252,8398,-427,0,0,0,0,0
462,1765896529004,-253,8400,-440,0,0,0,0,0
463,1765896529905,-253,8398,-428,0,0,0,0,0
464,1765896529905,-247,8384,-430,0,0,0,0,0
465,1765896530203,-250,8393,-434,0,0,0,0,0
466,1765896530368,-245,8404,-440,0,0,0,0,0
467,1765896530568,-252,8380,-442,0,0,0,0,0
468,1765896530618,-254,8389,-440,0,0,0,0,0
469,1765896532667,-253,8382,-439,0,0,0,0,0
470,1765896534383,-260,8447,-435,0,0,0,0,0
471,1765896535153,-254,8402,-446,0,0,0,0,0
472,1765896535348,-246,8384,-433,0,0,0,0,0
473,1765896535531,-252,8396,-418,0,0,0,0,0
474,1765896535931,-277,8359,-436,0,0,0,0,0
475,1765896537581,-248,8404,-435,0,0,0,0,0
476,1765896537713,-264,8405,-434,0,0,0,0,0
477,1765896537963,-238,8333,-459,0,0,0,0,0
478,1765896538396,-264,8388,-432,0,0,0,0,0
479,1765896733430,-229,8406,-440,0,0,0,0,0
480,1765896733579,-252,8410,-464,0,0,0,0,0
481,1765896733646,-275,8406,-457,0,0,0,0,0
482,1765896733797,-244,8396,-462,0,0,0,0,0
483,1765896733879,-220,8410,-448,0,0,0,0,0
484,1765896734013,-251,8410,-463,0,0,0,0,0
485,1765896734112,-251,8408,-444,0,0,0,0,0
486,1765896734229,-240,8414,-448,0,0,0,0,0
487,1765896734345,-240,8401,-454,0,0,0,0,0
488,1765896736160,-244,8411,-450,0,0,0,0,0
489,1765896991853,-245,8394,-476,0,0,0,0,0
490,1765896992015,-232,8448,-468,0,0,0,0,0
491,1765896992166,-250,8388,-480,0,0,0,0,0
492,1765896992320,-268,8382,-446,0,0,0,0,0
493,1765896992320,-252,8418,-437,0,0,0,0,0
494,1765896992474,-233,8416,-459,0,0,0,0,0
495,1765896992625,-246,8396,-453,0,0,0,0,0
496,1765896992778,-259,8400,-463,0,0,0,0,0
497,1765896992778,-250,8410,-457,0,0,0,0,0
498,1765896993233,-247,8394,-453,0,0,0,0,0
499,1765896993586,-241,8420,-461,0,0,0,0,0
500,1765896998374,-245,8404,-437,0,0,0,0,0
501,1765897001242,-246,8394,-435,0,0,0,0,0
502,1765897006319,-251,8409,-446,0,0,0,0,0
503,1765897009304,-248,8389,-446,0,0,0,0,0
504,1765897009803,-251,8393,-437,0,0,0,0,0
505,1765897010185,-257,8390,-435,0,0,0,0,0
506,1765897010618,-244,8386,-437,0,0,0,0,0
507,1765897011036,-243,8408,-442,0,0,0,0,0
508,1765897021508,-254,8394,-433,0,0,0,0,0
509,1765897027702,-282,8343,-471,0,0,0,0,0
510,1765897029101,-260,8403,-431,0,0,0,0,0
511,1765897029501,-296,8370,-333,0,0,0,0,0
512,1765897029568,-241,8388,-404,0,0,0,0,0
513,1765897029767,-230,8427,-478,0,0,0,0,0
514,1765897029818,-226,8352,-440,0,0,0,0,0
515,1765897029917,-206,8502,-497,0,0,0,0,0
516,1765897030050,-293,8318,-469,0,0,0,0,0
517,1765897030168,-274,8356,-442,0,0,0,0,0
518,1765897030267,-208,8475,-454,0,0,0,0,0
519,1765897030400,-217,8397,-406,0,0,0,0,0
520,1765897030501,-289,8363,-402,0,0,0,0,0
521,1765897030650,-256,8444,-407,0,0,0,0,0
522,1765897030733,-214,8373,-434,0,0,0,0,0
523,1765897030983,-228,8395,-440,0,0,0,0,0
524,1765897031067,-278,8372,-454,0,0,0,0,0
525,1765897031216,-248,8406,-438,0,0,0,0,0
526,1765897031299,-234,8381,-444,0,0,0,0,0
527,1765897031449,-238,8421,-424,0,0,0,0,0
528,1765897031533,-252,8384,-418,0,0,0,0,0
529,1765897031666,-248,8424,-458,0,0,0,0,0
530,1765897031799,-229,8389,-431,0,0,0,0,0
531,1765897031915,-228,8408,-440,0,0,0,0,0
532,1765897031949,-256,8375,-474,0,0,0,0,0
533,1765897032149,-243,8372,-419,0,0,0,0,0
534,1765897032199,-232,8406,-386,0,0,0,0,0
535,1765897032381,-253,8420,-398,0,0,0,0,0
536,1765897032432,-249,8423,-425,0,0,0,0,0
537,1765897032615,-223,8367,-491,0,0,0,0,0
538,1765897032682,-285,8434,-447,0,0,0,0,0
539,1765897032832,-229,8404,-446,0,0,0,0,0
540,1765897032898,-251,8404,-440,0,0,0,0,0
541,1765897032932,-250,8398,-442,0,0,0,0,0
542,1765897033115,-245,8405,-444,0,0,0,0,0
543,1765897033149,-245,8404,-428,0,0,0,0,0
544,1765897033348,-252,8397,-436,0,0,0,0,0
545,1765897033381,-270,8388,-412,0,0,0,0,0
546,1765897033565,-232,8402,-436,0,0,0,0,0
547,1765897033614,-223,8412,-450,0,0,0,0,0
548,1765897033780,-243,8397,-438,0,0,0,0,0
549,1765897033898,-248,8404,-444,0,0,0,0,0
550,1765897033964,-250,8394,-436,0,0,0,0,0
551,1765897034130,-252,8396,-416,0,0,0,0,0
552,1765897034165,-255,8412,-412,0,0,0,0,0
553,1765897034364,-260,8382,-417,0,0,0,0,0
554,1765897034397,-243,8407,-425,0,0,0,0,0
555,1765897034564,-252,8409,-452,0,0,0,0,0
556,1765897034615,-241,8380,-444,0,0,0,0,0
557,1765897034780,-248,8395,-460,0,0,0,0,0
558,1765897034914,-234,8418,-462,0,0,0,0,0
559,1765897034964,-255,8400,-441,0,0,0,0,0
560,1765897035130,-262,8375,-414,0,0,0,0,0
561,1765897035164,-230,8386,-435,0,0,0,0,0
562,1765897035346,-244,8449,-460,0,0,0,0,0
563,1765897035396,-248,8360,-405,0,0,0,0,0
564,1765897035579,-252,8382,-415,0,0,0,0,0
565,1765897036515,-261,8435,-440,0,0,0,0,0
566,1765897036534,-235,8380,-434,0,0,0,0,0
567,1765897036534,-238,8418,-413,0,0,0,0,0
568,1765897036534,-234,8425,-424,0,0,0,0,0
569,1765897036550,-252,8382,-428,0,0,0,0,0
570,1765897036550,-258,8364,-408,0,0,0,0,0
571,1765897036550,-262,8421,-446,0,0,0,0,0
572,1765897036550,-243,8433,-445,0,0,0,0,0
573,1765897036564,-234,8378,-460,0,0,0,0,0
574,1765897036629,-256,8354,-444,0,0,0,0,0
575,1765897036744,-254,8434,-436,0,0,0,0,0
576,1765897036878,-281,8380,-428,0,0,0,0,0
577,1765897036944,-267,8417,-450,0,0,0,0,0
578,1765897037078,-220,8385,-430,0,0,0,0,0
579,1765897037294,-255,8414,-442,0,0,0,0,0
580,1765897037411,-282,8406,-439,0,0,0,0,0
581,1765897037498,-255,8368,-448,0,0,0,0,0
582,1765897037644,-226,8408,-425,0,0,0,0,0
583,1765897037727,-219,8448,-453,0,0,0,0,0
584,1765897037811,-271,8387,-422,0,0,0,0,0
585,1765897037961,-268,8359,-420,0,0,0,0,0
586,1765897038030,-218,8418,-451,0,0,0,0,0
587,1765897038194,-241,8420,-442,0,0,0,0,0
588,1765897038228,-256,8361,-446,0,0,0,0,0
589,1765897039160,-234,8372,-433,0,0,0,0,0
590,1765897039711,-247,8430,-404,0,0,0,0,0
591,1765897039992,-264,8358,-448,0,0,0,0,0
592,1765897042754,-264,8402,-440,0,0,0,0,0
593,1765897042888,-230,8401,-452,0,0,0,0,0
594,1765897044936,-256,8414,-422,0,0,0,0,0
595,1765897045370,-242,8288,-394,0,0,0,0,0
596,1765897045802,-222,8469,-451,0,0,0,0,0
597,1765897047617,-235,8401,-429,0,0,0,0,0
598,1765897047634,-303,8362,-412,0,0,0,0,0
599,1765897047635,-230,8442,-396,0,0,0,0,0
600,1765897047651,-242,8346,-427,0,0,0,0,0
601,1765897048766,-225,8402,-426,0,0,0,0,0
602,1765897049033,-210,8397,-446,0,0,0,0,0
603,1765897049415,-259,8372,-449,0,0,0,0,0
604,1765897050498,-216,8386,-455,0,0,0,0,0
605,1765897051148,-251,8384,-423,0,0,0,0,0
606,1765897051530,-250,8392,-427,0,0,0,0,0
607,1765897051748,-246,8378,-429,0,0,0,0,0
608,1765897052131,-281,8392,-406,0,0,0,0,0
609,1765897052264,-262,8416,-446,0,0,0,0,0
610,1765897052530,-264,8400,-443,0,0,0,0,0
611,1765897052579,-230,8404,-436,0,0,0,0,0
612,1765897052896,-248,8394,-428,0,0,0,0,0
613,1765897052962,-239,8400,-423,0,0,0,0,0
614,1765897053112,-268,8380,-438,0,0,0,0,0
615,1765897053545,-222,8396,-406,0,0,0,0,0
616,1765897053629,-241,8404,-446,0,0,0,0,0
617,1765897054046,-258,8405,-420,0,0,0,0,0
618,1765897054412,-246,8393,-443,0,0,0,0,0
619,1765897054611,-239,8389,-433,0,0,0,0,0
620,1765897056693,-255,8393,-428,0,0,0,0,0
621,1765897057128,-246,8381,-446,0,0,0,0,0
622,1765897058643,-241,8424,-473,0,0,0,0,0
623,1765897059943,-248,8412,-418,0,0,0,0,0
624,1765897061574,-233,8373,-428,0,0,0,0,0
625,1765897061957,-286,8380,-420,0,0,0,0,0
626,1765897063022,-234,8381,-431,0,0,0,0,0
627,1765897064453,-291,8364,-417,0,0,0,0,0
628,1765897067835,-235,8408,-431,0,0,0,0,0
629,1765897068567,-252,8394,-442,0,0,0,0,0
630,1765897068701,-240,8401,-434,0,0,0,0,0
631,1765897069729,-242,8392,-438,0,0,0,0,0
632,1765897069729,-247,8392,-441,0,0,0,0,0
633,1765897069742,-253,8382,-431,0,0,0,0,0
634,1765897069755,-251,8388,-439,0,0,0,0,0
635,1765897069767,-248,8396,-433,0,0,0,0,0
636,1765897069834,-244,8397,-438,0,0,0,0,0
637,1765897070198,-252,8398,-430,0,0,0,0,0
638,1765897070381,-260,8392,-437,0,0,0,0,0
639,1765897070431,-244,8399,-430,0,0,0,0,0
640,1765897071645,-260,8390,-437,0,0,0,0,0
641,1765897071813,-236,8401,-414,0,0,0,0,0
642,1765897072230,-242,8378,-434,0,0,0,0,0
643,1765897073528,-250,8382,-430,0,0,0,0,0
644,1765897073612,-243,8394,-428,0,0,0,0,0
645,1765897074247,-253,8404,-462,0,0,0,0,0
646,1765897075529,-255,8392,-448,0,0,0,0,0
647,1765897077577,-215,8399,-434,0,0,0,0,0
648,1765897079725,-248,8398,-438,0,0,0,0,0
649,1765897080776,-245,8394,-431,0,0,0,0,0
650,1765897080809,-246,8390,-438,0,0,0,0,0
651,1765897081668,-254,8399,-446,0,0,0,0,0
652,1765897081924,-246,8394,-433,0,0,0,0,0
653,1765897082323,-250,8400,-431,0,0,0,0,0
654,1765897082739,-249,8396,-432,0,0,0,0,0
655,1765897083189,-246,8389,-431,0,0,0,0,0
656,1765897084006,-249,8391,-437,0,0,0,0,0
657,1765897084271,-256,8389,-425,0,0,0,0,0
658,1765897084388,-258,8387,-444,0,0,0,0,0
659,1765897084505,-250,8388,-424,0,0,0,0,0
660,1765897084705,-246,8390,-434,0,0,0,0,0
661,1765897085753,-243,8396,-433,0,0,0,0,0
662,1765897088900,-246,8388,-440,0,0,0,0,0
663,1765897089000,-260,8399,-431,0,0,0,0,0
664,1765897089567,-246,8381,-442,0,0,0,0,0
665,1765897090300,-241,8394,-434,0,0,0,0,0
666,1765897091789,-236,8376,-430,0,0,0,0,0
667,1765897092032,-256,8376,-436,0,0,0,0,0
668,1765897092398,-255,8406,-437,0,0,0,0,0
669,1765897095562,-252,8394,-419,0,0,0,0,0
670,1765897097111,-251,8379,-424,0,0,0,0,0
671,1765897097294,-255,8415,-446,0,0,0,0,0
672,1765897098526,-252,8402,-445,0,0,0,0,0
673,1765897098976,-255,8386,-430,0,0,0,0,0
674,1765897099226,-258,8395,-433,0,0,0,0,0
675,1765897099393,-253,8395,-441,0,0,0,0,0
676,1765897100491,-269,8383,-445,0,0,0,0,0
677,1765897100591,-236,8390,-433,0,0,0,0,0
678,1765897101175,-266,8392,-426,0,0,0,0,0
679,1765897103172,-265,8365,-432,0,0,0,0,0
680,1765897105087,-245,8386,-422,0,0,0,0,0
681,1765897109284,-252,8400,-432,0,0,0,0,0
682,1765897109834,-249,8397,-436,0,0,0,0,0
683,1765897110083,-250,8401,-440,0,0,0,0,0
684,1765897110249,-248,8376,-432,0,0,0,0,0
685,1765897110633,-255,8395,-431,0,0,0,0,0
686,1765897110732,-249,8398,-444,0,0,0,0,0
687,1765897111132,-242,8385,-431,0,0,0,0,0
688,1765897111248,-264,8386,-433,0,0,0,0,0
689,1765897111633,-252,8379,-434,0,0,0,0,0
690,1765897111781,-242,8374,-422,0,0,0,0,0
691,1765897112047,-244,8384,-438,0,0,0,0,0
692,1765897112547,-249,8426,-427,0,0,0,0,0
693,1765897112780,-244,8371,-453,0,0,0,0,0
694,1765897114037,-259,8363,-430,0,0,0,0,0
695,1765897114054,-247,8392,-430,0,0,0,0,0
696,1765897114054,-248,8385,-437,0,0,0,0,0
697,1765897115513,-253,8388,-433,0,0,0,0,0
698,1765897119742,-239,8402,-434,0,0,0,0,0
699,1765897120141,-267,8387,-435,0,0,0,0,0
700,1765897125720,-310,8394,-450,0,0,0,0,0
701,1765897126288,-250,8412,-441,0,0,0,0,0
702,1765897126586,-258,8389,-416,0,0,0,0,0
703,1765897126636,-236,8401,-439,0,0,0,0,0
704,1765897126735,-244,8382,-443,0,0,0,0,0
705,1765897127019,-262,8401,-445,0,0,0,0,0
706,1765897127435,-243,8498,-439,0,0,0,0,0
707,1765897127701,-249,8389,-413,0,0,0,0,0
708,1765897127735,-242,8359,-414,0,0,0,0,0
709,1765897127984,-241,8369,-438,0,0,0,0,0
710,1765897128084,-238,8405,-431,0,0,0,0,0
711,1765897128484,-278,8238,584,0,0,0,0,0
712,1765897131648,-376,8228,400,0,0,0,0,0
713,1765897131947,-557,8306,240,0,0,0,0,0
714,1765897132031,-610,8659,-198,0,0,0,0,0
715,1765897132297,-890,8633,-77,0,0,0,0,0
716,1765897134263,-233,8749,-19,0,0,0,0,0
717,1765897137052,-3056,9665,-135,0,0,0,0,0
718,1765897137643,-3404,9208,-410,0,0,0,0,0
719,1765897138242,-2650,7648,-511,0,0,0,0,0
720,1765897139292,-1720,8154,-692,0,0,0,0,0
721,1765897139808,-1838,8656,-336,0,0,0,0,0
722,1765897143354,-1582,9578,-992,0,0,0,0,0
723,1765897143556,-825,8665,-364,0,0,0,0,0
724,1765897143671,-55,8530,-42,0,0,0,0,0
725,1765897143888,-140,7391,-14,0,0,0,0,0
726,1765897144237,678,6433,-81,0,0,0,0,0
727,1765897144654,1195,7738,-700,0,0,0,0,0
728,1765897145020,1205,8123,-511,0,0,0,0,0
729,1765897145404,1426,8442,-924,0,0,0,0,0
730,1765897147081,-557,7013,-429,0,0,0,0,0
731,1765897147537,-56,8650,-302,0,0,0,0,0
732,1765897147801,162,8764,-507,0,0,0,0,0
733,1765897148153,1289,8406,-173,0,0,0,0,0
734,1765897153115,1500,8904,-382,0,0,0,0,0
735,1765897154046,-2138,6620,-242,0,0,0,0,0
736,1765897154764,4526,9087,-1439,0,0,0,0,0
737,1765897155461,1704,7696,-1332,0,0,0,0,0
738,1765897158357,-3392,8098,238,0,0,0,0,0
739,1765897158774,-1142,7825,-322,0,0,0,0,0
740,1765897159027,-1800,6419,973,0,0,0,0,0
741,1765897159257,-4164,6827,-296,0,0,0,0,0
742,1765897160789,-3895,7028,864,0,0,0,0,0
743,1765897160822,-3913,8184,680,0,0,0,0,0
744,1765897161190,-2451,8988,-237,0,0,0,0,0
745,1765897161739,-3786,7995,979,0,0,0,0,0
746,1765897161938,-3422,7950,481,0,0,0,0,0
747,1765897162221,-1794,9584,1086,0,0,0,0,0
748,1765897164069,-1136,8492,-271,0,0,0,0,0
749,1765897165801,-1008,9630,-574,0,0,0,0,0
750,1765897166101,-1222,6732,-724,0,0,0,0,0
751,1765897166384,-1285,7462,-1680,0,0,0,0,0
752,1765897169956,-3404,7037,-81,0,0,0,0,0
753,1765897169972,-4870,8892,-768,0,0,0,0,0
754,1765897169987,-5261,8392,-238,0,0,0,0,0
755,1765897170081,-4298,31622,-288,0,0,0,0,0
756,1765897172729,-1374,7594,-110,0,0,0,0,0
757,1765897173012,128,6569,440,0,0,0,0,0
758,1765897173429,-2053,9173,354,0,0,0,0,0
759,1765897173528,-1066,7704,66,0,0,0,0,0
760,1765897173828,-237,7678,-456,0,0,0,0,0
761,1765897174561,-1297,9778,-639,0,0,0,0,0
762,1765897175977,-889,8924,-1095,0,0,0,0,0
763,1765897176909,641,8756,-263,0,0,0,0,0
764,1765897177008,-529,7697,-1002,0,0,0,0,0
765,1765897177792,-674,9867,-480,0,0,0,0,0
766,1765897178090,-112,7995,-312,0,0,0,0,0
767,1765897178324,-316,8236,-397,0,0,0,0,0
768,1765897178641,-883,8795,-420,0,0,0,0,0
769,1765897178873,-135,8562,-84,0,0,0,0,0
770,1765897179140,-310,8404,-181,0,0,0,0,0
771,1765897179173,-607,7821,-166,0,0,0,0,0
772,1765897179440,-933,8348,-195,0,0,0,0,0
773,1765897179839,-2156,7788,-1250,0,0,0,0,0
774,1765897181131,-2365,8129,-2384,0,0,0,0,0
775,1765897181404,3912,8121,-1463,0,0,0,0,0
776,1765897182670,-3051,9813,-1596,0,0,0,0,0
777,1765897182887,-4668,8100,-1270,0,0,0,0,0
778,1765897183170,-4646,8380,-782,0,0,0,0,0
779,1765897187249,-2228,8224,-370,0,0,0,0,0
780,1765897187516,-2241,6952,37,0,0,0,0,0
781,1765897188033,-1941,7712,-1065,0,0,0,0,0
782,1765897188799,-3408,6564,-965,0,0,0,0,0
783,1765897189498,-3281,5584,-641,0,0,0,0,0
784,1765897189815,-4453,7381,-500,0,0,0,0,0
785,1765897189981,-4199,8224,-1177,0,0,0,0,0
786,1765897190497,-4490,7562,-1044,0,0,0,0,0
787,1765897192165,-2402,8533,364,0,0,0,0,0
788,1765897192196,-658,8576,356,0,0,0,0,0
789,1765897192327,3436,10153,-26,0,0,0,0,0
790,1765897192644,888,6304,-486,0,0,0,0,0
791,1765897195276,3914,8925,-984,0,0,0,0,0
792,1765897195725,-1847,6000,-674,0,0,0,0,0
793,1765897195976,-3855,7928,-417,0,0,0,0,0
794,1765897197974,3934,8952,-439,0,0,0,0,0
795,1765897198590,3006,9263,-1130,0,0,0,0,0
796,1765897199608,5604,9440,-264,0,0,0,0,0
797,1765897200843,2699,9689,-1042,0,0,0,0,0
798,1765897203393,-1696,8708,-148,0,0,0,0,0
799,1765897203554,1116,8664,-130,0,0,0,0,0
800,1765897204470,3194,8764,-2104,0,0,0,0,0
801,1765897204853,120,7790,-1129,0,0,0,0,0
802,1765897205286,-5199,7887,-1805,0,0,0,0,0
803,1765897205453,-5626,8167,-1862,0,0,0,0,0
804,1765897205952,-1170,7833,206,0,0,0,0,0
805,1765897206219,-3256,7606,-364,0,0,0,0,0
806,1765897206803,-3874,8388,-476,0,0,0,0,0
807,1765897207002,-1819,8071,184,0,0,0,0,0
808,1765897207583,-2606,9532,-326,0,0,0,0,0
809,1765897209216,-1431,9764,-99,0,0,0,0,0
810,1765897210099,-1737,8488,-428,0,0,0,0,0
811,1765897211814,-2335,8481,-166,0,0,0,0,0
812,1765897211947,-857,9200,315,0,0,0,0,0
813,1765897212047,-562,8170,235,0,0,0,0,0
814,1765897212313,-348,8416,-470,0,0,0,0,0
815,1765897214647,-1373,7555,-50,0,0,0,0,0
816,1765897215145,-1102,8458,-632,0,0,0,0,0
817,1765897215711,-2009,7671,-291,0,0,0,0,0
818,1765897216409,-1181,7643,-183,0,0,0,0,0
819,1765897216760,-917,8522,326,0,0,0,0,0
820,1765897217675,-1041,7214,-255,0,0,0,0,0
821,1765897220373,-1718,7560,-603,0,0,0,0,0
822,1765897221573,-3358,9197,-1039,0,0,0,0,0
823,1765897226334,-1548,9054,-879,0,0,0,0,0
824,1765897226502,-1123,8519,-1340,0,0,0,0,0
825,1765897228749,-493,10577,-2227,0,0,0,0,0
826,1765897229116,1252,10577,-506,0,0,0,0,0
827,1765897229482,-436,10749,-1102,0,0,0,0,0
828,1765897230431,-597,8119,-1126,0,0,0,0,0
829,1765897232915,-632,7794,-811,0,0,0,0,0
830,1765897233196,-750,8244,-950,0,0,0,0,0
831,1765897234028,-262,9108,-964,0,0,0,0,0
832,1765897234794,-372,8231,-824,0,0,0,0,0
833,1765897237159,-1222,8556,-618,0,0,0,0,0
834,1765897237409,-965,8133,-766,0,0,0,0,0
835,1765897240339,1043,8304,-822,0,0,0,0,0
836,1765897240440,471,8212,-1130,0,0,0,0,0
837,1765897240624,155,7940,-942,0,0,0,0,0
838,1765897241772,-104,8914,-881,0,0,0,0,0
839,1765897242122,-739,8412,-624,0,0,0,0,0
840,1765897242888,-105,7838,-512,0,0,0,0,0
841,1765897245503,-84,8100,-1317,0,0,0,0,0
842,1765897248782,-139,8391,-500,0,0,0,0,0
843,1765897252089,-152,8370,-497,0,0,0,0,0
844,1765897252596,-141,8395,-490,0,0,0,0,0
845,1765897253712,-134,8387,-501,0,0,0,0,0
846,1765897254261,-136,8367,-486,0,0,0,0,0
847,1765897255893,-142,8350,-530,0,0,0,0,0
848,1765897256227,-141,8364,-506,0,0,0,0,0
849,1765897256626,-135,8379,-483,0,0,0,0,0
850,1765897257492,-125,8389,-484,0,0,0,0,0
851,1765897257742,-126,8354,-482,0,0,0,0,0
852,1765897260257,-126,8392,-486,0,0,0,0,0
853,1765897261405,-139,8393,-500,0,0,0,0,0
854,1765897262338,-130,8394,-482,0,0,0,0,0
855,1765897268216,-116,8349,-504,0,0,0,0,0
856,1765897268967,-109,8370,-514,0,0,0,0,0
857,1765897272313,-142,8328,-491,0,0,0,0,0
858,1765897273029,-120,8368,-481,0,0,0,0,0
859,1765897273861,-142,8397,-510,0,0,0,0,0
860,1765897277141,-133,8394,-483,0,0,0,0,0
861,1765897282791,-114,8406,-519,0,0,0,0,0
862,1765897286427,-146,8390,-504,0,0,0,0,0
863,1765897287715,-140,8391,-473,0,0,0,0,0
864,1765897287753,-124,8388,-730,0,0,0,0,0
865,1765897289152,-125,8372,-490,0,0,0,0,0
866,1765897289422,-135,8372,-490,0,0,0,0,0
867,1765897289683,-133,8378,-490,0,0,0,0,0
868,1765897290031,-136,8381,-483,0,0,0,0,0
869,1765897290227,-128,8382,-508,0,0,0,0,0
870,1765897290616,-142,8376,-498,0,0,0,0,0
871,1765897290697,-132,8389,-500,0,0,0,0,0
872,1765897290980,-138,8372,-494,0,0,0,0,0
873,1765897291147,-136,8368,-497,0,0,0,0,0
874,1765897293995,-136,8379,-504,0,0,0,0,0
875,1765897295263,-126,8385,-504,0,0,0,0,0
876,1765897295426,-120,8368,-500,0,0,0,0,0
877,1765897295959,-138,8405,-510,0,0,0,0,0
878,1765897304385,-128,8393,-491,0,0,0,0,0
879,1765897304417,-142,8352,-499,0,0,0,0,0
880,1765897304988,-142,8364,-488,0,0,0,0,0
881,1765897306833,-144,8397,-470,0,0,0,0,0
882,1765897307057,-146,8361,-477,0,0,0,0,0
883,1765897307467,-132,8388,-477,0,0,0,0,0
884,1765897307795,-122,8367,-478,0,0,0,0,0
885,1765897307992,-124,8372,-484,0,0,0,0,0
886,1765897310369,-130,8352,-485,0,0,0,0,0
887,1765897310899,-128,8360,-488,0,0,0,0,0
888,1765897314097,-132,8386,-485,0,0,0,0,0
889,1765897320175,-134,8386,-486,0,0,0,0,0
890,1765897322107,-130,8393,-508,0,0,0,0,0
891,1765897323305,-132,8391,-519,0,0,0,0,0
892,1765897326019,-130,8378,-488,0,0,0,0,0
893,1765897326369,-140,8362,-490,0,0,0,0,0
894,1765897326418,-134,8385,-498,0,0,0,0,0
895,1765897326604,-126,8377,-502,0,0,0,0,0
896,1765897326669,-133,8359,-481,0,0,0,0,0
897,1765897326835,-132,8394,-498,0,0,0,0,0
898,1765897326902,-128,8359,-500,0,0,0,0,0
899,1765897327051,-131,8373,-496,0,0,0,0,0
900,1765897327170,-129,8384,-486,0,0,0,0,0
901,1765897327284,-136,8353,-495,0,0,0,0,0
902,1765897327580,-132,8374,-489,0,0,0,0,0
903,1765897328773,-135,8383,-482,0,0,0,0,0
904,1765897328831,-137,8366,-510,0,0,0,0,0
905,1765897328832,-128,8372,-496,0,0,0,0,0
906,1765897328832,-128,8378,-493,0,0,0,0,0
907,1765897328832,-132,8370,-495,0,0,0,0,0
908,1765897328832,-131,8368,-505,0,0,0,0,0
909,1765897328832,-134,8367,-487,0,0,0,0,0
910,1765897328832,-131,8372,-488,0,0,0,0,0
911,1765897328832,-128,8368,-491,0,0,0,0,0
912,1765897328832,-134,8384,-486,0,0,0,0,0
913,1765897328935,-138,8360,-488,0,0,0,0,0
914,1765897328935,-130,8384,-504,0,0,0,0,0
915,1765897329143,-132,8374,-493,0,0,0,0,0
916,1765897329194,-130,8369,-492,0,0,0,0,0
917,1765897329404,-134,8378,-496,0,0,0,0,0
918,1765897329462,-127,8372,-497,0,0,0,0,0
919,1765897329636,-131,8382,-480,0,0,0,0,0
920,1765897329691,-129,8376,-486,0,0,0,0,0
921,1765897329844,-133,8369,-509,0,0,0,0,0
922,1765897329950,-135,8371,-487,0,0,0,0,0
923,1765897330111,-133,8381,-498,0,0,0,0,0
924,1765897330212,-132,8373,-492,0,0,0,0,0
925,1765897330315,-136,8361,-498,0,0,0,0,0
926,1765897330474,-126,8392,-493,0,0,0,0,0
927,1765897330554,-125,8395,-516,0,0,0,0,0
928,1765897330695,-140,8362,-502,0,0,0,0,0
929,1765897330780,-137,8373,-478,0,0,0,0,0
930,1765897330945,-123,8388,-486,0,0,0,0,0
931,1765897331012,-134,8361,-482,0,0,0,0,0
932,1765897331196,-130,8381,-505,0,0,0,0,0
933,1765897331246,-130,8384,-484,0,0,0,0,0
934,1765897331445,-134,8381,-488,0,0,0,0,0
935,1765897331482,-135,8378,-503,0,0,0,0,0
936,1765897331678,-121,8386,-524,0,0,0,0,0
937,1765897331728,-133,8384,-260,0,0,0,0,0
938,1765897331928,-148,8350,-503,0,0,0,0,0
939,1765897331962,-118,8384,-462,0,0,0,0,0
940,1765897332144,-118,8381,-498,0,0,0,0,0
941,1765897332211,-146,8345,-484,0,0,0,0,0
942,1765897332378,-132,8374,-478,0,0,0,0,0
943,1765897332461,-123,8374,-487,0,0,0,0,0
944,1765897332611,-138,8383,-480,0,0,0,0,0
945,1765897332627,-131,8373,-465,0,0,0,0,0
946,1765897332710,-142,8376,-472,0,0,0,0,0
947,1765897332877,-142,8388,-491,0,0,0,0,0
948,1765897332962,-136,8366,-479,0,0,0,0,0
949,1765897333093,-138,8375,-495,0,0,0,0,0
950,1765897333210,-140,8368,-489,0,0,0,0,0
951,1765897333327,-145,8376,-491,0,0,0,0,0
952,1765897333477,-128,8390,-496,0,0,0,0,0
953,1765897333560,-132,8352,-498,0,0,0,0,0
954,1765897333810,-132,8374,-486,0,0,0,0,0
955,1765897333943,-138,8375,-495,0,0,0,0,0
956,1765897334043,-135,8359,-481,0,0,0,0,0
957,1765897334193,-135,8385,-472,0,0,0,0,0
958,1765897334276,-141,8364,-506,0,0,0,0,0
959,1765897334460,-139,8378,-498,0,0,0,0,0
960,1765897334493,-129,8370,-491,0,0,0,0,0
961,1765897334693,-139,8394,-488,0,0,0,0,0
962,1765897334743,-138,8348,-483,0,0,0,0,0
963,1765897334926,-131,8397,-494,0,0,0,0,0
964,1765897334976,-124,8367,-490,0,0,0,0,0
965,1765897335176,-147,8391,-494,0,0,0,0,0
966,1765897335226,-144,8348,-488,0,0,0,0,0
967,1765897335409,-128,8392,-493,0,0,0,0,0
968,1765897335459,-130,8378,-490,0,0,0,0,0
969,1765897335642,-136,8352,-496,0,0,0,0,0
970,1765897335725,-134,8388,-488,0,0,0,0,0
971,1765897335893,-115,8393,-474,0,0,0,0,0
972,1765897335925,-139,8359,-508,0,0,0,0,0
973,1765897336108,-138,8382,-478,0,0,0,0,0
974,1765897336174,-130,8352,-478,0,0,0,0,0
975,1765897336341,-137,8374,-498,0,0,0,0,0
976,1765897336441,-126,8390,-473,0,0,0,0,0
977,1765897336575,-26,8146,-438,0,0,0,0,0
978,1765897336691,-182,8368,-549,0,0,0,0,0
979,1765897336824,-188,8408,-515,0,0,0,0,0
980,1765897336874,-124,8297,-472,0,0,0,0,0
981,1765897337057,-129,8412,-504,0,0,0,0,0
982,1765897337141,-167,8422,-530,0,0,0,0,0
983,1765897337290,-113,8301,-467,0,0,0,0,0
984,1765897337391,-148,8405,-515,0,0,0,0,0
985,1765897337509,-142,8359,-506,0,0,0,0,0
986,1765897337640,-130,8374,-467,0,0,0,0,0
987,1765897337740,-142,8372,-488,0,0,0,0,0
988,1765897337990,-131,8376,-510,0,0,0,0,0
989,1765897338090,-142,8351,-511,0,0,0,0,0
990,1765897338223,-137,8378,-478,0,0,0,0,0
991,1765897338340,-142,8392,-459,0,0,0,0,0
992,1765897338456,-151,8362,-500,0,0,0,0,0
993,1765897339717,-145,8330,-478,0,0,0,0,0
994,1765897339718,-133,8400,-498,0,0,0,0,0
995,1765897339718,-126,8380,-480,0,0,0,0,0
996,1765897339733,-124,8359,-489,0,0,0,0,0
997,1765897339733,-154,8386,-478,0,0,0,0,0
998,1765897339733,-139,8377,-494,0,0,0,0,0
999,1765897339748,-132,8362,-504,0,0,0,0,0
1000,1765897339748,-142,8372,-484,0,0,0,0,0
1001,1765897339748,-137,8368,-492,0,0,0,0,0
1002,1765897339760,-134,8375,-498,0,0,0,0,0
1003,1765897340254,-130,8388,-491,0,0,0,0,0
1004,1765897340737,-142,8371,-496,0,0,0,0,0
1005,1765897341470,-127,8395,-466,0,0,0,0,0
1006,1765897341603,-154,8455,-473,0,0,0,0,0
1007,1765897341769,-167,8364,-576,0,0,0,0,0
1008,1765897343933,-147,8362,-502,0,0,0,0,0
1009,1765897344383,-150,8362,-473,0,0,0,0,0
1010,1765897345115,-141,8356,-476,0,0,0,0,0
1011,1765897345183,-143,8366,-490,0,0,0,0,0
1012,1765897346183,-130,8376,-479,0,0,0,0,0
1013,1765897346382,-147,8374,-498,0,0,0,0,0
1014,1765897347714,-143,8370,-493,0,0,0,0,0
1015,1765897350729,-112,8369,-499,0,0,0,0,0
1016,1765897350729,-150,8376,-478,0,0,0,0,0
1017,1765897350745,-126,8374,-494,0,0,0,0,0
1018,1765897350844,-135,8378,-484,0,0,0,0,0
1019,1765897351278,-138,8364,-487,0,0,0,0,0
1020,1765897351661,-139,8352,-484,0,0,0,0,0
1021,1765897352027,-136,8368,-486,0,0,0,0,0
1022,1765897352226,-139,8370,-498,0,0,0,0,0
1023,1765897352426,-131,8378,-486,0,0,0,0,0
1024,1765897352975,-140,8364,-475,0,0,0,0,0
1025,1765897353642,-132,8394,-478,0,0,0,0,0
1026,1765897353824,-127,8347,-440,0,0,0,0,0
1027,1765897354274,-148,8370,-498,0,0,0,0,0
1028,1765897354341,-113,8370,-498,0,0,0,0,0
1029,1765897355526,-128,8378,-492,0,0,0,0,0
1030,1765897355623,-157,8370,-499,0,0,0,0,0
1031,1765897359386,-116,8401,-467,0,0,0,0,0
1032,1765897359619,-174,8360,-519,0,0,0,0,0
1033,1765897360169,-132,8341,-480,0,0,0,0,0
1034,1765897363033,-108,8363,-490,0,0,0,0,0
1035,1765897363182,-131,8379,-520,0,0,0,0,0
1036,1765897363267,-148,8384,-496,0,0,0,0,0
1037,1765897363383,-136,8370,-506,0,0,0,0,0
1038,1765897363500,-123,8355,-518,0,0,0,0,0
1039,1765897363583,-136,8386,-506,0,0,0,0,0
1040,1765897363717,-138,8381,-487,0,0,0,0,0
1041,1765897363799,-136,8362,-465,0,0,0,0,0
1042,1765897363949,-118,8357,-470,0,0,0,0,0
1043,1765897364449,-162,8418,-470,0,0,0,0,0
1044,1765897365414,-148,8362,-491,0,0,0,0,0
1045,1765897366297,-160,8402,-492,0,0,0,0,0
1046,1765897366414,-125,8354,-476,0,0,0,0,0
1047,1765897367113,-142,8379,-504,0,0,0,0,0
1048,1765897367330,-136,8364,-492,0,0,0,0,0
1049,1765897367563,-170,8402,-457,0,0,0,0,0
1050,1765897367681,-156,8318,-466,0,0,0,0,0
1051,1765897368095,-146,8403,-491,0,0,0,0,0
1052,1765897368495,-146,8360,-503,0,0,0,0,0
1053,1765897368779,-141,8357,-498,0,0,0,0,0
1054,1765897371193,-129,8374,-490,0,0,0,0,0
1055,1765897371576,-138,8381,-488,0,0,0,0,0
1056,1765897371892,-139,8368,-481,0,0,0,0,0
1057,1765897372059,-145,8387,-504,0,0,0,0,0
1058,1765897372311,-130,8354,-500,0,0,0,0,0
1059,1765897373575,-136,8361,-468,0,0,0,0,0
1060,1765897373590,-147,8374,-488,0,0,0,0,0
1061,1765897376753,-129,8364,-498,0,0,0,0,0
1062,1765897377237,-146,8366,-490,0,0,0,0,0
1063,1765897377520,-136,8382,-488,0,0,0,0,0
1064,1765897377555,-134,8377,-487,0,0,0,0,0
1065,1765897378171,-136,8361,-480,0,0,0,0,0
1066,1765897379903,-116,8375,-483,0,0,0,0,0
1067,1765897381084,-119,8377,-485,0,0,0,0,0
1068,1765897381350,-116,8372,-532,0,0,0,0,0
1069,1765897381384,-158,8381,-501,0,0,0,0,0
1070,1765897381651,-151,8392,-479,0,0,0,0,0
1071,1765897382416,-63,8553,948,0,0,0,0,0
1072,1765897382933,133,8655,1055,0,0,0,0,0
1073,1765897385430,-828,7706,82,0,0,0,0,0
1074,1765897386912,-170,8287,89,0,0,0,0,0
1075,1765897387546,-470,8631,-214,0,0,0,0,0
1076,1765897387679,156,7483,221,0,0,0,0,0
1077,1765897391227,-3172,8694,-160,0,0,0,0,0
1078,1765897391276,-3378,7071,-347,0,0,0,0,0
1079,1765897392159,-2835,8829,-247,0,0,0,0,0
1080,1765897392327,-2868,7925,-539,0,0,0,0,0
1081,1765897393075,-441,8800,-13,0,0,0,0,0
1082,1765897393192,-413,8620,-363,0,0,0,0,0
1083,1765897394275,-82,9600,-206,0,0,0,0,0
1084,1765897396460,2817,7998,-304,0,0,0,0,0
1085,1765897397357,-2899,8666,-471,0,0,0,0,0
1086,1765897397606,-3140,8933,266,0,0,0,0,0
1087,1765897398022,-1427,9039,-160,0,0,0,0,0
1088,1765897400087,4589,8375,-1342,0,0,0,0,0
1089,1765897401468,4987,9227,-116,0,0,0,0,0
1090,1765897401752,4228,7861,-2804,0,0,0,0,0
1091,1765897402887,4068,8805,-1146,0,0,0,0,0
1092,1765897403101,3194,8258,-1571,0,0,0,0,0
1093,1765897403651,1339,8211,372,0,0,0,0,0
1094,1765897404401,406,7738,891,0,0,0,0,0
1095,1765897405184,5978,10645,489,0,0,0,0,0
1096,1765897407064,-3058,8242,691,0,0,0,0,0
1097,1765897408796,-4286,6856,-10,0,0,0,0,0
1098,1765897412292,-896,8923,598,0,0,0,0,0
1099,1765897412792,-1108,8197,1701,0,0,0,0,0
1100,1765897412992,-1064,7003,647,0,0,0,0,0
1101,1765897413174,-2228,9028,31,0,0,0,0,0
1102,1765897413591,-2936,7622,468,0,0,0,0,0
1103,1765897415456,-1536,9626,-3114,0,0,0,0,0
1104,1765897415640,-1566,7851,-3154,0,0,0,0,0
1105,1765897415907,-1294,8866,-3446,0,0,0,0,0
1106,1765897418162,-4066,7573,-47,0,0,0,0,0
1107,1765897418162,-3224,6011,-1385,0,0,0,0,0
1108,1765897418187,-3318,8908,432,0,0,0,0,0
1109,1765897418205,-1451,8816,-420,0,0,0,0,0
1110,1765897424749,-183,8418,-440,0,0,0,0,0
1111,1765897427796,-246,8354,-433,0,0,0,0,0
1112,1765897433424,693,10504,3054,0,0,0,0,0
1113,1765897433874,-235,8236,500,0,0,0,0,0
1114,1765897434043,-573,8404,393,0,0,0,0,0
1115,1765897435041,-2975,8327,-242,0,0,0,0,0
1116,1765897436288,-3135,8052,-818,0,0,0,0,0
1117,1765897437056,-3788,6912,-1887,0,0,0,0,0
1118,1765897438020,-2332,7266,-996,0,0,0,0,0
1119,1765897438521,-3426,8640,498,0,0,0,0,0
1120,1765897439885,-274,8845,817,0,0,0,0,0
1121,1765897440402,10,5998,290,0,0,0,0,0
1122,1765897440685,-245,8020,684,0,0,0,0,0
1123,1765897441934,3995,8562,-1076,0,0,0,0,0
1124,1765897444633,383,9231,692,0,0,0,0,0
1125,1765897444648,-724,7581,-282,0,0,0,0,0
1126,1765897444665,-679,8036,1299,0,0,0,0,0
1127,1765897444666,-290,7859,556,0,0,0,0,0
1128,1765897445013,-753,9140,-368,0,0,0,0,0
1129,1765897445297,-1965,8346,441,0,0,0,0,0
1130,1765897445530,-1142,9034,862,0,0,0,0,0
1131,1765897445863,-1624,8178,-3450,0,0,0,0,0
1132,1765897446262,-2251,8327,-3920,0,0,0,0,0
1133,1765897446512,-1995,8754,-2587,0,0,0,0,0
1134,1765897447860,3025,9048,-2142,0,0,0,0,0
1135,1765897448113,2774,7162,-1437,0,0,0,0,0
1136,1765897448511,-978,6944,-693,0,0,0,0,0
1137,1765897448794,-729,8494,-1265,0,0,0,0,0
1138,1765897448894,-4573,7178,-1609,0,0,0,0,0
1139,1765897449179,-4192,8530,-987,0,0,0,0,0
1140,1765897449327,-3409,8400,-978,0,0,0,0,0
1141,1765897449594,-3075,7954,-30,0,0,0,0,0
1142,1765897449959,-925,8147,1349,0,0,0,0,0
1143,1765897450692,186,9733,546,0,0,0,0,0
1144,1765897450909,-4235,7178,-269,0,0,0,0,0
1145,1765897451210,-4368,8314,-349,0,0,0,0,0
1146,1765897451558,-5052,7963,2179,0,0,0,0,0
1147,1765897453739,-4877,7690,-1044,0,0,0,0,0
1148,1765897456786,-5977,7966,2942,0,0,0,0,0
1149,1765897458685,-382,8420,-358,0,0,0,0,0
1150,1765897460667,66,8279,66,0,0,0,0,0
1151,1765897460950,84,8267,369,0,0,0,0,0
1152,1765897461333,-283,8211,-708,0,0,0,0,0
1153,1765897464131,-348,8363,-518,0,0,0,0,0
1154,1765897466611,-366,8225,-593,0,0,0,0,0
1155,1765897466617,-383,8374,-488,0,0,0,0,0
1156,1765897466645,-348,8317,-556,0,0,0,0,0
1157,1765897467611,-357,8402,-471,0,0,0,0,0
1158,1765897469409,-356,8331,-476,0,0,0,0,0
1159,1765897469759,-349,8386,-524,0,0,0,0,0
1160,1765897469925,-335,8354,-529,0,0,0,0,0
1161,1765897470274,-348,8336,-485,0,0,0,0,0
1162,1765897470491,-324,8315,-502,0,0,0,0,0
1163,1765897470624,-362,8361,-551,0,0,0,0,0
1164,1765897470976,-333,8388,-546,0,0,0,0,0
1165,1765897471325,-354,8361,-514,0,0,0,0,0
1166,1765897471591,-257,8239,-510,0,0,0,0,0
1167,1765897471674,-344,8336,-512,0,0,0,0,0
1168,1765897472107,-374,8301,-551,0,0,0,0,0
1169,1765897472922,-356,8319,-425,0,0,0,0,0
1170,1765897473708,-381,8272,-747,0,0,0,0,0
1171,1765897474355,-314,8313,-658,0,0,0,0,0
1172,1765897475987,-180,8150,-643,0,0,0,0,0
1173,1765897477561,-467,8126,-398,0,0,0,0,0
1174,1765897477637,-408,8396,-624,0,0,0,0,0
1175,1765897478336,-406,8227,27,0,0,0,0,0
1176,1765897482233,-376,8330,-430,0,0,0,0,0
1177,1765897482481,-407,8342,-464,0,0,0,0,0
1178,1765897482531,-364,8429,-497,0,0,0,0,0
1179,1765897483898,-340,8339,-472,0,0,0,0,0
1180,1765897484697,-403,8348,-466,0,0,0,0,0
1181,1765897485479,-375,8386,-474,0,0,0,0,0
1182,1765897488643,-381,8347,-487,0,0,0,0,0
1183,1765897488644,-382,8362,-475,0,0,0,0,0
1184,1765897488659,-364,8388,-468,0,0,0,0,0
1185,1765897488676,-364,8368,-476,0,0,0,0,0
1186,1765897490340,-386,8363,-476,0,0,0,0,0
1187,1765897490907,-370,8375,-483,0,0,0,0,0
1188,1765897491290,-385,8380,-466,0,0,0,0,0
1189,1765897491623,-373,8362,-478,0,0,0,0,0
1190,1765897492056,-376,8392,-461,0,0,0,0,0
1191,1765897494872,-374,8378,-487,0,0,0,0,0
1192,1765897495171,-368,8372,-458,0,0,0,0,0
1193,1765897496053,-376,8360,-458,0,0,0,0,0
1194,1765897499600,-381,8362,-488,0,0,0,0,0
1195,1765897499684,-376,8355,-462,0,0,0,0,0
1196,1765897499966,-365,8406,-507,0,0,0,0,0
1197,1765897501598,-385,8361,-480,0,0,0,0,0
1198,1765897503281,-380,8364,-468,0,0,0,0,0
1199,1765897503530,-380,8370,-478,0,0,0,0,0
1200,1765897503731,-374,8350,-461,0,0,0,0,0
1201,1765897504013,-388,8348,-487,0,0,0,0,0
1202,1765897505545,-369,8324,-464,0,0,0,0,0
1203,1765897507310,-378,8353,-486,0,0,0,0,0
1204,1765897507460,-375,8356,-486,0,0,0,0,0
1205,1765897507727,-376,8364,-482,0,0,0,0,0
1206,1765897508710,-402,8344,-484,0,0,0,0,0
1207,1765897508843,-372,8343,-478,0,0,0,0,0
1208,1765897509093,-379,8361,-474,0,0,0,0,0
1209,1765897510527,-366,8355,-476,0,0,0,0,0
1210,1765897510541,-376,8351,-464,0,0,0,0,0
1211,1765897510856,-381,8350,-483,0,0,0,0,0
1212,1765897514404,-375,8363,-478,0,0,0,0,0
1213,1765897516003,-373,8355,-469,0,0,0,0,0
1214,1765897519901,-310,8384,-486,0,0,0,0,0
1215,1765897522017,-376,8360,-459,0,0,0,0,0
1216,1765897522298,-367,8359,-456,0,0,0,0,0
1217,1765897522481,-371,8355,-474,0,0,0,0,0
1218,1765897523981,-371,8368,-473,0,0,0,0,0
1219,1765897524166,-370,8370,-476,0,0,0,0,0
1220,1765897525679,-368,8376,-481,0,0,0,0,0
1221,1765897526196,-378,8341,-475,0,0,0,0,0
1222,1765897526562,-380,8351,-471,0,0,0,0,0
1223,1765897527711,-380,8360,-492,0,0,0,0,0
1224,1765897527994,-362,8356,-464,0,0,0,0,0
1225,1765897528194,-372,8356,-500,0,0,0,0,0
1226,1765897528628,-388,8350,-484,0,0,0,0,0
1227,1765897532466,-376,8377,-469,0,0,0,0,0
1228,1765897532539,-389,8362,-470,0,0,0,0,0
1229,1765897532789,-382,8390,-484,0,0,0,0,0
1230,1765897532957,-388,8350,-486,0,0,0,0,0
1231,1765897532991,-374,8406,-469,0,0,0,0,0
1232,1765897533272,-363,8336,-485,0,0,0,0,0
1233,1765897533472,-384,8400,-468,0,0,0,0,0
1234,1765897533721,-383,8347,-466,0,0,0,0,0
1235,1765897534955,-376,8348,-484,0,0,0,0,0
1236,1765897535055,-371,8380,-464,0,0,0,0,0
1237,1765897535470,-370,8356,-463,0,0,0,0,0
1238,1765897539901,-374,8386,-460,0,0,0,0,0
1239,1765897540201,-376,8359,-474,0,0,0,0,0
1240,1765897541133,-380,8370,-477,0,0,0,0,0
1241,1765897543646,-388,8352,-475,0,0,0,0,0
1242,1765897544181,-336,8363,-484,0,0,0,0,0
1243,1765897544447,-356,8347,-476,0,0,0,0,0
1244,1765897545146,-369,8366,-472,0,0,0,0,0
1245,1765897548727,-390,8374,-431,0,0,0,0,0
1246,1765897549209,-365,8358,-462,0,0,0,0,0
1247,1765897549493,-366,8351,-464,0,0,0,0,0
1248,1765897550842,-368,8367,-443,0,0,0,0,0
1249,1765897552257,-381,8350,-462,0,0,0,0,0
1250,1765897552655,-376,8380,-464,0,0,0,0,0
1251,1765897552972,-370,8365,-476,0,0,0,0,0
1252,1765897554487,-378,8362,-477,0,0,0,0,0
1253,1765897554537,-372,8346,-471,0,0,0,0,0
1254,1765897554937,-378,8355,-488,0,0,0,0,0
1255,1765897555603,-379,8318,-453,0,0,0,0,0
1256,1765897557835,-467,8304,-534,0,0,0,0,0
1257,1765897558084,-418,8328,-506,0,0,0,0,0
1258,1765897558267,-350,8394,1283,0,0,0,0,0
1259,1765897558449,76,8613,800,0,0,0,0,0
1260,1765897559151,120,8226,599,0,0,0,0,0
1261,1765897559533,-78,8578,1010,0,0,0,0,0
1262,1765897559784,123,8604,801,0,0,0,0,0
1263,1765897563913,-2508,8494,-551,0,0,0,0,0
1264,1765897564046,-2322,7302,-667,0,0,0,0,0
1265,1765897568874,4857,8441,-1629,0,0,0,0,0
1266,1765897569291,6122,10032,-223,0,0,0,0,0
1267,1765897569741,1955,8073,-2310,0,0,0,0,0
1268,1765897569858,2588,8095,-1893,0,0,0,0,0
1269,1765897570891,4856,9016,-57,0,0,0,0,0
1270,1765897571190,4448,10264,-617,0,0,0,0,0
1271,1765897572906,-2184,7408,538,0,0,0,0,0
1272,1765897573587,61,8670,480,0,0,0,0,0
1273,1765897574038,1837,7111,-4169,0,0,0,0,0
1274,1765897574304,7192,6839,-2047,0,0,0,0,0
1275,1765897576985,-4064,9166,105,0,0,0,0,0
1276,1765897577200,-3397,8156,851,0,0,0,0,0
1277,1765897577533,-3110,7718,262,0,0,0,0,0
1278,1765897578300,-4598,8385,-398,0,0,0,0,0
1279,1765897578466,-3938,6858,292,0,0,0,0,0
1280,1765897581281,-1554,6489,1091,0,0,0,0,0
1281,1765897581531,-2466,9567,62,0,0,0,0,0
1282,1765897582630,-666,9009,596,0,0,0,0,0
1283,1765897582914,90,9251,1353,0,0,0,0,0
1284,1765897585411,-2088,7922,-1708,0,0,0,0,0
1285,1765897585511,-1802,8701,-2423,0,0,0,0,0
1286,1765897585977,-3681,6472,-1103,0,0,0,0,0
1287,1765897587860,-520,9814,-217,0,0,0,0,0
1288,1765897587892,-5027,7598,367,0,0,0,0,0
1289,1765897590739,92,8426,-137,0,0,0,0,0
1290,1765897590925,419,8934,-291,0,0,0,0,0
1291,1765897590957,-594,7442,-921,0,0,0,0,0
1292,1765897591223,118,8464,-168,0,0,0,0,0
1293,1765897591306,-1054,8905,-1006,0,0,0,0,0
1294,1765897595136,372,7796,210,0,0,0,0,0
1295,1765897595269,-656,8806,29,0,0,0,0,0
1296,1765897595536,-768,8982,-154,0,0,0,0,0
1297,1765897595886,-928,6030,-222,0,0,0,0,0
1298,1765897596534,-612,8477,-339,0,0,0,0,0
1299,1765897599831,5887,7214,-2722,0,0,0,0,0
1300,1765897599999,6461,9268,-1616,0,0,0,0,0
1301,1765897600281,4118,6783,-3406,0,0,0,0,0
1302,1765897600332,-365,6185,-1474,0,0,0,0,0
1303,1765897600697,-2286,11275,-3572,0,0,0,0,0
1304,1765897603996,-2646,9826,1196,0,0,0,0,0
1305,1765897604162,-3069,9716,622,0,0,0,0,0
1306,1765897604495,-4560,7740,119,0,0,0,0,0
1307,1765897604761,-4885,7568,702,0,0,0,0,0
1308,1765897608175,-4630,6958,-786,0,0,0,0,0
1309,1765897610041,-3918,8420,569,0,0,0,0,0
1310,1765897610057,-4587,10068,964,0,0,0,0,0
1311,1765897610072,-6605,7959,-192,0,0,0,0,0
1312,1765897613204,-1514,7470,48,0,0,0,0,0
1313,1765897613622,-1514,8115,572,0,0,0,0,0
1314,1765897613853,-958,8844,869,0,0,0,0,0
1315,1765897614270,-2066,7208,1442,0,0,0,0,0
1316,1765897616551,4446,7372,-1259,0,0,0,0,0
1317,1765897616735,3250,7880,-1597,0,0,0,0,0
1318,1765897617051,3414,8019,-1109,0,0,0,0,0
1319,1765897617301,4062,7940,-642,0,0,0,0,0
1320,1765897621199,-4670,8136,-1585,0,0,0,0,0
1321,1765897621246,1368,8614,1290,0,0,0,0,0
1322,1765897622262,-3116,7640,-1744,0,0,0,0,0
1323,1765897622679,-5793,7893,-2386,0,0,0,0,0
1324,1765897622845,-4699,8070,-835,0,0,0,0,0
1325,1765897623111,-2107,8196,-1108,0,0,0,0,0
1326,1765897623178,-3176,8806,-1292,0,0,0,0,0
1327,1765897623494,-4156,8681,-1234,0,0,0,0,0
1328,1765897623695,-3826,8898,-595,0,0,0,0,0
1329,1765897624661,-2507,8802,-1188,0,0,0,0,0
1330,1765897625510,-3326,7503,-913,0,0,0,0,0
1331,1765897625610,-2089,8918,101,0,0,0,0,0
1332,1765897626893,-3110,6688,237,0,0,0,0,0
1333,1765897627059,-2883,10070,812,0,0,0,0,0
1334,1765897627342,-299,6917,112,0,0,0,0,0
1335,1765897627442,-2894,9423,166,0,0,0,0,0
1336,1765897627758,-1900,8507,-114,0,0,0,0,0
1337,1765897628308,-2170,6632,82,0,0,0,0,0
1338,1765897629457,-957,8545,-358,0,0,0,0,0
1339,1765897630789,-1082,9688,578,0,0,0,0,0
1340,1765897632348,-1018,7627,23,0,0,0,0,0
1341,1765897632372,-1808,9405,-87,0,0,0,0,0
1342,1765897632372,-978,8530,451,0,0,0,0,0
1343,1765897632388,-1320,6539,-565,0,0,0,0,0
1344,1765897632720,-1123,7448,-151,0,0,0,0,0
1345,1765897633153,-1321,7118,-360,0,0,0,0,0
1346,1765897634003,-1799,8432,-152,0,0,0,0,0
1347,1765897635102,-2195,7872,-4722,0,0,0,0,0
1348,1765897636034,15,7708,-86,0,0,0,0,0
1349,1765897636318,-898,7900,-569,0,0,0,0,0
1350,1765897640249,-3482,9144,-530,0,0,0,0,0
1351,1765897640730,-3057,7570,-138,0,0,0,0,0
1352,1765897641746,-693,8521,-274,0,0,0,0,0
1353,1765897643962,-1919,9008,-563,0,0,0,0,0
1354,1765897643962,-611,7231,-544,0,0,0,0,0
1355,1765897643977,-890,8208,-934,0,0,0,0,0
1356,1765897644777,-401,8821,586,0,0,0,0,0
1357,1765897646309,-345,7782,134,0,0,0,0,0
1358,1765897647275,-1627,9211,597,0,0,0,0,0
1359,1765897647625,-1504,8576,588,0,0,0,0,0
1360,1765897649407,-3070,8361,-2520,0,0,0,0,0
1361,1765897652105,-3444,7112,-1156,0,0,0,0,0
1362,1765897652388,-3148,7466,-540,0,0,0,0,0
1363,1765897653004,2172,9826,1191,0,0,0,0,0
1364,1765897653487,-4464,8004,67,0,0,0,0,0
1365,1765897655068,-3060,7830,-105,0,0,0,0,0
1366,1765897655085,-5114,8081,-238,0,0,0,0,0
1367,1765897655167,-3920,8171,-58,0,0,0,0,0
1368,1765897655735,-2606,7899,-710,0,0,0,0,0
1369,1765897655967,-4762,8217,-934,0,0,0,0,0
1370,1765897656200,-4313,7661,-817,0,0,0,0,0
1371,1765897656633,-4452,8957,-530,0,0,0,0,0
1372,1765897657482,-5998,8142,-1604,0,0,0,0,0
1373,1765897657848,-1523,8067,-392,0,0,0,0,0
1374,1765897658050,-4721,10738,-1057,0,0,0,0,0
1375,1765897658549,-5370,9912,-1702,0,0,0,0,0
1376,1765897658732,-1976,8169,468,0,0,0,0,0
1377,1765897658982,-1023,8694,454,0,0,0,0,0
1378,1765897659299,-1064,8259,716,0,0,0,0,0
1379,1765897659598,-231,8292,635,0,0,0,0,0
1380,1765897662096,1929,9127,769,0,0,0,0,0
1381,1765897662996,4039,7857,-1566,0,0,0,0,0
1382,1765897663911,-4890,7688,834,0,0,0,0,0
1383,1765897664111,426,8240,-3593,0,0,0,0,0
1384,1765897664478,-65,8354,-1060,0,0,0,0,0
1385,1765897666080,1096,9334,-14,0,0,0,0,0
1386,1765897666126,5920,5670,-1690,0,0,0,0,0
1387,1765897667924,3740,8080,368,0,0,0,0,0
1388,1765897668342,4003,8524,-550,0,0,0,0,0
1389,1765897669423,-4187,9365,-1568,0,0,0,0,0
1390,1765897670639,6497,10393,-985,0,0,0,0,0
1391,1765897670807,2984,8672,-3283,0,0,0,0,0
1392,1765897671288,-583,9959,-2568,0,0,0,0,0
1393,1765897674520,-3385,7142,846,0,0,0,0,0
1394,1765897674804,-3961,8935,62,0,0,0,0,0
1395,1765897675169,-3384,9342,188,0,0,0,0,0
1396,1765897675468,-2495,7247,538,0,0,0,0,0
1397,1765897677284,-3284,9233,695,0,0,0,0,0
1398,1765897677516,419,8432,1280,0,0,0,0,0
1399,1765897677817,-1962,9301,0,0,0,0,0,0
1400,1765897677932,-585,10135,-498,0,0,0,0,0
1401,1765897682031,-1225,8104,-3329,0,0,0,0,0
1402,1765897683163,-3573,30811,-22521,0,0,0,0,0
1403,1765897685293,-4208,28440,15661,0,0,0,0,0
1404,1765897687708,-1164,7702,460,0,0,0,0,0
1405,1765897689207,-983,5502,704,0,0,0,0,0
1406,1765897690289,-582,7946,1108,0,0,0,0,0
1407,1765897691237,-32,8203,783,0,0,0,0,0
1408,1765897693404,-3330,8228,-2352,0,0,0,0,0
1409,1765897695934,-2402,8275,-409,0,0,0,0,0
1410,1765897696417,830,8179,-566,0,0,0,0,0
1411,1765897700380,-4119,7079,-878,0,0,0,0,0
1412,1765897700513,-1477,7670,165,0,0,0,0,0
1413,1765897700763,-3378,7923,-180,0,0,0,0,0
1414,1765897701179,-4059,7285,-958,0,0,0,0,0
1415,1765897701596,-4404,11206,-712,0,0,0,0,0
1416,1765897703911,153,9447,1114,0,0,0,0,0
1417,1765897705077,-2713,7768,256,0,0,0,0,0
1418,1765897706576,2437,7810,359,0,0,0,0,0
1419,1765897707774,-1411,8557,-4207,0,0,0,0,0
1420,1765897708340,-1431,11178,-7020,0,0,0,0,0
1421,1765897708674,-930,6764,-3050,0,0,0,0,0
1422,1765897708956,-172,7054,-1084,0,0,0,0,0
1423,1765897709822,4645,9013,-1344,0,0,0,0,0
1424,1765897711421,4814,9853,-1653,0,0,0,0,0
1425,1765897711454,4594,10035,-766,0,0,0,0,0
1426,1765897711954,3474,8023,-73,0,0,0,0,0
1427,1765897712369,3601,7919,-1558,0,0,0,0,0
1428,1765897712936,4966,8875,-1868,0,0,0,0,0
1429,1765897713135,3736,8695,-1643,0,0,0,0,0
1430,1765897713202,4010,9840,-1726,0,0,0,0,0
1431,1765897713452,934,9487,-1734,0,0,0,0,0
1432,1765897713535,348,8915,-419,0,0,0,0,0
1433,1765897715868,-2475,9003,-291,0,0,0,0,0
1434,1765897716152,-3829,9280,-69,0,0,0,0,0
1435,1765897718316,-4704,8962,1218,0,0,0,0,0
1436,1765897719266,-4797,7134,1271,0,0,0,0,0
1437,1765897719532,-2220,11324,2136,0,0,0,0,0
1438,1765897719815,-4742,8133,-29709,0,0,0,0,0
1439,1765897720165,-3953,8400,-321,0,0,0,0,0
1440,1765897721097,-2547,8886,420,0,0,0,0,0
1441,1765897722562,-2663,8410,1766,0,0,0,0,0
1442,1765897722579,-1715,8993,1412,0,0,0,0,0
1443,1765897722595,-636,9806,773,0,0,0,0,0
1444,1765897724443,-2342,9200,437,0,0,0,0,0
1445,1765897724925,-1949,8618,-3106,0,0,0,0,0
1446,1765897725759,-2119,7795,-3398,0,0,0,0,0
1447,1765897728008,-4440,9741,-1302,0,0,0,0,0
1448,1765897728257,-4437,9749,-501,0,0,0,0,0
1449,1765897728358,-3840,6532,24,0,0,0,0,0
1450,1765897728574,-4147,8706,-113,0,0,0,0,0
1451,1765897728908,-3546,6840,-1393,0,0,0,0,0
1452,1765897729958,-2686,7958,-133,0,0,0,0,0
1453,1765897731872,-329,7887,-95,0,0,0,0,0
1454,1765897732006,-797,7608,-58,0,0,0,0,0
1455,1765897732271,-1471,8859,-583,0,0,0,0,0
1456,1765897736417,-1113,9544,-132,0,0,0,0,0
1457,1765897736701,-191,5776,-369,0,0,0,0,0
1458,1765897736951,522,6937,-251,0,0,0,0,0
1459,1765897737252,-617,9353,-1196,0,0,0,0,0
1460,1765897737466,-1228,9286,-174,0,0,0,0,0
1461,1765897737732,-1568,6512,254,0,0,0,0,0
1462,1765897737783,-2218,8707,-324,0,0,0,0,0
1463,1765897738083,-815,8189,-135,0,0,0,0,0
1464,1765897739432,1946,9708,-2383,0,0,0,0,0
1465,1765897739848,3928,7080,-3454,0,0,0,0,0
1466,1765897740548,-6367,7988,-1731,0,0,0,0,0
1467,1765897741415,-1535,7770,275,0,0,0,0,0
1468,1765897741764,1098,8641,-730,0,0,0,0,0
1469,1765897742063,562,8598,-1371,0,0,0,0,0
1470,1765897742231,-181,8134,610,0,0,0,0,0
1471,1765897742513,-572,6866,1192,0,0,0,0,0
1472,1765897743312,-2562,8840,578,0,0,0,0,0
1473,1765897745177,-3982,9342,-879,0,0,0,0,0
1474,1765897746209,-4954,9748,-974,0,0,0,0,0
1475,1765897746410,-3741,6582,-162,0,0,0,0,0
1476,1765897747241,-5264,8557,-776,0,0,0,0,0
1477,1765897748307,-6434,7634,-906,0,0,0,0,0
1478,1765897749792,483,8962,1152,0,0,0,0,0
1479,1765897750689,-3984,8700,29,0,0,0,0,0
1480,1765897751454,2156,7331,1252,0,0,0,0,0
1481,1765897751855,4675,9633,784,0,0,0,0,0
1482,1765897752204,5300,8194,-1066,0,0,0,0,0
1483,1765897754203,3784,8912,-812,0,0,0,0,0
1484,1765897756102,4725,9102,-2037,0,0,0,0,0
1485,1765897756134,4997,10896,-490,0,0,0,0,0
1486,1765897757116,4848,9260,321,0,0,0,0,0
1487,1765897758314,1660,7973,-230,0,0,0,0,0
1488,1765897758531,1881,9841,246,0,0,0,0,0
1489,1765897760915,-4245,7682,-1898,0,0,0,0,0
1490,1765897762329,-2043,7764,-291,0,0,0,0,0
1491,1765897762479,-2820,6704,910,0,0,0,0,0
1492,1765897763962,-3614,6117,339,0,0,0,0,0
1493,1765897780579,-162,9683,-869,0,0,0,0,0
1494,1765897780713,-428,8505,-411,0,0,0,0,0
1495,1765897781179,-54,10138,526,0,0,0,0,0
1496,1765897781563,-101,6982,-324,0,0,0,0,0
1497,1765897784660,2557,9824,-1029,0,0,0,0,0
1498,1765897784894,3921,7168,-3963,0,0,0,0,0
1499,1765897784929,4540,9231,-3097,0,0,0,0,0
1500,1765897785261,3561,10259,-1960,0,0,0,0,0
1501,1765897785393,4849,9595,-2245,0,0,0,0,0
1502,1765897785642,1660,6480,-1328,0,0,0,0,0
1503,1765897785944,-3076,8937,-1869,0,0,0,0,0
1504,1765897786226,-4703,7795,-826,0,0,0,0,0
1505,1765897787209,-1989,7775,262,0,0,0,0,0
1506,1765897787940,-564,8940,1309,0,0,0,0,0
1507,1765897790272,-4528,7530,-1343,0,0,0,0,0
1508,1765897791986,-3936,7866,-915,0,0,0,0,0
1509,1765897793918,-2176,6748,-568,0,0,0,0,0
1510,1765897794085,-42,7757,30,0,0,0,0,0
1511,1765897794351,1805,9152,-695,0,0,0,0,0
1512,1765897794385,2063,7693,-276,0,0,0,0,0
1513,1765897794635,2227,9552,118,0,0,0,0,0
1514,1765897794969,1431,7724,706,0,0,0,0,0
1515,1765897796366,-2365,9485,-179,0,0,0,0,0
1516,1765897797883,78,9357,-857,0,0,0,0,0
1517,1765897798132,-3523,8621,731,0,0,0,0,0
1518,1765897798415,-3884,7054,-4,0,0,0,0,0
1519,1765897798983,-1835,9015,-4410,0,0,0,0,0
1520,1765897799266,-1692,7048,-4557,0,0,0,0,0
1521,1765897800513,3750,8094,-1300,0,0,0,0,0
1522,1765897800880,3347,9694,-1585,0,0,0,0,0
1523,1765897801080,3040,6188,-438,0,0,0,0,0
1524,1765897804076,-2832,9233,-755,0,0,0,0,0
1525,1765897805225,3916,6551,-3364,0,0,0,0,0
1526,1765897806726,-2849,8042,-1018,0,0,0,0,0
1527,1765897806960,-2691,7998,-558,0,0,0,0,0
1528,1765897807857,-3382,8320,342,0,0,0,0,0
1529,1765897808124,-4951,7598,-442,0,0,0,0,0
1530,1765897808922,-3626,9231,301,0,0,0,0,0
1531,1765897814201,-4798,7796,884,0,0,0,0,0
1532,1765897814250,-1761,10509,264,0,0,0,0,0
1533,1765897814834,-2580,8149,57,0,0,0,0,0
1534,1765897815700,-2213,8328,932,0,0,0,0,0
1535,1765897815883,-1336,7025,-1809,0,0,0,0,0
1536,1765897816232,702,9127,-5073,0,0,0,0,0
1537,1765897816299,-778,9746,-5502,0,0,0,0,0
1538,1765897817117,-2026,8011,-1680,0,0,0,0,0
1539,1765897819364,-4180,9248,-461,0,0,0,0,0
1540,1765897819546,-2769,9279,-293,0,0,0,0,0
1541,1765897819847,-2221,9646,268,0,0,0,0,0
1542,1765897820463,-1903,9534,240,0,0,0,0,0
1543,1765897820845,-1895,9091,158,0,0,0,0,0
1544,1765897821145,-1038,9870,526,0,0,0,0,0
1545,1765897821312,-1201,6746,463,0,0,0,0,0
1546,1765897821462,-810,8683,202,0,0,0,0,0
1547,1765897821845,-1308,8670,811,0,0,0,0,0
1548,1765897827807,-3264,9762,-824,0,0,0,0,0
1549,1765897830837,499,9502,-199,0,0,0,0,0
1550,1765897835916,-6013,7558,-462,0,0,0,0,0
1551,1765897837730,2259,9346,569,0,0,0,0,0
1552,1765897839412,-5584,8821,-322,0,0,0,0,0
1553,1765897839613,-3310,7410,833,0,0,0,0,0
1554,1765897840029,4334,9334,-817,0,0,0,0,0
1555,1765897840730,17671,-8411,14805,0,0,0,0,0
1556,1765897840911,2307,8660,-1778,0,0,0,0,0
1557,1765897841944,-31,6588,-3331,0,0,0,0,0
1558,1765897842311,1383,9050,-602,0,0,0,0,0
1559,1765897842511,2664,8834,-1279,0,0,0,0,0
1560,1765897842827,3469,7425,-1104,0,0,0,0,0
1561,1765897843093,3410,8905,-568,0,0,0,0,0
1562,1765897848365,-2145,8411,-238,0,0,0,0,0
1563,1765897848373,-2574,8112,176,0,0,0,0,0
1564,1765897848389,-2670,8195,-296,0,0,0,0,0
1565,1765897848421,6868,9760,-4000,0,0,0,0,0
1566,1765897850436,-5354,6640,-460,0,0,0,0,0
1567,1765897850669,-3934,9154,991,0,0,0,0,0
1568,1765897850820,-4706,6757,-545,0,0,0,0,0
1569,1765897851069,-3461,9114,1230,0,0,0,0,0
1570,1765897851403,-4157,8490,468,0,0,0,0,0
1571,1765897851704,-3999,10046,52,0,0,0,0,0
1572,1765897852218,-4008,6622,458,0,0,0,0,0
1573,1765897852368,-5362,8220,212,0,0,0,0,0
1574,1765897852635,-5621,11959,571,0,0,0,0,0
1575,1765897853784,-2830,8563,873,0,0,0,0,0
1576,1765897855516,-2204,6988,840,0,0,0,0,0
1577,1765897857780,-2199,7338,-230,0,0,0,0,0
1578,1765897857897,-1564,7840,301,0,0,0,0,0
1579,1765897859529,-897,9000,112,0,0,0,0,0
1580,1765897859545,264,7851,-3855,0,0,0,0,0
1581,1765897860246,-6620,9000,-1654,0,0,0,0,0
1582,1765897860794,-2097,10942,-927,0,0,0,0,0
1583,1765897861077,-3892,9200,-680,0,0,0,0,0
1584,1765897861327,-3056,7174,-555,0,0,0,0,0
1585,1765897862809,-1234,7273,1508,0,0,0,0,0
1586,1765897864059,-3834,9366,925,0,0,0,0,0
1587,1765897864326,-4106,8439,2665,0,0,0,0,0
1588,1765897868055,-442,8359,88,0,0,0,0,0
1589,1765897868372,704,8208,1518,0,0,0,0,0
1590,1765897871669,-3006,8296,-234,0,0,0,0,0
1591,1765897875867,-1394,8338,-808,0,0,0,0,0
1592,1765897877948,-994,7967,-915,0,0,0,0,0
1593,1765897877964,2205,9860,-17934,0,0,0,0,0
1594,1765897878662,-666,9010,-3058,0,0,0,0,0
1595,1765897878962,-1058,8315,-6224,0,0,0,0,0
1596,1765897883925,-448,8329,-436,0,0,0,0,0
1597,1765897886857,-458,8292,-423,0,0,0,0,0
1598,1765897887173,-468,8354,-453,0,0,0,0,0
1599,1765897887589,-471,8284,-453,0,0,0,0,0
1600,1765897887706,-519,8396,-418,0,0,0,0,0
1601,1765897888022,-417,8240,-362,0,0,0,0,0
1602,1765897892300,-419,8342,-432,0,0,0,0,0
1603,1765897892467,-452,8335,-418,0,0,0,0,0
1604,1765897893001,-440,8362,-435,0,0,0,0,0
1605,1765897893184,-472,8364,-378,0,0,0,0,0
1606,1765897893601,-458,8412,-422,0,0,0,0,0
1607,1765897893716,-449,8343,-416,0,0,0,0,0
1608,1765897893982,-416,8355,-411,0,0,0,0,0
1609,1765897894132,-413,8323,-368,0,0,0,0,0
1610,1765897897114,-445,8380,-400,0,0,0,0,0
1611,1765897897797,-444,8388,-385,0,0,0,0,0
1612,1765897898164,-470,8342,-397,0,0,0,0,0
1613,1765897901910,-449,8323,-411,0,0,0,0,0
1614,1765897902376,-438,8356,-409,0,0,0,0,0
1615,1765897905274,-438,8366,-410,0,0,0,0,0
1616,1765897910453,-328,8322,-391,0,0,0,0,0
1617,1765897912251,-452,8339,-430,0,0,0,0,0
1618,1765897912818,-438,8335,-419,0,0,0,0,0
1619,1765897913351,-450,8384,-425,0,0,0,0,0
1620,1765897913600,-447,8383,-398,0,0,0,0,0
1621,1765897913817,-424,8342,-400,0,0,0,0,0
1622,1765897913968,-446,8382,-414,0,0,0,0,0
1623,1765897914850,-428,8355,-394,0,0,0,0,0
1624,1765897915067,-445,8376,-404,0,0,0,0,0
1625,1765897915449,-440,8350,-423,0,0,0,0,0
1626,1765897915732,-433,8358,-386,0,0,0,0,0
1627,1765897915915,-437,8380,-406,0,0,0,0,0
1628,1765897916132,-438,8358,-404,0,0,0,0,0
1629,1765897916565,-450,8347,-411,0,0,0,0,0
1630,1765897916815,-442,8361,-397,0,0,0,0,0
1631,1765897916965,-445,8350,-408,0,0,0,0,0
1632,1765897918995,-431,8369,-404,0,0,0,0,0
1633,1765897919012,-447,8339,-396,0,0,0,0,0
1634,1765897919029,-442,8369,-405,0,0,0,0,0
1635,1765897919045,-454,8338,-416,0,0,0,0,0
1636,1765897919045,-442,8379,-405,0,0,0,0,0
1637,1765897919061,-433,8356,-404,0,0,0,0,0
1638,1765897919095,-437,8346,-396,0,0,0,0,0
1639,1765897919629,-436,8372,-411,0,0,0,0,0
1640,1765897919862,-443,8355,-404,0,0,0,0,0
1641,1765897920427,-438,8364,-406,0,0,0,0,0
1642,1765897920793,-443,8376,-404,0,0,0,0,0
1643,1765897921293,-446,8372,-401,0,0,0,0,0
1644,1765897921410,-438,8341,-415,0,0,0,0,0
1645,1765897922508,-450,8343,-406,0,0,0,0,0
1646,1765897923326,-433,8382,-414,0,0,0,0,0
1647,1765897923741,-443,8336,-398,0,0,0,0,0
1648,1765897923907,-434,8367,-413,0,0,0,0,0
1649,1765897924075,-447,8335,-398,0,0,0,0,0
1650,1765897924777,-439,8376,-417,0,0,0,0,0
1651,1765897924908,-438,8344,-408,0,0,0,0,0
1652,1765897925108,-446,8338,-397,0,0,0,0,0
1653,1765897925641,-430,8362,-402,0,0,0,0,0
1654,1765897925857,-442,8329,-412,0,0,0,0,0
1655,1765897926241,-438,8374,-414,0,0,0,0,0
1656,1765897926724,-433,8342,-397,0,0,0,0,0
1657,1765897927056,-440,8362,-413,0,0,0,0,0
1658,1765897927205,-430,8360,-407,0,0,0,0,0
1659,1765897927472,-432,8340,-422,0,0,0,0,0
1660,1765897927574,-440,8358,-390,0,0,0,0,0
1661,1765897927839,-426,8373,-406,0,0,0,0,0
1662,1765897927922,-430,8341,-409,0,0,0,0,0
1663,1765897929998,-442,8230,-421,0,0,0,0,0
1664,1765897930006,-442,8359,-388,0,0,0,0,0
1665,1765897930021,-460,8422,-408,0,0,0,0,0
1666,1765897940795,-459,8352,-398,0,0,0,0,0
1667,1765897940994,-460,8344,-406,0,0,0,0,0
1668,1765897941927,-436,8352,-406,0,0,0,0,0
1669,1765897942293,-430,8320,-386,0,0,0,0,0
1670,1765897944025,-450,8420,-456,0,0,0,0,0
1671,1765897944025,-449,8313,-382,0,0,0,0,0
1672,1765897944057,-434,8348,-407,0,0,0,0,0
1673,1765897944074,-437,8348,-370,0,0,0,0,0
1674,1765897944074,-442,8331,-438,0,0,0,0,0
1675,1765897944091,-455,8337,-403,0,0,0,0,0
1676,1765897944741,-455,8327,-407,0,0,0,0,0
1677,1765897945007,-482,8377,-403,0,0,0,0,0
1678,1765897945340,-466,8356,-402,0,0,0,0,0
1679,1765897945489,-460,8342,-407,0,0,0,0,0
1680,1765897947089,-444,8344,-416,0,0,0,0,0
1681,1765897947388,-446,8351,-392,0,0,0,0,0
1682,1765897948454,-446,8328,-404,0,0,0,0,0
1683,1765897948705,-444,8382,-403,0,0,0,0,0
1684,1765897949453,-434,8365,-405,0,0,0,0,0
1685,1765897949754,-425,8368,-418,0,0,0,0,0
1686,1765897949822,-427,8356,-398,0,0,0,0,0
1687,1765897950253,-453,8357,-396,0,0,0,0,0
1688,1765897950503,-455,8357,-403,0,0,0,0,0
1689,1765897950653,-444,8354,-400,0,0,0,0,0
1690,1765897952318,-448,8370,-409,0,0,0,0,0
1691,1765897952451,-448,8348,-414,0,0,0,0,0
1692,1765897952800,-438,8330,-418,0,0,0,0,0
1693,1765897953267,-433,8359,-415,0,0,0,0,0
1694,1765897955166,-454,8314,-408,0,0,0,0,0
1695,1765897957795,-439,8343,-408,0,0,0,0,0
1696,1765897961676,-438,8368,-417,0,0,0,0,0
1697,1765897963408,-434,8330,-408,0,0,0,0,0
1698,1765897967006,-444,8361,-423,0,0,0,0,0
1699,1765897967972,-430,8364,-410,0,0,0,0,0
1700,1765897968254,-404,8345,-397,0,0,0,0,0
1701,1765897968338,-464,8338,-416,0,0,0,0,0
1702,1765897968520,-446,8364,-410,0,0,0,0,0
1703,1765897969171,-436,8346,-398,0,0,0,0,0
1704,1765897972917,-427,8376,-413,0,0,0,0,0
1705,1765897973732,-454,8346,-421,0,0,0,0,0
1706,1765897974899,-449,-24425,-264,0,0,0,0,0
1707,1765897975582,-448,8341,-399,0,0,0,0,0
1708,1765897975699,-461,8360,-394,0,0,0,0,0
1709,1765897976280,-439,8328,-425,0,0,0,0,0
1710,1765897976415,-426,8368,-402,0,0,0,0,0
1711,1765897976780,-441,8330,-396,0,0,0,0,0
1712,1765897977229,-440,8354,-404,0,0,0,0,0
1713,1765897978762,-444,8343,-415,0,0,0,0,0
1714,1765897979561,-436,8346,-432,0,0,0,0,0
1715,1765897981810,-445,8355,-377,0,0,0,0,0
1716,1765897982992,-448,8354,-392,0,0,0,0,0
1717,1765897983159,-453,8363,-418,0,0,0,0,0
1718,1765897986172,-494,8251,-422,0,0,0,0,0
1719,1765897986172,-474,8341,-400,0,0,0,0,0
1720,1765897986222,-454,8350,-402,0,0,0,0,0
1721,1765897986739,-455,8336,-423,0,0,0,0,0
1722,1765897986972,-473,8318,-334,0,0,0,0,0
1723,1765897987537,-443,8375,-428,0,0,0,0,0
1724,1765897987687,-445,8358,-429,0,0,0,0,0
1725,1765897989504,-434,8335,-403,0,0,0,0,0
1726,1765897990019,-433,8338,-350,0,0,0,0,0
1727,1765897990069,-440,8366,-333,0,0,0,0,0
1728,1765897990553,-456,8414,-421,0,0,0,0,0
1729,1765897990822,-422,8321,-423,0,0,0,0,0
1730,1765897991136,-447,8352,-402,0,0,0,0,0
1731,1765897991618,-455,8364,-384,0,0,0,0,0
1732,1765897992284,-456,8358,-393,0,0,0,0,0
1733,1765897992717,-448,8364,-426,0,0,0,0,0
1734,1765897992867,-431,8337,-386,0,0,0,0,0
1735,1765897993450,-450,8366,-412,0,0,0,0,0
1736,1765897994699,-474,8341,-400,0,0,0,0,0
1737,1765897995665,-442,8356,-398,0,0,0,0,0
1738,1765897997696,-457,8369,-408,0,0,0,0,0
1739,1765897997696,-414,8350,-429,0,0,0,0,0
1740,1765897997713,-455,8311,-402,0,0,0,0,0
1741,1765897997713,-460,8351,-425,0,0,0,0,0
1742,1765897997729,-449,8367,-397,0,0,0,0,0
1743,1765897997746,-445,8364,-423,0,0,0,0,0
1744,1765897997746,-442,8356,-396,0,0,0,0,0
1745,1765897997947,-450,8361,-411,0,0,0,0,0
1746,1765897998029,-448,8354,-408,0,0,0,0,0
1747,1765897998795,-470,8344,-379,0,0,0,0,0
1748,1765898000111,-412,8374,-411,0,0,0,0,0
1749,1765898004158,-449,8370,-397,0,0,0,0,0
1750,1765898008888,-436,8365,-412,0,0,0,0,0
1751,1765898008921,-456,8358,-416,0,0,0,0,0
1752,1765898008937,-461,8341,-408,0,0,0,0,0
1753,1765898009137,-439,8383,-407,0,0,0,0,0
1754,1765898009852,-418,8403,-398,0,0,0,0,0
1755,1765898010135,-466,8332,-402,0,0,0,0,0
1756,1765898010368,-462,8355,-406,0,0,0,0,0
1757,1765898010602,-433,8350,-398,0,0,0,0,0
1758,1765898010668,-454,8346,-406,0,0,0,0,0
1759,1765898010934,-433,8362,-392,0,0,0,0,0
1760,1765898011168,-455,8389,-407,0,0,0,0,0
1761,1765898011417,-444,8352,-412,0,0,0,0,0
1762,1765898011751,-436,8345,-398,0,0,0,0,0
1763,1765898012000,-452,8372,-408,0,0,0,0,0
1764,1765898012201,-436,8340,-409,0,0,0,0,0
1765,1765898012466,-448,8348,-414,0,0,0,0,0
1766,1765898012966,-456,8368,-415,0,0,0,0,0
1767,1765898013284,-437,8370,-406,0,0,0,0,0
1768,1765898013766,-429,8347,-412,0,0,0,0,0
1769,1765898014232,-438,28823,-412,0,0,0,0,0
1770,1765898014798,-436,8304,-408,0,0,0,0,0
1771,1765898015282,-437,8365,-401,0,0,0,0,0
1772,1765898015564,-448,8351,-422,0,0,0,0,0
1773,1765898015881,-436,8340,-401,0,0,0,0,0
1774,1765898016048,-430,8367,-405,0,0,0,0,0
1775,1765898016348,-442,8342,-408,0,0,0,0,0
1776,1765898016880,-444,8360,-395,0,0,0,0,0
1777,1765898017663,-440,8379,-403,0,0,0,0,0
1778,1765898017930,-468,8357,-382,0,0,0,0,0
1779,1765898018049,-462,8345,-418,0,0,0,0,0
1780,1765898019895,-433,8364,-408,0,0,0,0,0
1781,1765898019895,-446,8361,-408,0,0,0,0,0
1782,1765898019926,-436,8356,-396,0,0,0,0,0
1783,1765898020826,-417,8384,-411,0,0,0,0,0
1784,1765898022109,-441,8366,-414,0,0,0,0,0
1785,1765898023391,-438,8348,-389,0,0,0,0,0
1786,1765898026689,-447,8362,-404,0,0,0,0,0
1787,1765898027388,-428,8374,-286,0,0,0,0,0
1788,1765898027621,-435,8332,-400,0,0,0,0,0
1789,1765898028121,-455,8362,-408,0,0,0,0,0
1790,1765898028521,-441,8326,-407,0,0,0,0,0
1791,1765898034100,-439,8358,-393,0,0,0,0,0
1792,1765898034597,-444,8348,-404,0,0,0,0,0
1793,1765898035198,-428,8344,-405,0,0,0,0,0
1794,1765898036413,-443,8359,-405,0,0,0,0,0
1795,1765898040228,-433,8351,-402,0,0,0,0,0
1796,1765898041026,-458,8336,-392,0,0,0,0,0
1797,1765898041443,-438,8376,-400,0,0,0,0,0
1798,1765898045823,-445,8342,-396,0,0,0,0,0
1799,1765898047338,-433,8357,-404,0,0,0,0,0
1800,1765898048569,7776,10646,-3434,0,0,0,0,0
1801,1765898050519,-445,8352,-420,0,0,0,0,0
1802,1765898050986,-451,8366,-398,0,0,0,0,0
1803,1765898052168,-444,8354,-406,0,0,0,0,0
1804,1765898053233,-438,8357,-413,0,0,0,0,0
1805,1765898053466,-452,8354,-408,0,0,0,0,0
1806,1765898053765,-451,8350,-402,0,0,0,0,0
1807,1765898053998,-438,8362,-405,0,0,0,0,0
1808,1765898054499,-442,8365,-404,0,0,0,0,0
1809,1765898054998,-442,8366,-417,0,0,0,0,0
1810,1765898056031,-442,8358,-425,0,0,0,0,0
1811,1765898056331,-435,8345,-408,0,0,0,0,0
1812,1765898056664,-461,8361,-399,0,0,0,0,0
1813,1765898058462,-448,8347,-398,0,0,0,0,0
1814,1765898058528,-442,8373,-400,0,0,0,0,0
1815,1765898060310,-422,8360,-423,0,0,0,0,0
1816,1765898062091,-448,8369,-402,0,0,0,0,0
1817,1765898062307,-414,8302,-403,0,0,0,0,0
1818,1765898062491,-398,8396,-389,0,0,0,0,0
1819,1765898062941,-470,8404,-410,0,0,0,0,0
1820,1765898064523,-417,8355,-380,0,0,0,0,0
1821,1765898065456,-397,8356,-397,0,0,0,0,0
1822,1765898065639,-499,8346,-376,0,0,0,0,0
1823,1765898065890,-406,8357,-426,0,0,0,0,0
1824,1765898066321,-446,8342,-410,0,0,0,0,0
1825,1765898069818,-456,8376,-399,0,0,0,0,0
1826,1765898071199,-430,8383,-398,0,0,0,0,0
1827,1765898071916,-428,8380,-396,0,0,0,0,0
1828,1765898072265,-456,8386,-402,0,0,0,0,0
1829,1765898073481,-441,8400,-421,0,0,0,0,0
1830,1765898073964,-438,8357,-424,0,0,0,0,0
1831,1765898074114,-462,8350,-379,0,0,0,0,0
1832,1765898074914,-464,8338,-373,0,0,0,0,0
1833,1765898081059,-397,8357,-374,0,0,0,0,0
1834,1765898081059,-460,8364,-354,0,0,0,0,0
1835,1765898081093,-431,8370,-416,0,0,0,0,0
1836,1765898082107,-437,8381,-418,0,0,0,0,0
1837,1765898082823,-468,8381,-456,0,0,0,0,0
1838,1765898083323,-417,8361,-365,0,0,0,0,0
1839,1765898083923,-480,8370,-364,0,0,0,0,0
1840,1765898084339,-442,8352,-405,0,0,0,0,0
1841,1765898085771,-478,8288,-399,0,0,0,0,0
1842,1765898087688,-444,8370,-402,0,0,0,0,0
1843,1765898087903,-440,8374,-406,0,0,0,0,0
1844,1765898088119,-460,8281,-405,0,0,0,0,0
1845,1765898088419,-437,8392,-476,0,0,0,0,0
1846,1765898089785,-461,8363,-408,0,0,0,0,0
1847,1765898094830,-504,8333,-385,0,0,0,0,0
1848,1765898097994,-451,8316,-397,0,0,0,0,0
1849,1765898098794,-440,8360,-390,0,0,0,0,0
1850,1765898103191,-440,8383,-409,0,0,0,0,0
1851,1765898104471,-447,8355,-403,0,0,0,0,0
1852,1765898108220,-427,8398,-419,0,0,0,0,0
1853,1765898109352,-424,8350,-392,0,0,0,0,0
1854,1765898109535,-440,8346,-424,0,0,0,0,0
1855,1765898112366,-538,8359,-479,0,0,0,0,0
1856,1765898112565,-426,8353,-390,0,0,0,0,0
1857,1765898114547,-449,8354,-434,0,0,0,0,0
1858,1765898114563,-447,8454,-396,0,0,0,0,0
1859,1765898114614,-420,8350,-409,0,0,0,0,0
1860,1765898114797,-454,8228,-344,0,0,0,0,0
1861,1765898119560,-455,8358,-400,0,0,0,0,0
1862,1765898123557,-451,8380,-398,0,0,0,0,0
1863,1765898123773,-425,8332,-401,0,0,0,0,0
1864,1765898126087,-434,8352,-409,0,0,0,0,0
1865,1765898126105,-436,8367,-399,0,0,0,0,0
1866,1765898128602,-449,8257,-398,0,0,0,0,0
1867,1765898133899,-798,8596,680,0,0,0,0,0
1868,1765898135414,251,9496,1261,0,0,0,0,0
1869,1765898136779,1023,8396,1514,0,0,0,0,0
1870,1765898136862,52,7631,732,0,0,0,0,0
1871,1765898138094,262,10074,658,0,0,0,0,0
1872,1765898140732,-1258,7353,1097,0,0,0,0,0
1873,1765898140809,-2704,7050,-738,0,0,0,0,0
1874,1765898140825,-1410,8838,-2340,0,0,0,0,0
1875,1765898141291,-694,7692,-1718,0,0,0,0,0
1876,1765898141474,446,8432,-754,0,0,0,0,0
1877,1765898142073,4074,8496,-2148,0,0,0,0,0
1878,1765898142340,3368,9884,-1506,0,0,0,0,0
1879,1765898145804,-4585,7870,31,0,0,0,0,0
1880,1765898145903,-2946,7758,-555,0,0,0,0,0
1881,1765898146187,-3084,7838,238,0,0,0,0,0
1882,1765898146520,-2684,7195,435,0,0,0,0,0
1883,1765898146703,-5145,7535,-1055,0,0,0,0,0
1884,1765898147054,-3551,7972,-261,0,0,0,0,0
1885,1765898147470,-2504,7456,-252,0,0,0,0,0
1886,1765898147854,-3098,6478,-794,0,0,0,0,0
1887,1765898148337,-4899,9863,-955,0,0,0,0,0
1888,1765898152015,-3379,8482,-967,0,0,0,0,0
1889,1765898152033,-2759,6763,-481,0,0,0,0,0
1890,1765898152066,1224,5591,300,0,0,0,0,0
1891,1765898152616,-4241,7949,144,0,0,0,0,0
1892,1765898153399,-3287,8822,1988,0,0,0,0,0
1893,1765898154130,4938,5874,710,0,0,0,0,0
1894,1765898154446,2944,10211,-412,0,0,0,0,0
1895,1765898154863,1594,9492,-1675,0,0,0,0,0
1896,1765898155195,-2078,8513,-2516,0,0,0,0,0
1897,1765898155445,-3401,8312,-4056,0,0,0,0,0
1898,1765898157011,6402,8545,-1420,0,0,0,0,0
1899,1765898159143,3745,9683,-1678,0,0,0,0,0
1900,1765898159459,3761,8554,-1789,0,0,0,0,0
1901,1765898161042,-2765,8162,-247,0,0,0,0,0
1902,1765898163506,1295,10092,-2786,0,0,0,0,0
1903,1765898163539,-4940,9324,-1674,0,0,0,0,0
1904,1765898163555,-5414,8236,-977,0,0,0,0,0
1905,1765898164687,-3209,8372,273,0,0,0,0,0
1906,1765898164954,-2607,7941,-399,0,0,0,0,0
1907,1765898165103,-4149,8550,732,0,0,0,0,0
1908,1765898165387,-3914,7722,468,0,0,0,0,0
1909,1765898165922,-3032,8918,1318,0,0,0,0,0
1910,1765898166403,-4915,10648,93,0,0,0,0,0
1911,1765898166654,-4246,7738,297,0,0,0,0,0
1912,1765898166802,-5839,9301,1078,0,0,0,0,0
1913,1765898166969,-4207,8672,276,0,0,0,0,0
1914,1765898167152,-3398,8039,52,0,0,0,0,0
1915,1765898167535,-3298,8604,980,0,0,0,0,0
1916,1765898167769,-3232,7701,754,0,0,0,0,0
1917,1765898167919,-3220,8003,1839,0,0,0,0,0
1918,1765898168253,-3474,8812,689,0,0,0,0,0
1919,1765898168552,-1648,7996,486,0,0,0,0,0
1920,1765898168736,-1501,8025,854,0,0,0,0,0
1921,1765898169020,-1795,7836,863,0,0,0,0,0
1922,1765898169201,-993,9946,873,0,0,0,0,0
1923,1765898169734,-481,9212,2074,0,0,0,0,0
1924,1765898169918,-962,7081,868,0,0,0,0,0
1925,1765898170134,-1153,8865,595,0,0,0,0,0
1926,1765898171500,-338,9019,1128,0,0,0,0,0
1927,1765898175214,-4959,8572,-353,0,0,0,0,0
1928,1765898175263,-3724,6962,-337,0,0,0,0,0
1929,1765898176711,-3725,7530,-1592,0,0,0,0,0
1930,1765898178560,-1469,7528,-763,0,0,0,0,0
1931,1765898178726,-337,6246,-627,0,0,0,0,0
1932,1765898178792,-1747,8508,-756,0,0,0,0,0
1933,1765898179442,-1166,8377,-946,0,0,0,0,0
1934,1765898181874,-330,8227,-2008,0,0,0,0,0
1935,1765898186670,-469,8334,-433,0,0,0,0,0
1936,1765898186686,-440,8338,-371,0,0,0,0,0
1937,1765898186703,-435,8346,-454,0,0,0,0,0
1938,1765898186720,-431,8353,-436,0,0,0,0,0
1939,1765898643884,-436,8356,-399,0,0,0,0,0
1940,1765898643969,-371,8388,-389,0,0,0,0,0
1941,1765898644134,-440,8367,-394,0,0,0,0,0
1942,1765898644233,-475,8355,-403,0,0,0,0,0
1943,1765898644351,-396,8389,-394,0,0,0,0,0
1944,1765898644467,-390,8374,-401,0,0,0,0,0
1945,1765898645433,-389,8365,-423,0,0,0,0,0
1946,1765898645566,-406,8364,-426,0,0,0,0,0
1947,1765898645665,-432,8363,-399,0,0,0,0,0
1948,1765898645783,-464,8376,-388,0,0,0,0,0
1949,1765898645898,-414,8406,-369,0,0,0,0,0
1950,1765898645982,-393,8374,-375,0,0,0,0,0
1951,1765898646132,-460,8347,-382,0,0,0,0,0
1952,1765898646199,-456,8368,-380,0,0,0,0,0
1953,1765898646353,-414,8382,-372,0,0,0,0,0
1954,1765898649379,-421,8339,-364,0,0,0,0,0
1955,1765898650079,-453,8345,-387,0,0,0,0,0
1956,1765898650213,-418,8440,-403,0,0,0,0,0
1957,1765898650395,-432,8335,-380,0,0,0,0,0
1958,1765898652570,-398,8404,-455,0,0,0,0,0
1959,1765898652592,-316,8466,-396,0,0,0,0,0
