index,date,ACCEL_X,ACCEL_Y,ACCEL_Z,1,2,3,4,5
0,1765895467031,-205,8427,-635,0,0,0,0,0
1,1765895467398,-222,8448,-642,0,0,0,0,0
2,1765895470265,-233,8424,-639,0,0,0,0,0
3,1765895471948,-226,8439,-642,0,0,0,0,0
4,1765895521313,169,8513,-613,0,0,0,0,0
5,1765895530381,-35,8839,-451,0,0,0,0,0
6,1765895535213,-153,7861,-86,0,0,0,0,0
7,1765895535598,-448,8221,-396,0,0,0,0,0
8,1765895537580,-679,8650,-378,0,0,0,0,0
9,1765895540614,-1098,7945,-196,0,0,0,0,0
10,1765895544914,-622,7711,-426,0,0,0,0,0
11,1765895551129,-1164,8339,-507,0,0,0,0,0
12,1765895556396,-922,8777,-782,0,0,0,0,0
13,1765895556762,226,7313,-608,0,0,0,0,0
14,1765895556980,-328,8215,-656,0,0,0,0,0
15,1765895559530,-690,7822,-806,0,0,0,0,0
16,1765895559946,-310,8636,-458,0,0,0,0,0
17,1765895561763,-214,8716,-662,0,0,0,0,0
18,1765895566495,-206,8356,25,0,0,0,0,0
19,1765895574696,-516,8247,-488,0,0,0,0,0
20,1765895577628,-880,8668,-732,0,0,0,0,0
21,1765895581895,-2214,8244,-791,0,0,0,0,0
22,1765895582579,-2126,9452,-314,0,0,0,0,0
23,1765895582981,-1344,8702,-292,0,0,0,0,0
24,1765895583696,-762,8176,-128,0,0,0,0,0
25,1765895592665,1152,8380,-242,0,0,0,0,0
26,1765895594564,-1861,8354,-566,0,0,0,0,0
27,1765895596146,-1372,7995,-704,0,0,0,0,0
28,1765895605896,-29610,8614,-1639,0,0,0,0,0
29,1765895609963,-1490,9367,-251,0,0,0,0,0
30,1765895610380,2274,8641,-1108,0,0,0,0,0
31,1765895615664,-913,8517,-964,0,0,0,0,0
32,1765895617262,-326,7760,-719,0,0,0,0,0
33,1765895622746,-188,8427,-363,0,0,0,0,0
34,1765895623145,-206,8421,-353,0,0,0,0,0
35,1765895623346,-180,8416,-380,0,0,0,0,0
36,1765895627197,-205,8439,-349,0,0,0,0,0
37,1765895627564,-214,8440,-364,0,0,0,0,0
38,1765895631362,-214,8432,-382,0,0,0,0,0
39,1765895632428,-245,8446,-346,0,0,0,0,0
40,1765895635748,-201,8453,-350,0,0,0,0,0
41,1765895636197,-212,8460,-372,0,0,0,0,0
42,1765895636597,-258,8480,-269,0,0,0,0,0
43,1765895636779,-182,8384,-342,0,0,0,0,0
44,1765895639431,-223,8311,-314,0,0,0,0,0
45,1765895639814,-209,8471,-505,0,0,0,0,0
46,1765895641462,-205,8431,-347,0,0,0,0,0
47,1765895642764,-205,8469,-353,0,0,0,0,0
48,1765895645246,-212,8406,-351,0,0,0,0,0
49,1765895651214,-232,8389,-326,0,0,0,0,0
50,1765895655031,-203,8442,-366,0,0,0,0,0
51,1765895657531,-211,8418,-354,0,0,0,0,0
52,1765895659197,-207,8441,-384,0,0,0,0,0
53,1765895662979,-195,8409,-351,0,0,0,0,0
54,1765895664063,-199,8430,-372,0,0,0,0,0
55,1765895672880,-197,8415,-353,0,0,0,0,0
56,1765895679380,-196,8412,-341,0,0,0,0,0
57,1765895680262,-199,8433,-356,0,0,0,0,0
58,1765895680730,-202,8392,-346,0,0,0,0,0
59,1765895681129,-219,8400,-360,0,0,0,0,0
60,1765895683814,-200,8412,-356,0,0,0,0,0
61,1765895684213,-194,8403,-369,0,0,0,0,0
62,1765895684595,-193,8418,-349,0,0,0,0,0
63,1765895688379,-208,8423,-366,0,0,0,0,0
64,1765895689462,-179,8421,-360,0,0,0,0,0
65,1765895691213,-230,8420,-315,0,0,0,0,0
66,1765895695030,-177,8427,-363,0,0,0,0,0
67,1765895700732,-216,8413,-361,0,0,0,0,0
68,1765895703247,-32240,-32655,19180,0,0,0,0,0
69,1765895704296,1536,12296,4097,0,0,0,0,0
70,1765895704594,-208,8432,-334,0,0,0,0,0
71,1765895717361,-206,8398,-351,0,0,0,0,0
72,1765895722446,-188,8408,-356,0,0,0,0,0
73,1765895725330,-214,8415,-350,0,0,0,0,0
74,1765895727763,-210,8413,-349,0,0,0,0,0
75,1765895730697,-207,8432,-344,0,0,0,0,0
76,1765895736828,-208,8424,-355,0,0,0,0,0
77,1765895738216,-190,8411,-348,0,0,0,0,0
78,1765895740163,-197,8427,-337,0,0,0,0,0
79,1765895742545,-188,8416,-356,0,0,0,0,0
80,1765895744412,-200,8430,-350,0,0,0,0,0
81,1765895744697,-200,8399,-359,0,0,0,0,0
82,1765895748014,-195,8424,-373,0,0,0,0,0
83,1765895748411,-222,8400,-353,0,0,0,0,0
84,1765895749379,-206,8429,-370,0,0,0,0,0
85,1765895751048,-204,8415,-348,0,0,0,0,0
86,1765895752648,-206,8426,-335,0,0,0,0,0
87,1765895753466,-213,8404,-336,0,0,0,0,0
88,1765895757815,-186,8261,-379,0,0,0,0,0
89,1765895760246,-251,8395,-395,0,0,0,0,0
90,1765895764116,-214,8504,-355,0,0,0,0,0
91,1765895765415,-213,8419,-355,0,0,0,0,0
92,1765895767032,-222,8412,-338,0,0,0,0,0
93,1765895767913,-211,8406,-364,0,0,0,0,0
94,1765895769199,-200,8407,-340,0,0,0,0,0
95,1765895781845,-196,8438,-332,0,0,0,0,0
96,1765895783429,-214,8424,-350,0,0,0,0,0
97,1765895784779,-189,8413,-362,0,0,0,0,0
98,1765895785829,-230,8398,-348,0,0,0,0,0
99,1765895786179,-206,8432,-330,0,0,0,0,0
100,1765895788579,-281,8408,-352,0,0,0,0,0
101,1765895789812,-188,8403,-356,0,0,0,0,0
102,1765895790780,-207,8400,-354,0,0,0,0,0
103,1765895792062,-208,8410,-344,0,0,0,0,0
104,1765895796796,-189,8418,-368,0,0,0,0,0
105,1765895799596,-222,8408,-340,0,0,0,0,0
106,1765895801195,-197,8413,-350,0,0,0,0,0
107,1765895807278,-205,8425,-347,0,0,0,0,0
108,1765895808246,-207,8412,-352,0,0,0,0,0
109,1765895897212,-189,8397,-360,0,0,0,0,0
110,1765895897295,-168,8404,-378,0,0,0,0,0
111,1765895897443,-224,8412,-372,0,0,0,0,0
112,1765895897544,-200,8395,-369,0,0,0,0,0
113,1765895897678,-166,8421,-363,0,0,0,0,0
114,1765895897776,-271,8423,-366,0,0,0,0,0
115,1765895897895,-190,8408,-334,0,0,0,0,0
116,1765895898028,-191,8422,-393,0,0,0,0,0
117,1765895898127,-218,8412,-366,0,0,0,0,0
118,1765895904861,-202,8394,-313,0,0,0,0,0
119,1765895908044,-207,8419,-334,0,0,0,0,0
120,1765895910545,-220,8419,-357,0,0,0,0,0
121,1765895915894,-202,8416,-360,0,0,0,0,0
122,1765895917028,-194,8403,-358,0,0,0,0,0
123,1765895925143,-179,8407,-356,0,0,0,0,0
124,1765895926215,-218,8438,-355,0,0,0,0,0
125,1765895928928,-205,8418,-369,0,0,0,0,0
126,1765895929361,-202,8386,-341,0,0,0,0,0
127,1765895931828,-197,8413,-356,0,0,0,0,0
128,1765895932692,-214,8407,-340,0,0,0,0,0
129,1765895934260,-197,8422,-350,0,0,0,0,0
130,1765895936709,-204,8411,-343,0,0,0,0,0
131,1765895937728,-206,8428,-360,0,0,0,0,0
132,1765895939711,-211,8408,-354,0,0,0,0,0
133,1765895942328,-201,8428,-353,0,0,0,0,0
134,1765895943811,-203,8428,-321,0,0,0,0,0
135,1765895947193,-205,8419,-376,0,0,0,0,0
136,1765895950409,-226,8397,-333,0,0,0,0,0
137,1765895951844,-209,8377,-374,0,0,0,0,0
138,1765895955561,-190,8392,-374,0,0,0,0,0
139,1765895957844,-210,8422,-355,0,0,0,0,0
140,1765895959245,-224,8412,-356,0,0,0,0,0
141,1765895960977,-237,8416,-332,0,0,0,0,0
142,1765895962292,-194,8428,-336,0,0,0,0,0
143,1765895964060,-214,8410,-359,0,0,0,0,0
144,1765895965393,-202,8419,-346,0,0,0,0,0
145,1765895967145,-195,8417,-347,0,0,0,0,0
146,1765895967660,-201,8404,-315,0,0,0,0,0
147,1765895968093,-218,8436,-326,0,0,0,0,0
148,1765895970911,-205,8458,-341,0,0,0,0,0
149,1765895973342,-180,8432,-345,0,0,0,0,0
150,1765895975243,-198,8428,-360,0,0,0,0,0
151,1765895975677,-208,8408,-353,0,0,0,0,0
152,1765895976993,-216,8421,-338,0,0,0,0,0
153,1765895978342,-197,8426,-337,0,0,0,0,0
154,1765895980159,-212,8413,-354,0,0,0,0,0
155,1765895981494,-202,8393,-362,0,0,0,0,0
156,1765895982810,-196,8405,-352,0,0,0,0,0
157,1765895984410,-175,8418,-350,0,0,0,0,0
158,1765895986175,-198,8415,-370,0,0,0,0,0
159,1765895987528,-198,8422,-362,0,0,0,0,0
160,1765895989326,-213,8414,-373,0,0,0,0,0
161,1765895990609,-213,8407,-360,0,0,0,0,0
162,1765895992377,-202,8419,-335,0,0,0,0,0
163,1765895993727,-210,8421,-381,0,0,0,0,0
164,1765895995043,-235,8408,-296,0,0,0,0,0
165,1765895995478,-178,8438,-392,0,0,0,0,0
166,1765895996843,-194,8410,-364,0,0,0,0,0
167,1765895998193,-203,8420,-364,0,0,0,0,0
168,1765895999777,-200,8412,-352,0,0,0,0,0
169,1765896001558,-208,8421,-379,0,0,0,0,0
170,1765896002909,-200,8421,-349,0,0,0,0,0
171,1765896004227,-208,8428,-352,0,0,0,0,0
172,1765896007577,-191,8436,-350,0,0,0,0,0
173,1765896008943,-208,8424,-358,0,0,0,0,0
174,1765896010294,-178,8376,-355,0,0,0,0,0
175,1765896010743,-195,8442,-337,0,0,0,0,0
176,1765896012042,-187,8427,-356,0,0,0,0,0
177,1765896015442,-218,8488,-340,0,0,0,0,0
178,1765896016776,-196,8412,-380,0,0,0,0,0
179,1765896018376,-247,8291,-262,0,0,0,0,0
180,1765896020126,-73,8491,-411,0,0,0,0,0
181,1765896021477,-470,8566,-469,0,0,0,0,0
182,1765896022775,-202,8394,-362,0,0,0,0,0
183,1765896023225,-210,8451,-364,0,0,0,0,0
184,1765896024591,-193,8414,-354,0,0,0,0,0
185,1765896027542,-186,8526,-317,0,0,0,0,0
186,1765896028877,-168,8398,-344,0,0,0,0,0
187,1765896029327,-226,8409,-356,0,0,0,0,0
188,1765896030677,-167,8366,-317,0,0,0,0,0
189,1765896034242,-210,8418,-350,0,0,0,0,0
190,1765896035560,-195,8399,-342,0,0,0,0,0
191,1765896037157,-230,8390,-356,0,0,0,0,0
192,1765896038942,-190,8444,-357,0,0,0,0,0
193,1765896040259,-175,8409,-358,0,0,0,0,0
194,1765896041609,-196,8431,-346,0,0,0,0,0
195,1765896043392,-220,8416,-329,0,0,0,0,0
196,1765896044959,-202,8408,-360,0,0,0,0,0
197,1765896046310,-203,8418,-345,0,0,0,0,0
198,1765896046759,-213,8391,-309,0,0,0,0,0
199,1765896048076,-199,8412,-354,0,0,0,0,0
200,1765896049393,-191,8410,-346,0,0,0,0,0
201,1765896051177,-211,8404,-355,0,0,0,0,0
202,1765896052793,-221,8400,-325,0,0,0,0,0
203,1765896054126,-187,8422,-321,0,0,0,0,0
204,1765896055925,-220,8368,-359,0,0,0,0,0
205,1765896057226,-192,8424,-340,0,0,0,0,0
206,1765896058544,-202,8373,-334,0,0,0,0,0
207,1765896058975,-241,8414,-351,0,0,0,0,0
208,1765896060325,-180,8351,-363,0,0,0,0,0
209,1765896061626,-208,8415,-342,0,0,0,0,0
210,1765896063409,-202,8425,-352,0,0,0,0,0
211,1765896064943,-159,8382,-334,0,0,0,0,0
212,1765896066741,-158,8389,-342,0,0,0,0,0
213,1765896068042,-198,8389,-348,0,0,0,0,0
214,1765896069394,-243,8341,-362,0,0,0,0,0
215,1765896071443,-209,8400,-313,0,0,0,0,0
216,1765896072791,-194,8420,-328,0,0,0,0,0
217,1765896074142,-192,8408,-342,0,0,0,0,0
218,1765896075860,-214,8402,-338,0,0,0,0,0
219,1765896087375,-207,8398,-356,0,0,0,0,0
220,1765896087475,-199,8346,-387,0,0,0,0,0
221,1765896087625,-222,8454,-371,0,0,0,0,0
222,1765896087726,-176,8405,-317,0,0,0,0,0
223,1765896087842,-194,8384,-361,0,0,0,0,0
224,1765896087959,-241,8420,-371,0,0,0,0,0
225,1765896088075,-211,8408,-404,0,0,0,0,0
226,1765896088208,-189,8380,-385,0,0,0,0,0
227,1765896088308,-189,8432,-327,0,0,0,0,0
228,1765896094091,-208,8394,-322,0,0,0,0,0
229,1765896096091,-218,8371,-381,0,0,0,0,0
230,1765896098709,-229,8386,-379,0,0,0,0,0
231,1765896103892,-211,8403,-347,0,0,0,0,0
232,1765896104875,-202,8411,-351,0,0,0,0,0
233,1765896111726,-208,8410,-348,0,0,0,0,0
234,1765896114943,-168,8308,-310,0,0,0,0,0
235,1765896116261,-223,8461,-322,0,0,0,0,0
236,1765896118544,-245,8404,-271,0,0,0,0,0
237,1765896120476,-227,8409,-335,0,0,0,0,0
238,1765896123426,-220,8412,-336,0,0,0,0,0
239,1765896130524,-216,8395,-353,0,0,0,0,0
240,1765896132107,-200,8384,-347,0,0,0,0,0
241,1765896132975,-226,8403,-296,0,0,0,0,0
242,1765896133676,-187,8407,-362,0,0,0,0,0
243,1765896136508,-200,8372,-328,0,0,0,0,0
244,1765896136876,-197,8385,-359,0,0,0,0,0
245,1765896139475,-202,8408,-340,0,0,0,0,0
246,1765896140776,-196,8431,-325,0,0,0,0,0
247,1765896141108,-136,8441,-264,0,0,0,0,0
248,1765896142425,-231,8408,-360,0,0,0,0,0
249,1765896144125,-206,8399,-328,0,0,0,0,0
250,1765896146244,-182,8366,-312,0,0,0,0,0
251,1765896148559,-165,8403,-348,0,0,0,0,0
252,1765896151290,-171,8440,-378,0,0,0,0,0
253,1765896152590,-179,8350,-330,0,0,0,0,0
254,1765896155008,-210,8399,-338,0,0,0,0,0
255,1765896156844,-204,8408,-342,0,0,0,0,0
256,1765896158025,-208,8375,-330,0,0,0,0,0
257,1765896159610,-226,8357,-339,0,0,0,0,0
258,1765896159992,-211,8418,-327,0,0,0,0,0
259,1765896161558,-174,8376,-316,0,0,0,0,0
260,1765896164308,-197,8366,-324,0,0,0,0,0
261,1765896164710,-194,8390,-340,0,0,0,0,0
262,1765896165906,-206,8399,-350,0,0,0,0,0
263,1765896167074,-210,8405,-340,0,0,0,0,0
264,1765896170026,-214,8386,-351,0,0,0,0,0
265,1765896171576,-192,8382,-328,0,0,0,0,0
266,1765896172924,-203,8359,-348,0,0,0,0,0
267,1765896173341,-204,8401,-364,0,0,0,0,0
268,1765896174475,-213,8414,-320,0,0,0,0,0
269,1765896176493,-210,8382,-336,0,0,0,0,0
270,1765896181824,-217,8421,-336,0,0,0,0,0
271,1765896183341,-192,8413,-333,0,0,0,0,0
272,1765896188558,-234,8408,-350,0,0,0,0,0
273,1765896191958,-24008,-32608,18980,0,0,0,0,0
274,1765896194241,-297,8428,-9,0,0,0,0,0
275,1765896196940,-424,8346,117,0,0,0,0,0
276,1765896198074,-212,8140,27,0,0,0,0,0
277,1765896200525,-522,8179,-820,0,0,0,0,0
278,1765896201924,-703,8356,-27,0,0,0,0,0
279,1765896208191,-352,7759,-621,0,0,0,0,0
280,1765896212008,-186,8068,-812,0,0,0,0,0
281,1765896213593,-417,8306,-733,0,0,0,0,0
282,1765896217041,-494,8442,-738,0,0,0,0,0
283,1765896218023,-485,8288,-755,0,0,0,0,0
284,1765896224606,-392,8382,-504,0,0,0,0,0
285,1765896226674,-388,8381,-492,0,0,0,0,0
286,1765896228541,-400,8386,-490,0,0,0,0,0
287,1765896231374,-408,8400,-500,0,0,0,0,0
288,1765896231724,-404,8399,-496,0,0,0,0,0
289,1765896234774,-386,8366,-480,0,0,0,0,0
290,1765896236259,-404,8390,-501,0,0,0,0,0
291,1765896240639,-420,8404,-509,0,0,0,0,0
292,1765896251326,-404,8366,-507,0,0,0,0,0
293,1765896251858,-395,8400,-500,0,0,0,0,0
294,1765896256206,-403,8388,-485,0,0,0,0,0
295,1765896257455,-390,8369,-499,0,0,0,0,0
296,1765896257873,-413,8400,-500,0,0,0,0,0
297,1765896259276,-391,8378,-491,0,0,0,0,0
298,1765896264389,-387,8394,-502,0,0,0,0,0
299,1765896265857,-411,8375,-500,0,0,0,0,0
300,1765896267707,-411,8383,-496,0,0,0,0,0
301,1765896270041,-390,8386,-499,0,0,0,0,0
302,1765896272192,-402,8381,-481,0,0,0,0,0
303,1765896272592,-306,8360,-526,0,0,0,0,0
304,1765896276310,-422,8374,-498,0,0,0,0,0
305,1765896278258,-317,8450,-540,0,0,0,0,0
306,1765896278511,-432,8374,-484,0,0,0,0,0
307,1765896278608,-420,8357,-478,0,0,0,0,0
308,1765896278742,-381,8402,-489,0,0,0,0,0
309,1765896278844,-398,8385,-488,0,0,0,0,0
310,1765896278975,-421,8356,-489,0,0,0,0,0
311,1765896280591,-406,8364,-508,0,0,0,0,0
312,1765896280907,-398,8381,-476,0,0,0,0,0
313,1765896281426,-400,8370,-508,0,0,0,0,0
314,1765896286509,-402,8380,-500,0,0,0,0,0
315,1765896287859,-398,8373,-486,0,0,0,0,0
316,1765896297191,-408,8384,-508,0,0,0,0,0
317,1765896297276,-399,8382,-510,0,0,0,0,0
318,1765896297439,-368,8384,-497,0,0,0,0,0
319,1765896297545,-390,8387,-511,0,0,0,0,0
320,1765896297658,-430,8371,-492,0,0,0,0,0
321,1765896297774,-398,8384,-509,0,0,0,0,0
322,1765896297896,-371,8395,-508,0,0,0,0,0
323,1765896298027,-420,8357,-496,0,0,0,0,0
324,1765896298130,-416,8384,-502,0,0,0,0,0
325,1765896298206,-415,8377,-505,0,0,0,0,0
326,1765896303952,-404,8382,-493,0,0,0,0,0
327,1765896305726,-402,8380,-483,0,0,0,0,0
328,1765896307435,-396,8389,-489,0,0,0,0,0
329,1765896307871,-401,8373,-488,0,0,0,0,0
330,1765896312115,-388,8399,-494,0,0,0,0,0
331,1765896313453,-406,8397,-494,0,0,0,0,0
332,1765896317688,-402,8385,-487,0,0,0,0,0
333,1765896320334,-384,8369,-478,0,0,0,0,0
334,1765896321990,-408,8394,-495,0,0,0,0,0
335,1765896325414,-411,8346,-542,0,0,0,0,0
336,1765896334825,-765,9278,-301,0,0,0,0,0
337,1765896335124,-602,8208,-458,0,0,0,0,0
338,1765896335564,90,7952,-385,0,0,0,0,0
339,1765896342971,-1303,7590,-35,0,0,0,0,0
340,1765896346554,-130,8520,-192,0,0,0,0,0
341,1765896346902,-596,8764,-299,0,0,0,0,0
342,1765896347318,-798,8259,-794,0,0,0,0,0
343,1765896349918,-957,8471,-889,0,0,0,0,0
344,1765896350582,-1173,9034,-3479,0,0,0,0,0
345,1765896350945,-567,7885,-2996,0,0,0,0,0
346,1765896351844,-422,8384,-642,0,0,0,0,0
347,1765896352829,-433,8345,-516,0,0,0,0,0
348,1765896356147,-432,8376,-434,0,0,0,0,0
349,1765896358609,-423,8402,-462,0,0,0,0,0
350,1765896358986,-448,8382,-420,0,0,0,0,0
351,1765896360396,-440,8379,-484,0,0,0,0,0
352,1765896362938,161,7960,228,0,0,0,0,0
353,1765896363742,-256,8886,96,0,0,0,0,0
354,1765896364108,-271,7922,-238,0,0,0,0,0
355,1765896365129,-481,7993,-157,0,0,0,0,0
356,1765896369657,-417,8408,-376,0,0,0,0,0
357,1765896371919,-514,8355,-456,0,0,0,0,0
358,1765896372321,-416,8446,-405,0,0,0,0,0
359,1765896373135,-437,8362,-415,0,0,0,0,0
360,1765896373526,-500,8464,-243,0,0,0,0,0
361,1765896377126,104,7964,990,0,0,0,0,0
362,1765896380982,7,9294,-79,0,0,0,0,0
363,1765896382067,2803,8007,-1139,0,0,0,0,0
364,1765896384328,2156,9342,110,0,0,0,0,0
365,1765896387175,-3185,7624,-610,0,0,0,0,0
366,1765896387566,-2005,7713,-614,0,0,0,0,0
367,1765896389202,-3216,7464,-555,0,0,0,0,0
368,1765896390845,-8392,7150,-7844,0,0,0,0,0
369,1765896391877,-1100,8949,-586,0,0,0,0,0
370,1765896393736,-2029,8470,650,0,0,0,0,0
371,1765896395174,-1063,8392,92,0,0,0,0,0
372,1765896397326,-2439,8429,-259,0,0,0,0,0
373,1765896400390,4582,7666,-2642,0,0,0,0,0
374,1765896402160,3361,8766,-476,0,0,0,0,0
375,1765896403058,3290,7119,-1436,0,0,0,0,0
376,1765896409624,-1912,8064,-340,0,0,0,0,0
377,1765896411357,-3434,6974,181,0,0,0,0,0
378,1765896412174,-2287,8958,-92,0,0,0,0,0
379,1765896412674,-2037,8170,-598,0,0,0,0,0
380,1765896414360,-1280,9581,-570,0,0,0,0,0
381,1765896418975,365,8541,-59,0,0,0,0,0
382,1765896427810,-1232,9005,861,0,0,0,0,0
383,1765896429113,-418,9150,924,0,0,0,0,0
384,1765896430027,-555,7289,855,0,0,0,0,0
385,1765896432040,-1370,10276,-1292,0,0,0,0,0
386,1765896433090,-1958,9752,-2607,0,0,0,0,0
387,1765896435660,764,8210,-474,0,0,0,0,0
388,1765896439890,650,8366,-816,0,0,0,0,0
389,1765896443932,-1116,8524,-1062,0,0,0,0,0
390,1765896447407,-264,8399,-446,0,0,0,0,0
391,1765896448351,-238,8408,-438,0,0,0,0,0
392,1765896451166,-266,8436,-427,0,0,0,0,0
393,1765896452900,-232,8355,-424,0,0,0,0,0
394,1765896455540,-262,8383,-437,0,0,0,0,0
395,1765896455949,-259,8394,-440,0,0,0,0,0
396,1765896464566,-258,8412,-434,0,0,0,0,0
397,1765896465355,-246,8376,-438,0,0,0,0,0
398,1765896469818,-260,8407,-438,0,0,0,0,0
399,1765896470172,-241,8382,-425,0,0,0,0,0
400,1765896471158,-244,8399,-451,0,0,0,0,0
401,1765896473120,-236,8385,-424,0,0,0,0,0
402,1765896474550,-239,8394,-443,0,0,0,0,0
403,1765896475594,-228,8414,-447,0,0,0,0,0
404,1765896476987,-253,8378,-438,0,0,0,0,0
405,1765896478625,-259,8395,-416,0,0,0,0,0
406,1765896483977,-281,8449,-462,0,0,0,0,0
407,1765896484290,-252,8425,-444,0,0,0,0,0
408,1765896488692,-238,8382,-451,0,0,0,0,0
409,1765896488814,-246,8394,-437,0,0,0,0,0
410,1765896488934,-266,8425,-410,0,0,0,0,0
411,1765896489016,-256,8391,-425,0,0,0,0,0
412,1765896489172,-261,8390,-435,0,0,0,0,0
413,1765896489248,-256,8387,-431,0,0,0,0,0
414,1765896489368,-240,8390,-445,0,0,0,0,0
415,1765896489450,-241,8401,-454,0,0,0,0,0
416,1765896489612,-255,8391,-453,0,0,0,0,0
417,1765896489774,-252,8399,-428,0,0,0,0,0
418,1765896490145,-255,8364,-436,0,0,0,0,0
419,1765896490509,-252,8386,-422,0,0,0,0,0
420,1765896493172,-253,8383,-440,0,0,0,0,0
421,1765896493707,-252,8376,-440,0,0,0,0,0
422,1765896494190,-257,8399,-431,0,0,0,0,0
423,1765896494519,-238,8408,-440,0,0,0,0,0
424,1765896494800,-242,8410,-439,0,0,0,0,0
425,1765896495206,-257,8359,-454,0,0,0,0,0
426,1765896497926,-252,8417,-427,0,0,0,0,0
427,1765896502015,-231,8370,-446,0,0,0,0,0
428,1765896502465,-251,8430,-452,0,0,0,0,0
429,1765896503254,-254,8370,-430,0,0,0,0,0
430,1765896504786,-252,8408,-444,0,0,0,0,0
431,1765896505328,-277,8382,-425,0,0,0,0,0
432,1765896505590,-259,8366,-440,0,0,0,0,0
433,1765896505859,-269,8397,-426,0,0,0,0,0
434,1765896506784,-235,8398,-442,0,0,0,0,0
435,1765896510090,-246,8382,-441,0,0,0,0,0
436,1765896511393,-289,8366,-444,0,0,0,0,0
437,1765896511745,-256,8409,-446,0,0,0,0,0
438,1765896511910,-232,8380,-442,0,0,0,0,0
439,1765896512162,-258,8384,-448,0,0,0,0,0
440,1765896513739,-252,8387,-430,0,0,0,0,0
441,1765896515526,-254,8396,-444,0,0,0,0,0
442,1765896515899,-262,8394,-430,0,0,0,0,0
443,1765896516203,-248,8406,-436,0,0,0,0,0
444,1765896517804,-246,8379,-423,0,0,0,0,0
445,1765896518619,-274,8371,-442,0,0,0,0,0
446,1765896518846,-266,8383,-442,0,0,0,0,0
447,1765896519036,-258,8391,-425,0,0,0,0,0
448,1765896519418,-265,8414,-440,0,0,0,0,0
449,1765896519688,-257,8380,-436,0,0,0,0,0
450,1765896521943,-261,8379,-446,0,0,0,0,0
451,1765896523001,-254,8396,-438,0,0,0,0,0
452,1765896523082,-239,8400,-427,0,0,0,0,0
453,1765896523327,-256,8388,-433,0,0,0,0,0
454,1765896524700,-260,8385,-423,0,0,0,0,0
455,1765896525219,-247,8391,-436,0,0,0,0,0
456,1765896525766,-236,8380,-438,0,0,0,0,0
457,1765896527957,-273,8338,-433,0,0,0,0,0
458,1765896529620,-252,8398,-427,0,0,0,0,0
459,1765896529620,-253,8400,-440,0,0,0,0,0
460,1765896529620,-269,8370,-438,0,0,0,0,0
461,1765896529620,-246,8399,-435,0,0,0,0,0
462,1765896529740,-253,8398,-428,0,0,0,0,0
463,1765896529776,-247,8384,-430,0,0,0,0,0
464,1765896530508,-250,8393,-434,0,0,0,0,0
465,1765896530681,-245,8404,-440,0,0,0,0,0
466,1765896530861,-252,8380,-442,0,0,0,0,0
467,1765896530918,-254,8389,-440,0,0,0,0,0
468,1765896532215,-251,8392,-426,0,0,0,0,0
469,1765896532511,-247,8403,-444,0,0,0,0,0
470,1765896532545,-252,8381,-433,0,0,0,0,0
471,1765896532972,-253,8382,-439,0,0,0,0,0
472,1765896533170,-234,8396,-439,0,0,0,0,0
473,1765896533364,-250,8407,-430,0,0,0,0,0
474,1765896534700,-260,8383,-435,0,0,0,0,0
475,1765896535467,-254,8402,-446,0,0,0,0,0
476,1765896535650,-246,8384,-433,0,0,0,0,0
477,1765896535848,-252,8396,-418,0,0,0,0,0
478,1765896536256,-277,8359,-436,0,0,0,0,0
479,1765896537903,-248,8404,-435,0,0,0,0,0
480,1765896538028,-264,8405,-434,0,0,0,0,0
481,1765896538261,-238,8333,-459,0,0,0,0,0
482,1765896538695,-264,8388,-432,0,0,0,0,0
483,1765896733728,-229,8406,-440,0,0,0,0,0
484,1765896733875,-252,8410,-464,0,0,0,0,0
485,1765896733950,-275,8406,-457,0,0,0,0,0
486,1765896734116,-244,8396,-462,0,0,0,0,0
487,1765896734167,-220,8410,-448,0,0,0,0,0
488,1765896734299,-251,8410,-463,0,0,0,0,0
489,1765896734405,-251,8408,-444,0,0,0,0,0
490,1765896734519,-240,8414,-448,0,0,0,0,0
491,1765896734628,-240,8401,-454,0,0,0,0,0
492,1765896736460,-244,8411,-450,0,0,0,0,0
493,1765896992130,-245,8394,-476,0,0,0,0,0
494,1765896992215,-232,8448,-468,0,0,0,0,0
495,1765896992366,-250,8388,-480,0,0,0,0,0
496,1765896992465,-268,8382,-446,0,0,0,0,0
497,1765896992598,-252,8418,-437,0,0,0,0,0
498,1765896992714,-233,8416,-459,0,0,0,0,0
499,1765896992830,-246,8396,-453,0,0,0,0,0
500,1765896992964,-259,8400,-463,0,0,0,0,0
501,1765896993064,-250,8410,-457,0,0,0,0,0
502,1765896993428,-247,8394,-453,0,0,0,0,0
503,1765896993845,-241,8420,-461,0,0,0,0,0
504,1765896998546,-245,8404,-437,0,0,0,0,0
505,1765897001517,-246,8394,-435,0,0,0,0,0
506,1765897006618,-251,8409,-446,0,0,0,0,0
507,1765897009593,-248,8389,-446,0,0,0,0,0
508,1765897010085,-251,8393,-437,0,0,0,0,0
509,1765897010463,-257,8390,-435,0,0,0,0,0
510,1765897010901,-244,8386,-437,0,0,0,0,0
511,1765897011323,-243,8408,-442,0,0,0,0,0
512,1765897021784,-254,8394,-433,0,0,0,0,0
513,1765897027986,-282,8343,-471,0,0,0,0,0
514,1765897029560,-236,8352,-443,0,0,0,0,0
515,1765897029627,-227,8455,-372,0,0,0,0,0
516,1765897029804,-296,8370,-333,0,0,0,0,0
517,1765897029873,-241,8388,-404,0,0,0,0,0
518,1765897030055,-230,8427,-478,0,0,0,0,0
519,1765897030094,-226,8352,-440,0,0,0,0,0
520,1765897030213,-206,8502,-497,0,0,0,0,0
521,1765897030324,-293,8318,-469,0,0,0,0,0
522,1765897030465,-274,8356,-442,0,0,0,0,0
523,1765897030579,-208,8475,-454,0,0,0,0,0
524,1765897030693,-217,8397,-406,0,0,0,0,0
525,1765897030810,-289,8363,-402,0,0,0,0,0
526,1765897030965,-256,8444,-407,0,0,0,0,0
527,1765897031034,-214,8373,-434,0,0,0,0,0
528,1765897031283,-228,8395,-440,0,0,0,0,0
529,1765897031354,-278,8372,-454,0,0,0,0,0
530,1765897031503,-248,8406,-438,0,0,0,0,0
531,1765897031613,-234,8381,-444,0,0,0,0,0
532,1765897031718,-238,8421,-424,0,0,0,0,0
533,1765897031821,-252,8384,-418,0,0,0,0,0
534,1765897031973,-248,8424,-458,0,0,0,0,0
535,1765897032076,-229,8389,-431,0,0,0,0,0
536,1765897032210,-228,8408,-440,0,0,0,0,0
537,1765897032246,-256,8375,-474,0,0,0,0,0
538,1765897032425,-243,8372,-419,0,0,0,0,0
539,1765897032488,-232,8406,-386,0,0,0,0,0
540,1765897032683,-253,8420,-398,0,0,0,0,0
541,1765897032714,-249,8423,-425,0,0,0,0,0
542,1765897032914,-223,8367,-491,0,0,0,0,0
543,1765897032950,-285,8434,-447,0,0,0,0,0
544,1765897033130,-229,8404,-446,0,0,0,0,0
545,1765897033199,-251,8404,-440,0,0,0,0,0
546,1765897033235,-250,8398,-442,0,0,0,0,0
547,1765897033411,-245,8405,-444,0,0,0,0,0
548,1765897033449,-245,8404,-428,0,0,0,0,0
549,1765897033619,-252,8397,-436,0,0,0,0,0
550,1765897033690,-270,8388,-412,0,0,0,0,0
551,1765897034233,-232,8402,-436,0,0,0,0,0
552,1765897034272,-223,8412,-450,0,0,0,0,0
553,1765897034272,-243,8397,-438,0,0,0,0,0
554,1765897034272,-248,8404,-444,0,0,0,0,0
555,1765897034272,-250,8394,-436,0,0,0,0,0
556,1765897034412,-252,8396,-416,0,0,0,0,0
557,1765897034474,-255,8412,-412,0,0,0,0,0
558,1765897034643,-260,8382,-417,0,0,0,0,0
559,1765897034678,-243,8407,-425,0,0,0,0,0
560,1765897034846,-252,8409,-452,0,0,0,0,0
561,1765897034910,-241,8380,-444,0,0,0,0,0
562,1765897035083,-248,8395,-460,0,0,0,0,0
563,1765897035190,-234,8418,-462,0,0,0,0,0
564,1765897035256,-255,8400,-441,0,0,0,0,0
565,1765897035429,-262,8375,-414,0,0,0,0,0
566,1765897035466,-230,8386,-435,0,0,0,0,0
567,1765897035639,-244,8449,-460,0,0,0,0,0
568,1765897035673,-248,8360,-405,0,0,0,0,0
569,1765897035866,-252,8382,-415,0,0,0,0,0
570,1765897035929,-261,8435,-440,0,0,0,0,0
571,1765897036062,-235,8380,-434,0,0,0,0,0
572,1765897036189,-238,8418,-413,0,0,0,0,0
573,1765897036224,-234,8425,-424,0,0,0,0,0
574,1765897036434,-252,8382,-428,0,0,0,0,0
575,1765897036474,-258,8364,-408,0,0,0,0,0
576,1765897036640,-262,8421,-446,0,0,0,0,0
577,1765897036703,-243,8433,-445,0,0,0,0,0
578,1765897036829,-234,8378,-460,0,0,0,0,0
579,1765897036928,-256,8354,-444,0,0,0,0,0
580,1765897037031,-254,8434,-436,0,0,0,0,0
581,1765897037156,-281,8380,-428,0,0,0,0,0
582,1765897037227,-267,8417,-450,0,0,0,0,0
583,1765897037371,-220,8385,-430,0,0,0,0,0
584,1765897037469,-202,8394,-452,0,0,0,0,0
585,1765897037578,-255,8414,-442,0,0,0,0,0
586,1765897037686,-282,8406,-439,0,0,0,0,0
587,1765897037801,-255,8368,-448,0,0,0,0,0
588,1765897037919,-226,8408,-425,0,0,0,0,0
589,1765897038039,-219,8448,-453,0,0,0,0,0
590,1765897038119,-271,8387,-422,0,0,0,0,0
591,1765897038245,-268,8359,-420,0,0,0,0,0
592,1765897038323,-218,8418,-451,0,0,0,0,0
593,1765897038483,-241,8420,-442,0,0,0,0,0
594,1765897038523,-256,8361,-446,0,0,0,0,0
595,1765897039463,-234,8372,-433,0,0,0,0,0
596,1765897040016,-247,8430,-404,0,0,0,0,0
597,1765897040291,-264,8358,-448,0,0,0,0,0
598,1765897043036,-264,8402,-440,0,0,0,0,0
599,1765897043188,-230,8401,-452,0,0,0,0,0
600,1765897045321,-256,8414,-422,0,0,0,0,0
601,1765897045650,-242,8288,-394,0,0,0,0,0
602,1765897046118,-222,8469,-451,0,0,0,0,0
603,1765897047183,-235,8401,-429,0,0,0,0,0
604,1765897047302,-303,8362,-412,0,0,0,0,0
605,1765897047414,-230,8442,-396,0,0,0,0,0
606,1765897047749,-242,8346,-427,0,0,0,0,0
607,1765897049037,-225,8402,-426,0,0,0,0,0
608,1765897049321,-210,8397,-446,0,0,0,0,0
609,1765897049698,-259,8372,-449,0,0,0,0,0
610,1765897050777,-216,8386,-455,0,0,0,0,0
611,1765897051423,-251,8384,-423,0,0,0,0,0
612,1765897051799,-250,8392,-427,0,0,0,0,0
613,1765897052035,-246,8378,-429,0,0,0,0,0
614,1765897052412,-281,8392,-406,0,0,0,0,0
615,1765897052557,-262,8416,-446,0,0,0,0,0
616,1765897052799,-264,8400,-443,0,0,0,0,0
617,1765897052865,-230,8404,-436,0,0,0,0,0
618,1765897053180,-248,8394,-428,0,0,0,0,0
619,1765897053248,-239,8400,-423,0,0,0,0,0
620,1765897053390,-268,8380,-438,0,0,0,0,0
621,1765897053846,-222,8396,-406,0,0,0,0,0
622,1765897053928,-241,8404,-446,0,0,0,0,0
623,1765897054340,-258,8405,-420,0,0,0,0,0
624,1765897054691,-246,8393,-443,0,0,0,0,0
625,1765897054891,-239,8389,-433,0,0,0,0,0
626,1765897056980,-255,8393,-428,0,0,0,0,0
627,1765897057424,-246,8381,-446,0,0,0,0,0
628,1765897058762,-241,8424,-473,0,0,0,0,0
629,1765897060229,-248,8412,-418,0,0,0,0,0
630,1765897061890,-233,8373,-428,0,0,0,0,0
631,1765897062276,-286,8380,-420,0,0,0,0,0
632,1765897063310,-234,8381,-431,0,0,0,0,0
633,1765897064745,-291,8364,-417,0,0,0,0,0
634,1765897068140,-235,8408,-431,0,0,0,0,0
635,1765897068864,-252,8394,-442,0,0,0,0,0
636,1765897068995,-240,8401,-434,0,0,0,0,0
637,1765897069330,-242,8392,-438,0,0,0,0,0
638,1765897069361,-247,8392,-441,0,0,0,0,0
639,1765897069393,-253,8382,-431,0,0,0,0,0
640,1765897069693,-251,8388,-439,0,0,0,0,0
641,1765897069890,-248,8396,-433,0,0,0,0,0
642,1765897070138,-244,8397,-438,0,0,0,0,0
643,1765897070496,-252,8398,-430,0,0,0,0,0
644,1765897070668,-260,8392,-437,0,0,0,0,0
645,1765897070742,-244,8399,-430,0,0,0,0,0
646,1765897071940,-260,8390,-437,0,0,0,0,0
647,1765897072125,-236,8401,-414,0,0,0,0,0
648,1765897072502,-242,8378,-434,0,0,0,0,0
649,1765897073827,-250,8382,-430,0,0,0,0,0
650,1765897073908,-243,8394,-428,0,0,0,0,0
651,1765897074524,-253,8404,-462,0,0,0,0,0
652,1765897075809,-255,8392,-448,0,0,0,0,0
653,1765897078264,-215,8399,-434,0,0,0,0,0
654,1765897080006,-248,8398,-438,0,0,0,0,0
655,1765897080438,-245,8394,-431,0,0,0,0,0
656,1765897081102,-246,8390,-438,0,0,0,0,0
657,1765897081984,-254,8399,-446,0,0,0,0,0
658,1765897082201,-246,8394,-433,0,0,0,0,0
659,1765897082629,-250,8400,-431,0,0,0,0,0
660,1765897083038,-249,8396,-432,0,0,0,0,0
661,1765897083470,-246,8389,-431,0,0,0,0,0
662,1765897084284,-249,8391,-437,0,0,0,0,0
663,1765897084577,-256,8389,-425,0,0,0,0,0
664,1765897084690,-258,8387,-444,0,0,0,0,0
665,1765897084810,-250,8388,-424,0,0,0,0,0
666,1765897084988,-246,8390,-434,0,0,0,0,0
667,1765897086069,-243,8396,-433,0,0,0,0,0
668,1765897089309,-246,8388,-440,0,0,0,0,0
669,1765897089309,-260,8399,-431,0,0,0,0,0
670,1765897089851,-246,8381,-442,0,0,0,0,0
671,1765897090610,-241,8394,-434,0,0,0,0,0
672,1765897092036,-236,8376,-430,0,0,0,0,0
673,1765897092330,-256,8376,-436,0,0,0,0,0
674,1765897092697,-255,8406,-437,0,0,0,0,0
675,1765897095855,-252,8394,-419,0,0,0,0,0
676,1765897097404,-251,8379,-424,0,0,0,0,0
677,1765897097578,-255,8415,-446,0,0,0,0,0
678,1765897098791,-252,8402,-445,0,0,0,0,0
679,1765897099280,-255,8386,-430,0,0,0,0,0
680,1765897099509,-258,8395,-433,0,0,0,0,0
681,1765897099686,-253,8395,-441,0,0,0,0,0
682,1765897100795,-269,8383,-445,0,0,0,0,0
683,1765897100872,-236,8390,-433,0,0,0,0,0
684,1765897101461,-266,8392,-426,0,0,0,0,0
685,1765897103454,-265,8365,-432,0,0,0,0,0
686,1765897105371,-245,8386,-422,0,0,0,0,0
687,1765897109555,-252,8400,-432,0,0,0,0,0
688,1765897110142,-249,8397,-436,0,0,0,0,0
689,1765897110410,-250,8401,-440,0,0,0,0,0
690,1765897110523,-248,8376,-432,0,0,0,0,0
691,1765897111216,-255,8395,-431,0,0,0,0,0
692,1765897111216,-3289,8398,-444,0,0,0,0,0
693,1765897111432,-242,8385,-431,0,0,0,0,0
694,1765897111535,-264,8386,-433,0,0,0,0,0
695,1765897111926,-252,8379,-434,0,0,0,0,0
696,1765897112104,-242,8374,-422,0,0,0,0,0
697,1765897112331,-244,8384,-438,0,0,0,0,0
698,1765897112855,-249,8426,-427,0,0,0,0,0
699,1765897113092,-244,8371,-453,0,0,0,0,0
700,1765897113433,-259,8363,-430,0,0,0,0,0
701,1765897113948,-247,8392,-430,0,0,0,0,0
702,1765897114003,-248,8385,-437,0,0,0,0,0
703,1765897115793,-253,8388,-433,0,0,0,0,0
704,1765897120028,-239,8402,-434,0,0,0,0,0
705,1765897120428,-267,8387,-435,0,0,0,0,0
706,1765897125145,-240,8411,-397,0,0,0,0,0
707,1765897125996,-310,8394,-450,0,0,0,0,0
708,1765897126562,-250,8412,-441,0,0,0,0,0
709,1765897126862,-258,8389,-416,0,0,0,0,0
710,1765897126914,-236,8401,-439,0,0,0,0,0
711,1765897127012,-244,8382,-443,0,0,0,0,0
712,1765897127299,-262,8401,-445,0,0,0,0,0
713,1765897127713,-243,8498,-439,0,0,0,0,0
714,1765897127980,-249,8389,-413,0,0,0,0,0
715,1765897128014,-242,8359,-414,0,0,0,0,0
716,1765897128266,-241,8369,-438,0,0,0,0,0
717,1765897128363,-238,8405,-431,0,0,0,0,0
718,1765897128764,-278,8238,584,0,0,0,0,0
719,1765897131929,-376,8228,400,0,0,0,0,0
720,1765897132231,-557,8306,240,0,0,0,0,0
721,1765897132311,-610,8659,-198,0,0,0,0,0
722,1765897132563,-890,8633,-77,0,0,0,0,0
723,1765897134549,-233,8749,-19,0,0,0,0,0
724,1765897137330,-3056,9665,-135,0,0,0,0,0
725,1765897137914,-3404,9208,-410,0,0,0,0,0
726,1765897138529,-2650,7648,-511,0,0,0,0,0
727,1765897139579,-1720,8154,-692,0,0,0,0,0
728,1765897140099,-1838,8656,-336,0,0,0,0,0
729,1765897143629,-1582,9578,-992,0,0,0,0,0
730,1765897144058,-825,8665,-364,0,0,0,0,0
731,1765897144059,-55,8530,-42,0,0,0,0,0
732,1765897144162,-140,7391,-14,0,0,0,0,0
733,1765897144515,678,6433,-81,0,0,0,0,0
734,1765897144946,1195,7738,-700,0,0,0,0,0
735,1765897145296,1205,8123,-511,0,0,0,0,0
736,1765897145678,1426,8442,-924,0,0,0,0,0
737,1765897146395,-557,7013,-429,0,0,0,0,0
738,1765897147812,-56,8650,-302,0,0,0,0,0
739,1765897148081,162,8764,-507,0,0,0,0,0
740,1765897148430,1289,8406,-173,0,0,0,0,0
741,1765897153395,1500,8904,-382,0,0,0,0,0
742,1765897154330,-2138,6620,-242,0,0,0,0,0
743,1765897155071,4526,9087,-1439,0,0,0,0,0
744,1765897155730,1704,7696,-1332,0,0,0,0,0
745,1765897158629,-3392,8098,238,0,0,0,0,0
746,1765897159047,-3190,7825,-322,0,0,0,0,0
747,1765897159545,-4164,6827,-296,0,0,0,0,0
748,1765897161078,-3895,7028,864,0,0,0,0,0
749,1765897161121,-3913,8184,680,0,0,0,0,0
750,1765897161492,-2451,8988,-237,0,0,0,0,0
751,1765897162045,-3786,7995,979,0,0,0,0,0
752,1765897162227,-3422,7950,481,0,0,0,0,0
753,1765897162555,-1794,9584,1086,0,0,0,0,0
754,1765897164348,-1136,8492,-271,0,0,0,0,0
755,1765897166043,-1608,9768,-1669,0,0,0,0,0
756,1765897166077,-1008,9630,-574,0,0,0,0,0
757,1765897166381,-1222,6732,-724,0,0,0,0,0
758,1765897166661,-1285,7462,-1680,0,0,0,0,0
759,1765897169649,-3404,7037,-81,0,0,0,0,0
760,1765897169762,-4870,8892,-768,0,0,0,0,0
761,1765897170095,-5261,8392,-238,0,0,0,0,0
762,1765897170345,-4298,7046,-288,0,0,0,0,0
763,1765897172878,-1521,6680,646,0,0,0,0,0
764,1765897173012,-1374,7594,-110,0,0,0,0,0
765,1765897173712,-2053,9173,354,0,0,0,0,0
766,1765897173815,-1066,7704,66,0,0,0,0,0
767,1765897174095,-237,7678,-456,0,0,0,0,0
768,1765897174845,-1297,9778,-639,0,0,0,0,0
769,1765897176246,-889,8924,-1095,0,0,0,0,0
770,1765897177177,641,8756,-263,0,0,0,0,0
771,1765897177296,-529,7697,-1002,0,0,0,0,0
772,1765897178078,-674,9867,-480,0,0,0,0,0
773,1765897178362,-112,7995,-312,0,0,0,0,0
774,1765897178594,-316,8236,-397,0,0,0,0,0
775,1765897178911,-883,8795,-420,0,0,0,0,0
776,1765897179145,-135,8562,-84,0,0,0,0,0
777,1765897179411,-310,8404,-181,0,0,0,0,0
778,1765897179444,-607,7821,-166,0,0,0,0,0
779,1765897179729,-933,8348,-195,0,0,0,0,0
780,1765897180112,-2156,7788,-1058,0,0,0,0,0
781,1765897180878,-2365,8129,-2384,0,0,0,0,0
782,1765897181694,3912,8121,-1463,0,0,0,0,0
783,1765897182945,-3051,9813,-1596,0,0,0,0,0
784,1765897183162,-4668,8100,-1270,0,0,0,0,0
785,1765897183446,-4646,8380,-782,0,0,0,0,0
786,1765897187530,-2228,8224,-370,0,0,0,0,0
787,1765897188100,-2241,6952,37,0,0,0,0,0
788,1765897188312,-1941,7712,-1065,0,0,0,0,0
789,1765897189078,-3408,6564,-965,0,0,0,0,0
790,1765897189762,-3281,5584,-641,0,0,0,0,0
791,1765897190078,-4453,7381,-500,0,0,0,0,0
792,1765897190263,-4199,8224,-1177,0,0,0,0,0
793,1765897190778,-4490,7562,-1044,0,0,0,0,0
794,1765897191744,-2402,8533,364,0,0,0,0,0
795,1765897192177,-658,8576,356,0,0,0,0,0
796,1765897192594,3436,10153,-26,0,0,0,0,0
797,1765897192912,888,6304,-486,0,0,0,0,0
798,1765897195545,3914,8925,-984,0,0,0,0,0
799,1765897195997,-1847,6000,-674,0,0,0,0,0
800,1765897196260,-3855,7928,-417,0,0,0,0,0
801,1765897198261,3934,8952,-439,0,0,0,0,0
802,1765897199093,3006,9263,-1130,0,0,0,0,0
803,1765897199896,5604,9440,-264,0,0,0,0,0
804,1765897201113,2699,9689,-1042,0,0,0,0,0
805,1765897201361,2910,7677,-473,0,0,0,0,0
806,1765897203522,-1696,8708,-148,0,0,0,0,0
807,1765897203860,1116,8664,-130,0,0,0,0,0
808,1765897204762,3194,8764,-2104,0,0,0,0,0
809,1765897205160,120,7790,-1129,0,0,0,0,0
810,1765897205613,-5199,7887,-1805,0,0,0,0,0
811,1765897205736,-5626,8167,-1862,0,0,0,0,0
812,1765897206236,-1170,7833,206,0,0,0,0,0
813,1765897206547,-3256,7606,-364,0,0,0,0,0
814,1765897207117,-3874,8388,-476,0,0,0,0,0
815,1765897207304,-1819,8071,184,0,0,0,0,0
816,1765897207873,-2606,9532,-326,0,0,0,0,0
817,1765897209492,-1431,9764,-99,0,0,0,0,0
818,1765897210403,-1737,8488,-428,0,0,0,0,0
819,1765897212107,-2335,8481,-166,0,0,0,0,0
820,1765897212235,-857,9200,315,0,0,0,0,0
821,1765897212360,-562,8170,235,0,0,0,0,0
822,1765897212612,-348,8416,-470,0,0,0,0,0
823,1765897214376,-1373,7555,-50,0,0,0,0,0
824,1765897216026,-2009,7671,-291,0,0,0,0,0
825,1765897216334,-968,7910,188,0,0,0,0,0
826,1765897216719,-1181,7643,-183,0,0,0,0,0
827,1765897217992,-1041,7214,-255,0,0,0,0,0
828,1765897219072,-1282,9739,-452,0,0,0,0,0
829,1765897219268,-760,7364,-447,0,0,0,0,0
830,1765897221869,-3358,9197,-1039,0,0,0,0,0
831,1765897226651,-1548,9054,-879,0,0,0,0,0
832,1765897226776,-1123,8519,-1340,0,0,0,0,0
833,1765897229040,-493,10577,-2227,0,0,0,0,0
834,1765897229448,1252,10577,-506,0,0,0,0,0
835,1765897229806,-436,10749,-1102,0,0,0,0,0
836,1765897230766,-597,8119,-1126,0,0,0,0,0
837,1765897233205,-632,7794,-811,0,0,0,0,0
838,1765897233487,-750,8244,-950,0,0,0,0,0
839,1765897234309,-262,9108,-964,0,0,0,0,0
840,1765897235089,-372,8231,-824,0,0,0,0,0
841,1765897237440,-1222,8556,-618,0,0,0,0,0
842,1765897237718,-965,8133,-766,0,0,0,0,0
843,1765897240623,1043,8304,-822,0,0,0,0,0
844,1765897240710,471,8212,-1130,0,0,0,0,0
845,1765897240901,155,7940,-942,0,0,0,0,0
846,1765897242058,-104,8914,-881,0,0,0,0,0
847,1765897242430,-739,8412,-624,0,0,0,0,0
848,1765897243200,-105,7838,-512,0,0,0,0,0
849,1765897245800,-84,8100,-1317,0,0,0,0,0
850,1765897249065,-139,8391,-500,0,0,0,0,0
851,1765897252367,-152,8370,-497,0,0,0,0,0
852,1765897252880,-141,8395,-490,0,0,0,0,0
853,1765897253455,-136,8382,-486,0,0,0,0,0
854,1765897253627,-135,8356,-486,0,0,0,0,0
855,1765897253982,-134,8387,-501,0,0,0,0,0
856,1765897254986,-136,8367,-486,0,0,0,0,0
857,1765897255910,-124,8400,-488,0,0,0,0,0
858,1765897256207,-142,8350,-530,0,0,0,0,0
859,1765897256509,-141,8364,-506,0,0,0,0,0
860,1765897256730,-132,8356,-470,0,0,0,0,0
861,1765897256959,-135,8379,-483,0,0,0,0,0
862,1765897257808,-125,8389,-484,0,0,0,0,0
863,1765897258008,-126,8354,-482,0,0,0,0,0
864,1765897260557,-126,8392,-486,0,0,0,0,0
865,1765897261727,-139,8393,-500,0,0,0,0,0
866,1765897262612,-130,8394,-482,0,0,0,0,0
867,1765897263885,-132,8374,-502,0,0,0,0,0
868,1765897267607,-153,8381,-484,0,0,0,0,0
869,1765897268537,-116,8349,-504,0,0,0,0,0
870,1765897268609,-127,8410,-487,0,0,0,0,0
871,1765897269087,-121,8363,-526,0,0,0,0,0
872,1765897269280,-109,8370,-514,0,0,0,0,0
873,1765897271024,-139,8355,-468,0,0,0,0,0
874,1765897272596,-142,8328,-491,0,0,0,0,0
875,1765897273356,-120,8368,-481,0,0,0,0,0
876,1765897274141,-142,8397,-510,0,0,0,0,0
877,1765897277452,-133,8394,-483,0,0,0,0,0
878,1765897281838,-136,8380,-480,0,0,0,0,0
879,1765897283101,-114,8406,-519,0,0,0,0,0
880,1765897286703,-146,8390,-504,0,0,0,0,0
881,1765897288149,-140,8391,-473,0,0,0,0,0
882,1765897288149,-124,8388,-730,0,0,0,0,0
883,1765897289462,-125,8372,-490,0,0,0,0,0
884,1765897289730,-135,8372,-490,0,0,0,0,0
885,1765897289995,-133,8378,-490,0,0,0,0,0
886,1765897290334,-136,8381,-483,0,0,0,0,0
887,1765897290537,-128,8382,-508,0,0,0,0,0
888,1765897290939,-142,8376,-498,0,0,0,0,0
889,1765897291011,-132,8389,-500,0,0,0,0,0
890,1765897291283,-138,8372,-494,0,0,0,0,0
891,1765897291420,-136,8368,-497,0,0,0,0,0
892,1765897294266,-136,8379,-504,0,0,0,0,0
893,1765897295556,-126,8385,-504,0,0,0,0,0
894,1765897295762,-120,8368,-500,0,0,0,0,0
895,1765897296230,-138,8405,-510,0,0,0,0,0
896,1765897303841,-128,8393,-491,0,0,0,0,0
897,1765897304423,-142,8352,-499,0,0,0,0,0
898,1765897305299,-142,8364,-488,0,0,0,0,0
899,1765897307164,-144,8397,-470,0,0,0,0,0
900,1765897307314,-146,8361,-477,0,0,0,0,0
901,1765897307753,-132,8388,-477,0,0,0,0,0
902,1765897308111,-122,8367,-478,0,0,0,0,0
903,1765897308320,-124,8372,-484,0,0,0,0,0
904,1765897310653,-130,8352,-485,0,0,0,0,0
905,1765897311173,-128,8360,-488,0,0,0,0,0
906,1765897314406,-132,8386,-485,0,0,0,0,0
907,1765897320457,-134,8386,-486,0,0,0,0,0
908,1765897322418,-226,8393,-2364,0,0,0,0,0
909,1765897323580,-132,8391,-519,0,0,0,0,0
910,1765897325483,-138,8364,-493,0,0,0,0,0
911,1765897326309,-130,8378,-488,0,0,0,0,0
912,1765897326682,-140,8362,-490,0,0,0,0,0
913,1765897326736,-134,8385,-498,0,0,0,0,0
914,1765897326876,-126,8377,-502,0,0,0,0,0
915,1765897326974,-133,8359,-481,0,0,0,0,0
916,1765897327130,-132,8394,-498,0,0,0,0,0
917,1765897327183,-128,8359,-500,0,0,0,0,0
918,1765897327337,-131,8373,-496,0,0,0,0,0
919,1765897327442,-129,8384,-486,0,0,0,0,0
920,1765897327602,-136,8353,-495,0,0,0,0,0
921,1765897327848,-132,8374,-489,0,0,0,0,0
922,1765897327897,-135,8383,-482,0,0,0,0,0
923,1765897328046,-137,8366,-510,0,0,0,0,0
924,1765897328297,-128,8378,-493,0,0,0,0,0
925,1765897328421,-132,8370,-495,0,0,0,0,0
926,1765897328510,-131,8368,-505,0,0,0,0,0
927,1765897328685,-134,8367,-487,0,0,0,0,0
928,1765897328776,-131,8372,-488,0,0,0,0,0
929,1765897328908,-128,8368,-491,0,0,0,0,0
930,1765897328999,-134,8384,-486,0,0,0,0,0
931,1765897329186,-138,8360,-488,0,0,0,0,0
932,1765897329234,-130,8384,-504,0,0,0,0,0
933,1765897329422,-132,8374,-493,0,0,0,0,0
934,1765897329468,-130,8369,-492,0,0,0,0,0
935,1765897329647,-134,8378,-496,0,0,0,0,0
936,1765897329736,-127,8372,-497,0,0,0,0,0
937,1765897329909,-131,8382,-480,0,0,0,0,0
938,1765897329952,-129,8376,-486,0,0,0,0,0
939,1765897330124,-133,8369,-509,0,0,0,0,0
940,1765897330213,-135,8371,-487,0,0,0,0,0
941,1765897330348,-133,8381,-498,0,0,0,0,0
942,1765897330485,-132,8373,-492,0,0,0,0,0
943,1765897330569,-136,8361,-498,0,0,0,0,0
944,1765897330745,-126,8392,-493,0,0,0,0,0
945,1765897330830,-125,8395,-516,0,0,0,0,0
946,1765897330959,-140,8362,-502,0,0,0,0,0
947,1765897331107,-137,8373,-478,0,0,0,0,0
948,1765897331243,-123,8388,-486,0,0,0,0,0
949,1765897331315,-134,8361,-482,0,0,0,0,0
950,1765897331540,-130,8381,-505,0,0,0,0,0
951,1765897331540,-130,8384,-484,0,0,0,0,0
952,1765897331768,-134,8381,-488,0,0,0,0,0
953,1765897331769,-135,8378,-503,0,0,0,0,0
954,1765897331995,-121,8386,-524,0,0,0,0,0
955,1765897331995,-133,8384,-260,0,0,0,0,0
956,1765897332225,-148,8350,-503,0,0,0,0,0
957,1765897332302,-118,8384,-462,0,0,0,0,0
958,1765897332897,-118,8381,-498,0,0,0,0,0
959,1765897332973,-146,8345,-484,0,0,0,0,0
960,1765897332973,-132,8374,-478,0,0,0,0,0
961,1765897332973,-123,8374,-487,0,0,0,0,0
962,1765897332974,-138,8383,-480,0,0,0,0,0
963,1765897332974,-131,8373,-465,0,0,0,0,0
964,1765897332974,-142,8376,-472,0,0,0,0,0
965,1765897333195,-142,8388,-491,0,0,0,0,0
966,1765897333265,-136,8366,-479,0,0,0,0,0
967,1765897333412,-138,8375,-495,0,0,0,0,0
968,1765897333492,-140,8368,-489,0,0,0,0,0
969,1765897333637,-145,8376,-491,0,0,0,0,0
970,1765897333781,-128,8390,-496,0,0,0,0,0
971,1765897333856,-132,8352,-498,0,0,0,0,0
972,1765897334150,-132,8374,-486,0,0,0,0,0
973,1765897334230,-138,8375,-495,0,0,0,0,0
974,1765897334377,-135,8359,-481,0,0,0,0,0
975,1765897334524,-135,8385,-472,0,0,0,0,0
976,1765897334758,-139,8378,-498,0,0,0,0,0
977,1765897334835,-129,8370,-491,0,0,0,0,0
978,1765897334984,-139,8394,-488,0,0,0,0,0
979,1765897335052,-138,8348,-483,0,0,0,0,0
980,1765897335194,-131,8397,-494,0,0,0,0,0
981,1765897335269,-124,8367,-490,0,0,0,0,0
982,1765897335506,-147,8391,-494,0,0,0,0,0
983,1765897335506,-144,8348,-488,0,0,0,0,0
984,1765897335734,-128,8392,-493,0,0,0,0,0
985,1765897335734,-130,8378,-490,0,0,0,0,0
986,1765897335962,-136,8352,-496,0,0,0,0,0
987,1765897336030,-134,8388,-488,0,0,0,0,0
988,1765897336177,-115,8393,-474,0,0,0,0,0
989,1765897336244,-139,8359,-508,0,0,0,0,0
990,1765897336393,-138,8382,-478,0,0,0,0,0
991,1765897336466,-130,8352,-478,0,0,0,0,0
992,1765897336619,-137,8374,-498,0,0,0,0,0
993,1765897336765,-126,8390,-473,0,0,0,0,0
994,1765897336911,-26,8146,-438,0,0,0,0,0
995,1765897336982,-182,8368,-549,0,0,0,0,0
996,1765897337131,-188,8408,-515,0,0,0,0,0
997,1765897337207,-124,8297,-472,0,0,0,0,0
998,1765897337354,-129,8412,-504,0,0,0,0,0
999,1765897337435,-167,8422,-530,0,0,0,0,0
1000,1765897337575,-113,8301,-467,0,0,0,0,0
1001,1765897337649,-148,8405,-515,0,0,0,0,0
1002,1765897337787,-142,8359,-506,0,0,0,0,0
1003,1765897337917,-130,8374,-467,0,0,0,0,0
1004,1765897338011,-142,8372,-488,0,0,0,0,0
1005,1765897338283,-131,8376,-510,0,0,0,0,0
1006,1765897338379,-142,8351,-511,0,0,0,0,0
1007,1765897338524,-137,8378,-478,0,0,0,0,0
1008,1765897338621,-142,8392,-459,0,0,0,0,0
1009,1765897338719,-151,8362,-500,0,0,0,0,0
1010,1765897338864,-145,8330,-478,0,0,0,0,0
1011,1765897338955,-133,8400,-498,0,0,0,0,0
1012,1765897339136,-126,8380,-480,0,0,0,0,0
1013,1765897339221,-124,8359,-489,0,0,0,0,0
1014,1765897339355,-154,8386,-478,0,0,0,0,0
1015,1765897339449,-139,8377,-494,0,0,0,0,0
1016,1765897339586,-132,8362,-504,0,0,0,0,0
1017,1765897339672,-142,8372,-484,0,0,0,0,0
1018,1765897339850,-137,8368,-492,0,0,0,0,0
1019,1765897339892,-134,8375,-498,0,0,0,0,0
1020,1765897340529,-130,8388,-491,0,0,0,0,0
1021,1765897341044,-142,8371,-496,0,0,0,0,0
1022,1765897341748,-127,8395,-466,0,0,0,0,0
1023,1765897341873,-154,8455,-473,0,0,0,0,0
1024,1765897342071,-167,8364,-576,0,0,0,0,0
1025,1765897344232,-147,8362,-502,0,0,0,0,0
1026,1765897344645,-150,8362,-473,0,0,0,0,0
1027,1765897345410,-141,8356,-476,0,0,0,0,0
1028,1765897345496,-143,8366,-490,0,0,0,0,0
1029,1765897346475,-130,8376,-479,0,0,0,0,0
1030,1765897346651,-147,8374,-498,0,0,0,0,0
1031,1765897348017,-143,8370,-493,0,0,0,0,0
1032,1765897350631,-112,8369,-499,0,0,0,0,0
1033,1765897350720,-150,8376,-478,0,0,0,0,0
1034,1765897350807,-126,8374,-494,0,0,0,0,0
1035,1765897351126,-135,8378,-484,0,0,0,0,0
1036,1765897351569,-138,8364,-487,0,0,0,0,0
1037,1765897351967,-139,8352,-484,0,0,0,0,0
1038,1765897352316,-136,8368,-486,0,0,0,0,0
1039,1765897352498,-139,8370,-498,0,0,0,0,0
1040,1765897352719,-131,8378,-486,0,0,0,0,0
1041,1765897353254,-140,8364,-475,0,0,0,0,0
1042,1765897353910,-132,8394,-478,0,0,0,0,0
1043,1765897354125,-127,8347,-440,0,0,0,0,0
1044,1765897354908,-148,8370,-498,0,0,0,0,0
1045,1765897354908,-113,8370,-498,0,0,0,0,0
1046,1765897355803,-128,8378,-492,0,0,0,0,0
1047,1765897355890,-157,8370,-499,0,0,0,0,0
1048,1765897359656,-116,8401,-467,0,0,0,0,0
1049,1765897359877,-174,8360,-519,0,0,0,0,0
1050,1765897360467,-132,8341,-480,0,0,0,0,0
1051,1765897363298,-108,8363,-490,0,0,0,0,0
1052,1765897363443,-131,8379,-520,0,0,0,0,0
1053,1765897363542,-148,8384,-496,0,0,0,0,0
1054,1765897363680,-136,8370,-506,0,0,0,0,0
1055,1765897363776,-123,8355,-518,0,0,0,0,0
1056,1765897363873,-136,8386,-506,0,0,0,0,0
1057,1765897364021,-138,8381,-487,0,0,0,0,0
1058,1765897364068,-136,8362,-465,0,0,0,0,0
1059,1765897364261,-118,8357,-470,0,0,0,0,0
1060,1765897364730,-162,8418,-470,0,0,0,0,0
1061,1765897365680,-148,8362,-491,0,0,0,0,0
1062,1765897366628,-160,8402,-492,0,0,0,0,0
1063,1765897366697,-125,8354,-476,0,0,0,0,0
1064,1765897367377,-142,8379,-504,0,0,0,0,0
1065,1765897367607,-136,8364,-492,0,0,0,0,0
1066,1765897367832,-170,8402,-457,0,0,0,0,0
1067,1765897367951,-156,8318,-466,0,0,0,0,0
1068,1765897368382,-146,8403,-491,0,0,0,0,0
1069,1765897368784,-146,8360,-503,0,0,0,0,0
1070,1765897369042,-141,8357,-498,0,0,0,0,0
1071,1765897371458,-129,8374,-490,0,0,0,0,0
1072,1765897371861,-138,8381,-488,0,0,0,0,0
1073,1765897372161,-139,8368,-481,0,0,0,0,0
1074,1765897372328,-145,8387,-504,0,0,0,0,0
1075,1765897372568,-130,8354,-500,0,0,0,0,0
1076,1765897372993,-136,8361,-468,0,0,0,0,0
1077,1765897373494,-147,8374,-488,0,0,0,0,0
1078,1765897377022,-129,8364,-498,0,0,0,0,0
1079,1765897377620,-146,8366,-490,0,0,0,0,0
1080,1765897377797,-136,8382,-488,0,0,0,0,0
1081,1765897377820,-134,8377,-487,0,0,0,0,0
1082,1765897378438,-136,8361,-480,0,0,0,0,0
1083,1765897380175,-116,8375,-483,0,0,0,0,0
1084,1765897381359,-119,8377,-485,0,0,0,0,0
1085,1765897381628,-116,8372,-532,0,0,0,0,0
1086,1765897381661,-158,8381,-501,0,0,0,0,0
1087,1765897381911,-151,8392,-479,0,0,0,0,0
1088,1765897382699,-63,8553,948,0,0,0,0,0
1089,1765897383204,133,8655,1055,0,0,0,0,0
1090,1765897385707,-828,7706,82,0,0,0,0,0
1091,1765897387175,-170,8287,89,0,0,0,0,0
1092,1765897387827,-470,8631,-214,0,0,0,0,0
1093,1765897387959,156,7483,221,0,0,0,0,0
1094,1765897391509,-3172,8694,-160,0,0,0,0,0
1095,1765897391541,-3378,7071,-347,0,0,0,0,0
1096,1765897392441,-2835,8829,-247,0,0,0,0,0
1097,1765897392593,-2868,7925,-539,0,0,0,0,0
1098,1765897393342,-441,8800,-13,0,0,0,0,0
1099,1765897393459,-413,8620,-363,0,0,0,0,0
1100,1765897394542,-82,9600,-206,0,0,0,0,0
1101,1765897396727,2817,7998,-304,0,0,0,0,0
1102,1765897397626,-2899,8666,-471,0,0,0,0,0
1103,1765897397892,-3140,8933,266,0,0,0,0,0
1104,1765897398309,-1427,9039,-160,0,0,0,0,0
1105,1765897400358,4589,8375,-1342,0,0,0,0,0
1106,1765897401393,2766,9614,-811,0,0,0,0,0
1107,1765897401743,4987,9227,-116,0,0,0,0,0
1108,1765897402025,4228,7861,-2804,0,0,0,0,0
1109,1765897403159,4068,8805,-1146,0,0,0,0,0
1110,1765897403375,3194,8258,-1571,0,0,0,0,0
1111,1765897403924,1339,8211,372,0,0,0,0,0
1112,1765897404658,406,7738,891,0,0,0,0,0
1113,1765897405459,22329,10645,489,0,0,0,0,0
1114,1765897407341,-3058,8242,691,0,0,0,0,0
1115,1765897409059,-4286,6856,-10,0,0,0,0,0
1116,1765897412559,-896,8923,598,0,0,0,0,0
1117,1765897413058,-1108,8197,1701,0,0,0,0,0
1118,1765897413277,-1064,7003,647,0,0,0,0,0
1119,1765897413441,-2228,9028,31,0,0,0,0,0
1120,1765897413858,-2936,7622,468,0,0,0,0,0
1121,1765897415725,-1536,9626,-3114,0,0,0,0,0
1122,1765897415908,-1566,7851,-3154,0,0,0,0,0
1123,1765897416175,-1294,8866,-3446,0,0,0,0,0
1124,1765897417307,-4066,7573,-47,0,0,0,0,0
1125,1765897417374,-3224,6011,-1385,0,0,0,0,0
1126,1765897417841,-3318,8908,432,0,0,0,0,0
1127,1765897418225,-1451,8816,-420,0,0,0,0,0
1128,1765897419691,-716,6943,2362,0,0,0,0,0
1129,1765897425025,-183,8418,-440,0,0,0,0,0
1130,1765897428074,-246,8354,-433,0,0,0,0,0
1131,1765897428227,-194,8554,-456,0,0,0,0,0
1132,1765897428493,-295,8389,-483,0,0,0,0,0
1133,1765897428575,-130,8365,-488,0,0,0,0,0
1134,1765897428874,-263,8370,-465,0,0,0,0,0
1135,1765897429374,-104,8349,-482,0,0,0,0,0
1136,1765897434308,-573,8404,393,0,0,0,0,0
1137,1765897435026,-1480,8074,-13,0,0,0,0,0
1138,1765897435308,-2975,8327,-242,0,0,0,0,0
1139,1765897436561,-3135,8052,-818,0,0,0,0,0
1140,1765897437326,-3788,6912,-1887,0,0,0,0,0
1141,1765897438292,-2332,7266,-996,0,0,0,0,0
1142,1765897438790,-3426,8640,498,0,0,0,0,0
1143,1765897440374,26,6916,-590,0,0,0,0,0
1144,1765897440443,-1046,6078,509,0,0,0,0,0
1145,1765897440675,10,5998,290,0,0,0,0,0
1146,1765897440958,-245,8020,684,0,0,0,0,0
1147,1765897442209,3995,8562,-1076,0,0,0,0,0
1148,1765897444008,383,9231,692,0,0,0,0,0
1149,1765897444157,-724,7581,-282,0,0,0,0,0
1150,1765897444492,-679,8036,1299,0,0,0,0,0
1151,1765897444691,-290,7859,556,0,0,0,0,0
1152,1765897445282,-344,8042,620,0,0,0,0,0
1153,1765897445289,-753,9140,-368,0,0,0,0,0
1154,1765897445560,-1965,8346,441,0,0,0,0,0
1155,1765897445810,-1142,9034,862,0,0,0,0,0
1156,1765897446125,-1624,8178,-3450,0,0,0,0,0
1157,1765897446541,-2251,8327,-3920,0,0,0,0,0
1158,1765897446774,-1995,8754,-2587,0,0,0,0,0
1159,1765897448127,3025,9048,-2142,0,0,0,0,0
1160,1765897448391,2774,7162,-1437,0,0,0,0,0
1161,1765897448792,-978,6944,-693,0,0,0,0,0
1162,1765897449058,-729,8494,-1265,0,0,0,0,0
1163,1765897449173,-4573,7178,-1609,0,0,0,0,0
1164,1765897449440,-4192,8530,-987,0,0,0,0,0
1165,1765897449592,-3409,8400,-978,0,0,0,0,0
1166,1765897449861,-3075,7954,-30,0,0,0,0,0
1167,1765897450226,-925,8147,1349,0,0,0,0,0
1168,1765897450958,186,9733,546,0,0,0,0,0
1169,1765897451192,-4235,7178,-269,0,0,0,0,0
1170,1765897451474,-4368,8314,-349,0,0,0,0,0
1171,1765897451826,-5052,7963,2179,0,0,0,0,0
1172,1765897454010,-4877,7690,-1044,0,0,0,0,0
1173,1765897457059,-5977,7966,2942,0,0,0,0,0
1174,1765897458943,-382,8420,-358,0,0,0,0,0
1175,1765897460925,66,8279,66,0,0,0,0,0
1176,1765897461224,84,8267,369,0,0,0,0,0
1177,1765897461596,-283,8211,-708,0,0,0,0,0
1178,1765897464409,-348,8363,-518,0,0,0,0,0
1179,1765897465675,-366,8225,-593,0,0,0,0,0
1180,1765897465907,-383,8374,-488,0,0,0,0,0
1181,1765897466141,-348,8317,-556,0,0,0,0,0
1182,1765897467877,-357,8402,-471,0,0,0,0,0
1183,1765897469673,-356,8331,-476,0,0,0,0,0
1184,1765897470024,-349,8386,-524,0,0,0,0,0
1185,1765897470193,-335,8354,-529,0,0,0,0,0
1186,1765897470541,-348,8336,-485,0,0,0,0,0
1187,1765897470758,-324,8315,-502,0,0,0,0,0
1188,1765897470892,-362,8361,-551,0,0,0,0,0
1189,1765897471241,-333,8388,-546,0,0,0,0,0
1190,1765897471591,-354,8361,-514,0,0,0,0,0
1191,1765897471860,-257,8239,-510,0,0,0,0,0
1192,1765897471943,-344,8336,-512,0,0,0,0,0
1193,1765897472374,-374,8301,-551,0,0,0,0,0
1194,1765897473191,-356,8319,-425,0,0,0,0,0
1195,1765897473974,-381,8272,-747,0,0,0,0,0
1196,1765897474626,-314,8313,-658,0,0,0,0,0
1197,1765897476258,-180,8150,-643,0,0,0,0,0
1198,1765897476624,-467,8126,-398,0,0,0,0,0
1199,1765897478251,-408,8396,-624,0,0,0,0,0
1200,1765897478608,-406,8227,27,0,0,0,0,0
1201,1765897482510,-376,8330,-430,0,0,0,0,0
1202,1765897482741,-407,8342,-464,0,0,0,0,0
1203,1765897482807,-364,8429,-497,0,0,0,0,0
1204,1765897484177,-340,8339,-472,0,0,0,0,0
1205,1765897484957,-403,8348,-466,0,0,0,0,0
1206,1765897485741,-375,8386,-474,0,0,0,0,0
1207,1765897487908,-381,8347,-487,0,0,0,0,0
1208,1765897488090,-382,8362,-475,0,0,0,0,0
1209,1765897488275,-364,8388,-468,0,0,0,0,0
1210,1765897488640,-364,8368,-476,0,0,0,0,0
1211,1765897490607,-386,8363,-476,0,0,0,0,0
1212,1765897491174,-370,8375,-483,0,0,0,0,0
1213,1765897491557,-385,8380,-466,0,0,0,0,0
1214,1765897491891,-373,8362,-478,0,0,0,0,0
1215,1765897492324,-376,8392,-461,0,0,0,0,0
1216,1765897495141,-374,8378,-487,0,0,0,0,0
1217,1765897495440,-368,8372,-458,0,0,0,0,0
1218,1765897496307,-376,8360,-458,0,0,0,0,0
1219,1765897500181,-381,8362,-488,0,0,0,0,0
1220,1765897500181,-376,8355,-462,0,0,0,0,0
1221,1765897500242,-365,8406,-507,0,0,0,0,0
1222,1765897501874,-385,8361,-480,0,0,0,0,0
1223,1765897503559,-380,8364,-468,0,0,0,0,0
1224,1765897503791,-380,8370,-478,0,0,0,0,0
1225,1765897504010,-374,8350,-461,0,0,0,0,0
1226,1765897504274,-388,8348,-487,0,0,0,0,0
1227,1765897505807,-369,8324,-464,0,0,0,0,0
1228,1765897507574,-378,8353,-486,0,0,0,0,0
1229,1765897507724,-375,8356,-486,0,0,0,0,0
1230,1765897507991,-376,8364,-482,0,0,0,0,0
1231,1765897508973,-402,8344,-484,0,0,0,0,0
1232,1765897509108,-372,8343,-478,0,0,0,0,0
1233,1765897509357,-379,8361,-474,0,0,0,0,0
1234,1765897509757,-366,8355,-476,0,0,0,0,0
1235,1765897509974,-376,8351,-464,0,0,0,0,0
1236,1765897511151,-381,8350,-483,0,0,0,0,0
1237,1765897514674,-375,8363,-478,0,0,0,0,0
1238,1765897516256,-373,8355,-469,0,0,0,0,0
1239,1765897520174,-310,8384,-486,0,0,0,0,0
1240,1765897522290,-376,8360,-459,0,0,0,0,0
1241,1765897522558,-367,8359,-456,0,0,0,0,0
1242,1765897522757,-371,8355,-474,0,0,0,0,0
1243,1765897524240,-371,8368,-473,0,0,0,0,0
1244,1765897524423,-370,8370,-476,0,0,0,0,0
1245,1765897525942,-368,8376,-481,0,0,0,0,0
1246,1765897526459,-378,8341,-475,0,0,0,0,0
1247,1765897526825,-380,8351,-471,0,0,0,0,0
1248,1765897527975,-380,8360,-492,0,0,0,0,0
1249,1765897528259,-362,8356,-464,0,0,0,0,0
1250,1765897528459,-372,8356,-500,0,0,0,0,0
1251,1765897528891,-388,8350,-484,0,0,0,0,0
1252,1765897531544,-376,8377,-469,0,0,0,0,0
1253,1765897533148,-389,8362,-470,0,0,0,0,0
1254,1765897533148,-382,8390,-484,0,0,0,0,0
1255,1765897533223,-388,8350,-486,0,0,0,0,0
1256,1765897533257,-374,8406,-469,0,0,0,0,0
1257,1765897533524,-363,8336,-485,0,0,0,0,0
1258,1765897533740,-384,8400,-468,0,0,0,0,0
1259,1765897533993,-383,8347,-466,0,0,0,0,0
1260,1765897535222,-376,8348,-484,0,0,0,0,0
1261,1765897535322,-371,8380,-464,0,0,0,0,0
1262,1765897535739,-370,8356,-463,0,0,0,0,0
1263,1765897540156,-374,8386,-460,0,0,0,0,0
1264,1765897540456,-376,8359,-474,0,0,0,0,0
1265,1765897541389,-380,8370,-477,0,0,0,0,0
1266,1765897544092,-388,8352,-475,0,0,0,0,0
1267,1765897544440,-336,8363,-484,0,0,0,0,0
1268,1765897544706,-356,8347,-476,0,0,0,0,0
1269,1765897545407,-369,8366,-472,0,0,0,0,0
1270,1765897549005,-390,8374,-431,0,0,0,0,0
1271,1765897549489,-365,8358,-462,0,0,0,0,0
1272,1765897549773,-366,8351,-464,0,0,0,0,0
1273,1765897551123,-368,8367,-443,0,0,0,0,0
1274,1765897552523,-381,8350,-462,0,0,0,0,0
1275,1765897552923,-376,8380,-464,0,0,0,0,0
1276,1765897553240,-370,8365,-476,0,0,0,0,0
1277,1765897553506,-378,8362,-477,0,0,0,0,0
1278,1765897554523,-372,8346,-471,0,0,0,0,0
1279,1765897555190,-378,8355,-488,0,0,0,0,0
1280,1765897555871,-379,8318,-453,0,0,0,0,0
1281,1765897558089,-467,8304,-534,0,0,0,0,0
1282,1765897558340,-418,8328,-506,0,0,0,0,0
1283,1765897558539,-350,8394,1283,0,0,0,0,0
1284,1765897558723,76,8613,800,0,0,0,0,0
1285,1765897559423,120,8226,599,0,0,0,0,0
1286,1765897559789,-78,8578,1010,0,0,0,0,0
1287,1765897560055,123,8604,801,0,0,0,0,0
1288,1765897564171,-2508,8494,-551,0,0,0,0,0
1289,1765897564305,-2322,7302,-667,0,0,0,0,0
1290,1765897569140,4857,8441,-1629,0,0,0,0,0
1291,1765897569556,6122,10032,-223,0,0,0,0,0
1292,1765897570006,1955,8073,-2310,0,0,0,0,0
1293,1765897570121,2588,8095,-1893,0,0,0,0,0
1294,1765897571155,4856,9016,-57,0,0,0,0,0
1295,1765897571456,4448,10264,-617,0,0,0,0,0
1296,1765897573173,-2184,7408,538,0,0,0,0,0
1297,1765897573857,61,8670,480,0,0,0,0,0
1298,1765897574290,1837,7111,-4169,0,0,0,0,0
1299,1765897574557,7192,6839,-2047,0,0,0,0,0
1300,1765897577256,-4064,9166,105,0,0,0,0,0
1301,1765897577457,-3397,8156,851,0,0,0,0,0
1302,1765897577809,-3110,7718,262,0,0,0,0,0
1303,1765897578574,-4598,8385,-398,0,0,0,0,0
1304,1765897578723,-3938,6858,292,0,0,0,0,0
1305,1765897581543,-1554,6489,1091,0,0,0,0,0
1306,1765897581809,-2466,9567,62,0,0,0,0,0
1307,1765897582907,-666,9009,596,0,0,0,0,0
1308,1765897583173,90,9251,1353,0,0,0,0,0
1309,1765897585242,-683,-31950,-3319,0,0,0,0,0
1310,1765897585672,-2088,7922,-1708,0,0,0,0,0
1311,1765897585773,-1802,8701,-2423,0,0,0,0,0
1312,1765897586239,-3681,6472,-1103,0,0,0,0,0
1313,1765897587239,-520,9814,-217,0,0,0,0,0
1314,1765897588120,-5027,7598,367,0,0,0,0,0
1315,1765897591004,92,8426,-137,0,0,0,0,0
1316,1765897591188,419,8934,-291,0,0,0,0,0
1317,1765897591221,-594,7442,-921,0,0,0,0,0
1318,1765897591489,118,8464,-168,0,0,0,0,0
1319,1765897591570,-1054,8905,-1006,0,0,0,0,0
1320,1765897595404,372,7796,210,0,0,0,0,0
1321,1765897595538,-656,8806,29,0,0,0,0,0
1322,1765897595804,-768,8982,-154,0,0,0,0,0
1323,1765897596155,-928,6030,-222,0,0,0,0,0
1324,1765897596806,-612,8477,-339,0,0,0,0,0
1325,1765897600092,5887,7214,-2722,0,0,0,0,0
1326,1765897600256,6461,9268,-1616,0,0,0,0,0
1327,1765897600541,4118,6783,-3406,0,0,0,0,0
1328,1765897600606,-365,6185,-1474,0,0,0,0,0
1329,1765897600973,-2286,11275,-3572,0,0,0,0,0
1330,1765897604257,-2646,9826,1196,0,0,0,0,0
1331,1765897604423,-3069,9716,622,0,0,0,0,0
1332,1765897604756,-4560,7740,119,0,0,0,0,0
1333,1765897605022,-4885,7568,702,0,0,0,0,0
1334,1765897608440,-4630,6958,-786,0,0,0,0,0
1335,1765897609339,-3918,8420,569,0,0,0,0,0
1336,1765897610023,-4587,10068,964,0,0,0,0,0
1337,1765897610173,-6605,7959,-192,0,0,0,0,0
1338,1765897613472,-1514,7470,48,0,0,0,0,0
1339,1765897613892,-1514,8115,572,0,0,0,0,0
1340,1765897614122,-958,8844,869,0,0,0,0,0
1341,1765897614539,-2066,7208,1442,0,0,0,0,0
1342,1765897616290,5050,9662,-1708,0,0,0,0,0
1343,1765897616807,4446,7372,-1259,0,0,0,0,0
1344,1765897617006,3250,7880,-1597,0,0,0,0,0
1345,1765897617305,3414,8019,-1109,0,0,0,0,0
1346,1765897617559,4062,7940,-642,0,0,0,0,0
1347,1765897620290,-4670,8136,-1585,0,0,0,0,0
1348,1765897621274,1368,8614,1290,0,0,0,0,0
1349,1765897622539,-3116,7640,-1744,0,0,0,0,0
1350,1765897622956,-5793,7893,-2386,0,0,0,0,0
1351,1765897623107,-4699,8070,-835,0,0,0,0,0
1352,1765897623372,-2107,8196,-3156,0,0,0,0,0
1353,1765897623441,-3176,8806,-1292,0,0,0,0,0
1354,1765897623757,-4156,8681,-1234,0,0,0,0,0
1355,1765897623956,-3826,8898,-595,0,0,0,0,0
1356,1765897624923,-2507,8802,-1188,0,0,0,0,0
1357,1765897625772,-3326,7503,-913,0,0,0,0,0
1358,1765897625859,-2089,8918,101,0,0,0,0,0
1359,1765897627156,-3110,6688,237,0,0,0,0,0
1360,1765897627323,-2883,10070,812,0,0,0,0,0
1361,1765897627606,-299,6917,112,0,0,0,0,0
1362,1765897627706,-2894,9423,166,0,0,0,0,0
1363,1765897628022,-1900,8507,-114,0,0,0,0,0
1364,1765897628571,-2170,6632,82,0,0,0,0,0
1365,1765897629724,-957,8545,-358,0,0,0,0,0
1366,1765897631055,-1082,9688,578,0,0,0,0,0
1367,1765897631322,-1018,5579,8215,0,0,0,0,0
1368,1765897632054,-1808,9405,-87,0,0,0,0,0
1369,1765897632055,-978,8530,451,0,0,0,0,0
1370,1765897632205,-1320,6539,-565,0,0,0,0,0
1371,1765897632989,-1123,7448,-151,0,0,0,0,0
1372,1765897633406,-1321,7118,-360,0,0,0,0,0
1373,1765897634273,-1799,8432,-152,0,0,0,0,0
1374,1765897635355,-2195,7872,-610,0,0,0,0,0
1375,1765897636290,15,7708,-86,0,0,0,0,0
1376,1765897636572,-898,7900,-569,0,0,0,0,0
1377,1765897638505,-4958,8795,-770,0,0,0,0,0
1378,1765897640271,-3262,7672,148,0,0,0,0,0
1379,1765897640521,-3482,9144,-530,0,0,0,0,0
1380,1765897640987,-3057,7570,-138,0,0,0,0,0
1381,1765897642005,-693,8521,-274,0,0,0,0,0
1382,1765897643805,-1919,9008,-563,0,0,0,0,0
1383,1765897643938,-611,7231,-544,0,0,0,0,0
1384,1765897644188,-890,8208,-934,0,0,0,0,0
1385,1765897645038,-401,8821,588,0,0,0,0,0
1386,1765897646572,-345,7782,134,0,0,0,0,0
1387,1765897647539,-1627,9211,597,0,0,0,0,0
1388,1765897647888,-1504,8576,588,0,0,0,0,0
1389,1765897649671,-3070,8361,-2520,0,0,0,0,0
1390,1765897652372,-3444,7112,-1156,0,0,0,0,0
1391,1765897652656,-3148,7466,-540,0,0,0,0,0
1392,1765897653271,2172,9826,1191,0,0,0,0,0
1393,1765897654071,-4464,8004,67,0,0,0,0,0
1394,1765897654922,-3060,7830,-105,0,0,0,0,0
1395,1765897655122,-5114,8081,-238,0,0,0,0,0
1396,1765897655439,-3920,8171,-58,0,0,0,0,0
1397,1765897656005,-2606,7899,-710,0,0,0,0,0
1398,1765897656239,-4762,8217,-934,0,0,0,0,0
1399,1765897656471,-4313,7661,-817,0,0,0,0,0
1400,1765897656888,-4452,8957,-530,0,0,0,0,0
1401,1765897657740,-5998,8142,-1604,0,0,0,0,0
1402,1765897658107,-1523,8067,-392,0,0,0,0,0
1403,1765897658322,-4721,10738,-1057,0,0,0,0,0
1404,1765897658806,-5370,9912,-1702,0,0,0,0,0
1405,1765897659006,-1976,8169,468,0,0,0,0,0
1406,1765897659256,-1023,8694,454,0,0,0,0,0
1407,1765897659573,-1064,8259,716,0,0,0,0,0
1408,1765897659855,-231,8292,635,0,0,0,0,0
1409,1765897662355,1929,9127,769,0,0,0,0,0
1410,1765897663271,4039,7857,-1566,0,0,0,0,0
1411,1765897664171,11494,5896,834,0,0,0,0,0
1412,1765897664373,426,8240,-3593,0,0,0,0,0
1413,1765897665082,-65,8354,-1060,0,0,0,0,0
1414,1765897665091,1096,9334,-14,0,0,0,0,0
1415,1765897665889,5920,5670,-1690,0,0,0,0,0
1416,1765897668189,3740,8080,368,0,0,0,0,0
1417,1765897668607,4003,8524,-550,0,0,0,0,0
1418,1765897669673,-4187,9365,-1568,0,0,0,0,0
1419,1765897670905,6497,10393,-985,0,0,0,0,0
1420,1765897671056,2984,8672,-3283,0,0,0,0,0
1421,1765897671539,-583,9959,-2568,0,0,0,0,0
1422,1765897674787,-3385,7142,846,0,0,0,0,0
1423,1765897675054,-3961,8935,62,0,0,0,0,0
1424,1765897675438,-3384,9342,188,0,0,0,0,0
1425,1765897676078,-2495,7247,538,0,0,0,0,0
1426,1765897677456,-3284,9233,695,0,0,0,0,0
1427,1765897677787,419,8432,1280,0,0,0,0,0
1428,1765897678088,-1962,9301,0,0,0,0,0,0
1429,1765897678203,-585,10135,-498,0,0,0,0,0
1430,1765897682292,-1225,8104,-3329,0,0,0,0,0
1431,1765897683422,-3509,7003,-764,0,0,0,0,0
1432,1765897684988,-6896,10284,-3870,0,0,0,0,0
1433,1765897685555,-4208,10008,-723,0,0,0,0,0
1434,1765897687970,-1164,7702,460,0,0,0,0,0
1435,1765897688222,31785,5502,3785,0,0,0,0,0
1436,1765897690541,-582,7946,1108,0,0,0,0,0
1437,1765897691505,-32,8203,783,0,0,0,0,0
1438,1765897693671,-3330,8228,-2352,0,0,0,0,0
1439,1765897696189,-2402,8275,-409,0,0,0,0,0
1440,1765897696688,830,8179,-566,0,0,0,0,0
1441,1765897699321,-4119,7079,-878,0,0,0,0,0
1442,1765897700771,-1477,7670,165,0,0,0,0,0
1443,1765897701038,-3378,7923,-180,0,0,0,0,0
1444,1765897701437,-4059,7285,-958,0,0,0,0,0
1445,1765897701874,-4404,11206,-712,0,0,0,0,0
1446,1765897704188,153,9447,1114,0,0,0,0,0
1447,1765897705338,-2713,7768,256,0,0,0,0,0
1448,1765897706838,2437,7810,359,0,0,0,0,0
1449,1765897708021,-1411,8557,-4207,0,0,0,0,0
1450,1765897709022,-1431,11178,-7020,0,0,0,0,0
1451,1765897709026,-930,6764,-3050,0,0,0,0,0
1452,1765897709221,-172,7054,-1084,0,0,0,0,0
1453,1765897710087,4645,9013,-1344,0,0,0,0,0
1454,1765897710821,4814,9853,-1653,0,0,0,0,0
1455,1765897711639,4594,10035,-766,0,0,0,0,0
1456,1765897712221,3474,8023,-73,0,0,0,0,0
1457,1765897712637,3601,7919,-1558,0,0,0,0,0
1458,1765897713205,4966,8875,-1868,0,0,0,0,0
1459,1765897713388,3736,8695,-1643,0,0,0,0,0
1460,1765897713455,4010,9840,-1726,0,0,0,0,0
1461,1765897713703,934,9487,-1734,0,0,0,0,0
1462,1765897713788,348,8915,-419,0,0,0,0,0
1463,1765897716138,-2475,9003,-291,0,0,0,0,0
1464,1765897716422,-3829,9280,-69,0,0,0,0,0
1465,1765897718574,-4704,8962,1218,0,0,0,0,0
1466,1765897720043,-4797,7134,1271,0,0,0,0,0
1467,1765897720050,-2220,11324,2136,0,0,0,0,0
1468,1765897720072,-4646,8133,499,0,0,0,0,0
1469,1765897720438,-3953,8400,-321,0,0,0,0,0
1470,1765897721372,-2547,8886,420,0,0,0,0,0
1471,1765897721690,-2663,8410,1766,0,0,0,0,0
1472,1765897721905,-1715,8993,1412,0,0,0,0,0
1473,1765897722157,-636,9806,773,0,0,0,0,0
1474,1765897724690,-2342,9200,437,0,0,0,0,0
1475,1765897725188,-1949,8618,-3106,0,0,0,0,0
1476,1765897726021,-2119,7795,-3398,0,0,0,0,0
1477,1765897728271,-4440,9741,-1302,0,0,0,0,0
1478,1765897728522,-4437,9749,-501,0,0,0,0,0
1479,1765897728604,-3840,6532,24,0,0,0,0,0
1480,1765897728837,-4147,8706,-113,0,0,0,0,0
1481,1765897729172,-3546,6840,-1393,0,0,0,0,0
1482,1765897730220,-2686,7958,-133,0,0,0,0,0
1483,1765897732139,-329,7887,-95,0,0,0,0,0
1484,1765897732272,-797,7608,-58,0,0,0,0,0
1485,1765897732521,-1471,8859,-583,0,0,0,0,0
1486,1765897736686,-1113,9544,-132,0,0,0,0,0
1487,1765897736955,-191,5776,-369,0,0,0,0,0
1488,1765897737221,522,6937,-251,0,0,0,0,0
1489,1765897737507,-617,9353,-1196,0,0,0,0,0
1490,1765897737720,-1228,9286,-174,0,0,0,0,0
1491,1765897738004,-1568,6512,254,0,0,0,0,0
1492,1765897738037,-2218,8707,-324,0,0,0,0,0
1493,1765897738337,-815,8189,-135,0,0,0,0,0
1494,1765897739704,1946,9708,-2383,0,0,0,0,0
1495,1765897740107,3928,7080,-3454,0,0,0,0,0
1496,1765897740804,-6367,7988,-1731,0,0,0,0,0
1497,1765897742041,-1535,7770,275,0,0,0,0,0
1498,1765897742054,1098,8641,-730,0,0,0,0,0
1499,1765897742323,562,8598,-1371,0,0,0,0,0
1500,1765897742504,-181,8134,610,0,0,0,0,0
1501,1765897742787,-572,6866,1192,0,0,0,0,0
1502,1765897743588,-2562,8840,578,0,0,0,0,0
1503,1765897745237,-3982,9342,-879,0,0,0,0,0
1504,1765897746471,-4954,9748,-974,0,0,0,0,0
1505,1765897746654,-3741,6582,-162,0,0,0,0,0
1506,1765897747488,-5264,8557,-776,0,0,0,0,0
1507,1765897748573,-6434,7634,-906,0,0,0,0,0
1508,1765897750054,483,8962,1152,0,0,0,0,0
1509,1765897750954,-3984,8700,29,0,0,0,0,0
1510,1765897751721,2156,7331,1252,0,0,0,0,0
1511,1765897752120,4675,9633,784,0,0,0,0,0
1512,1765897753004,5300,8194,-1066,0,0,0,0,0
1513,1765897754454,3784,8912,-812,0,0,0,0,0
1514,1765897755538,4725,9102,-2037,0,0,0,0,0
1515,1765897756087,4997,10896,-490,0,0,0,0,0
1516,1765897757371,4848,9260,321,0,0,0,0,0
1517,1765897758570,1660,7973,-230,0,0,0,0,0
1518,1765897758803,1881,9841,246,0,0,0,0,0
1519,1765897761187,-4245,7682,-1898,0,0,0,0,0
1520,1765897762587,-2043,7764,-291,0,0,0,0,0
1521,1765897762737,-2820,6704,910,0,0,0,0,0
1522,1765897763120,-3039,9298,840,0,0,0,0,0
1523,1765897763987,-3815,7750,370,0,0,0,0,0
1524,1765897764221,-3614,6117,339,0,0,0,0,0
1525,1765897771237,-194,9899,-5658,0,0,0,0,0
1526,1765897772704,-4801,7988,-1072,0,0,0,0,0
1527,1765897774970,-2064,8714,-760,0,0,0,0,0
1528,1765897775220,-2742,7509,-272,0,0,0,0,0
1529,1765897775455,-1922,10102,-171,0,0,0,0,0
1530,1765897775721,-3309,9824,-47,0,0,0,0,0
1531,1765897776320,-484,8370,116,0,0,0,0,0
1532,1765897776325,-1721,6963,-69,0,0,0,0,0
1533,1765897779254,351,8038,507,0,0,0,0,0
1534,1765897779704,-258,8726,-430,0,0,0,0,0
1535,1765897780053,-161,8287,697,0,0,0,0,0
1536,1765897780205,-412,8986,-95,0,0,0,0,0
1537,1765897780853,-162,9683,-869,0,0,0,0,0
1538,1765897780970,-428,8505,-411,0,0,0,0,0
1539,1765897781437,-54,10138,526,0,0,0,0,0
1540,1765897781820,-101,6982,-324,0,0,0,0,0
1541,1765897784919,2557,9824,-1029,0,0,0,0,0
1542,1765897785155,3921,7168,-3963,0,0,0,0,0
1543,1765897785187,4540,9231,-3097,0,0,0,0,0
1544,1765897785522,3561,10259,-1960,0,0,0,0,0
1545,1765897785655,4849,9595,-2245,0,0,0,0,0
1546,1765897785904,1660,6480,-1328,0,0,0,0,0
1547,1765897786486,-4703,7795,-826,0,0,0,0,0
1548,1765897787863,-1989,7775,262,0,0,0,0,0
1549,1765897788188,-564,8940,1309,0,0,0,0,0
1550,1765897790536,-4528,7530,-1343,0,0,0,0,0
1551,1765897791155,-4510,7298,-1262,0,0,0,0,0
1552,1765897791453,-3936,7866,-915,0,0,0,0,0
1553,1765897794172,-2176,6748,-568,0,0,0,0,0
1554,1765897794354,-42,7757,30,0,0,0,0,0
1555,1765897794620,1805,9152,-695,0,0,0,0,0
1556,1765897794653,2063,7693,-276,0,0,0,0,0
1557,1765897794889,2227,9552,118,0,0,0,0,0
1558,1765897795220,1431,7724,706,0,0,0,0,0
1559,1765897796639,-2365,9485,-179,0,0,0,0,0
1560,1765897798137,78,9357,-857,0,0,0,0,0
1561,1765897798883,-3523,8621,731,0,0,0,0,0
1562,1765897798888,-3884,7054,-4,0,0,0,0,0
1563,1765897799240,-1835,9015,-4410,0,0,0,0,0
1564,1765897799521,-1692,7048,-4557,0,0,0,0,0
1565,1765897800772,3750,8094,-1300,0,0,0,0,0
1566,1765897801137,3347,9694,-1585,0,0,0,0,0
1567,1765897801353,3040,6188,-438,0,0,0,0,0
1568,1765897804319,-2832,9233,-755,0,0,0,0,0
1569,1765897805471,3916,6551,-3364,0,0,0,0,0
1570,1765897806972,-2849,8042,-1018,0,0,0,0,0
1571,1765897807206,-2691,7998,-558,0,0,0,0,0
1572,1765897808105,-3382,8320,342,0,0,0,0,0
1573,1765897808387,-4951,7598,-442,0,0,0,0,0
1574,1765897809190,-3626,9231,301,0,0,0,0,0
1575,1765897814505,-1761,10509,264,0,0,0,0,0
1576,1765897815104,-2580,8149,57,0,0,0,0,0
1577,1765897815953,-2213,8328,932,0,0,0,0,0
1578,1765897816138,-1336,7025,-1809,0,0,0,0,0
1579,1765897816486,702,9127,-5073,0,0,0,0,0
1580,1765897816553,-778,9746,-5502,0,0,0,0,0
1581,1765897817370,-2026,8011,-1680,0,0,0,0,0
1582,1765897819620,-4180,9248,-461,0,0,0,0,0
1583,1765897819804,-2769,9279,-293,0,0,0,0,0
1584,1765897820119,-2221,9646,268,0,0,0,0,0
1585,1765897820901,-1903,9534,240,0,0,0,0,0
1586,1765897821104,-1895,9091,158,0,0,0,0,0
1587,1765897821403,-1038,9870,526,0,0,0,0,0
1588,1765897821572,-1201,6746,463,0,0,0,0,0
1589,1765897821722,-810,8683,202,0,0,0,0,0
1590,1765897822120,-1308,8670,811,0,0,0,0,0
1591,1765897823718,-967,9305,755,0,0,0,0,0
1592,1765897825855,-956,7846,1196,0,0,0,0,0
1593,1765897826020,-1630,6362,203,0,0,0,0,0
1594,1765897826320,-1180,7632,1693,0,0,0,0,0
1595,1765897826520,-1758,8469,174,0,0,0,0,0
1596,1765897826670,-1022,8508,766,0,0,0,0,0
1597,1765897827671,-2960,7422,-4255,0,0,0,0,0
1598,1765897828071,-3264,9762,-824,0,0,0,0,0
1599,1765897828540,2412,8767,-2544,0,0,0,0,0
1600,1765897829219,3947,8458,-1850,0,0,0,0,0
1601,1765897831085,499,9502,-199,0,0,0,0,0
1602,1765897833188,-4511,7188,-307,0,0,0,0,0
1603,1765897836171,-6013,7558,-462,0,0,0,0,0
1604,1765897838003,2259,9346,569,0,0,0,0,0
1605,1765897839670,-5584,8821,-322,0,0,0,0,0
1606,1765897839869,-3310,7410,833,0,0,0,0,0
1607,1765897840286,4334,9334,-817,0,0,0,0,0
1608,1765897840536,4652,10891,134,0,0,0,0,0
1609,1765897840687,4168,10170,-624,0,0,0,0,0
1610,1765897840985,4183,7968,-141,0,0,0,0,0
1611,1765897841169,2307,8660,-1778,0,0,0,0,0
1612,1765897842202,-31,6588,-3331,0,0,0,0,0
1613,1765897842927,1383,9050,-602,0,0,0,0,0
1614,1765897842934,2664,8834,-1279,0,0,0,0,0
1615,1765897843085,3469,7425,-1104,0,0,0,0,0
1616,1765897843354,3410,8905,-568,0,0,0,0,0
1617,1765897846053,3842,8379,-502,0,0,0,0,0
1618,1765897847120,-2145,8411,-238,0,0,0,0,0
1619,1765897847271,-2574,8112,176,0,0,0,0,0
1620,1765897847653,-2670,8195,-296,0,0,0,0,0
1621,1765897848286,6868,9760,-4000,0,0,0,0,0
1622,1765897850702,-5354,6640,-460,0,0,0,0,0
1623,1765897850937,-3934,9154,991,0,0,0,0,0
1624,1765897851087,-4706,6757,-545,0,0,0,0,0
1625,1765897851322,-3461,9114,1230,0,0,0,0,0
1626,1765897851670,-4157,8490,468,0,0,0,0,0
1627,1765897851970,-3999,10046,52,0,0,0,0,0
1628,1765897852472,-4008,6622,458,0,0,0,0,0
1629,1765897852619,-5362,8220,212,0,0,0,0,0
1630,1765897852886,-5621,11959,571,0,0,0,0,0
1631,1765897854037,-2830,8563,873,0,0,0,0,0
1632,1765897855769,-2204,6988,840,0,0,0,0,0
1633,1765897858037,-2199,7338,-230,0,0,0,0,0
1634,1765897858169,-1564,7840,301,0,0,0,0,0
1635,1765897858436,-897,9000,112,0,0,0,0,0
1636,1765897858836,264,7851,-3855,0,0,0,0,0
1637,1765897860505,-6620,9000,-1654,0,0,0,0,0
1638,1765897861037,-2097,10942,-927,0,0,0,0,0
1639,1765897861336,-3892,9200,-680,0,0,0,0,0
1640,1765897861587,-3056,7174,-555,0,0,0,0,0
1641,1765897862803,-3500,8022,-551,0,0,0,0,0
1642,1765897863069,-1234,7273,1508,0,0,0,0,0
1643,1765897863486,-3786,9678,-403,0,0,0,0,0
1644,1765897863802,-6148,7000,-4236,0,0,0,0,0
1645,1765897864002,-12994,15089,-3735,0,0,0,0,0
1646,1765897864321,-3834,9366,925,0,0,0,0,0
1647,1765897864986,-4106,8439,2665,0,0,0,0,0
1648,1765897864986,-3183,8516,3941,0,0,0,0,0
1649,1765897866036,-497,8294,-327,0,0,0,0,0
1650,1765897867054,-217,8562,-541,0,0,0,0,0
1651,1765897868304,-442,8359,88,0,0,0,0,0
1652,1765897868622,704,8208,1518,0,0,0,0,0
1653,1765897870053,-3090,8224,-808,0,0,0,0,0
1654,1765897870553,-2315,8339,140,0,0,0,0,0
1655,1765897871055,-2417,7785,112,0,0,0,0,0
1656,1765897871086,-3048,8022,-152,0,0,0,0,0
1657,1765897871420,-2822,8517,-1050,0,0,0,0,0
1658,1765897871919,-3006,8296,-234,0,0,0,0,0
1659,1765897876135,-1394,8338,-808,0,0,0,0,0
1660,1765897876819,-994,7967,-915,0,0,0,0,0
1661,1765897877253,2205,8836,-1134,0,0,0,0,0
1662,1765897878921,-666,9010,-3058,0,0,0,0,0
1663,1765897879219,-1058,8315,-6224,0,0,0,0,0
1664,1765897884186,-448,8329,-436,0,0,0,0,0
1665,1765897887118,-458,8292,-423,0,0,0,0,0
1666,1765897887419,-468,8354,-453,0,0,0,0,0
1667,1765897887836,-471,8284,-453,0,0,0,0,0
1668,1765897887969,-519,8396,-418,0,0,0,0,0
1669,1765897888287,-417,8240,-362,0,0,0,0,0
1670,1765897891389,-421,8342,-394,0,0,0,0,0
1671,1765897892553,-419,8342,-432,0,0,0,0,0
1672,1765897892720,-452,8335,-418,0,0,0,0,0
1673,1765897893269,-440,8362,-435,0,0,0,0,0
1674,1765897893451,-472,8364,-378,0,0,0,0,0
1675,1765897893852,-458,8412,-422,0,0,0,0,0
1676,1765897893985,-449,8343,-416,0,0,0,0,0
1677,1765897894236,-416,8355,-411,0,0,0,0,0
1678,1765897894385,-413,8323,-368,0,0,0,0,0
1679,1765897894918,-432,8351,-382,0,0,0,0,0
1680,1765897897369,-445,8380,-400,0,0,0,0,0
1681,1765897898135,-444,8388,-385,0,0,0,0,0
1682,1765897898419,-470,8342,-397,0,0,0,0,0
1683,1765897902168,-449,8323,-411,0,0,0,0,0
1684,1765897902635,-438,8356,-409,0,0,0,0,0
1685,1765897905102,-438,8366,-410,0,0,0,0,0
1686,1765897909198,-434,8366,-402,0,0,0,0,0
1687,1765897910705,-328,8322,-391,0,0,0,0,0
1688,1765897912503,-452,8339,-430,0,0,0,0,0
1689,1765897913069,-438,8335,-419,0,0,0,0,0
1690,1765897913601,-450,8384,-425,0,0,0,0,0
1691,1765897913853,-447,8383,-398,0,0,0,0,0
1692,1765897914069,-424,8342,-400,0,0,0,0,0
1693,1765897914237,-446,8382,-414,0,0,0,0,0
1694,1765897915102,-428,8355,-394,0,0,0,0,0
1695,1765897915319,-445,8376,-404,0,0,0,0,0
1696,1765897915702,-440,8350,-423,0,0,0,0,0
1697,1765897915985,-433,8358,-386,0,0,0,0,0
1698,1765897916169,-437,8380,-406,0,0,0,0,0
1699,1765897916387,-438,8358,-404,0,0,0,0,0
1700,1765897916819,-450,8347,-411,0,0,0,0,0
1701,1765897917069,-442,8361,-397,0,0,0,0,0
1702,1765897917218,-445,8350,-408,0,0,0,0,0
1703,1765897917734,-431,8369,-404,0,0,0,0,0
1704,1765897918069,-447,8339,-396,0,0,0,0,0
1705,1765897918553,-442,8369,-405,0,0,0,0,0
1706,1765897918835,-454,8338,-416,0,0,0,0,0
1707,1765897919002,-442,8379,-405,0,0,0,0,0
1708,1765897919253,-433,8356,-404,0,0,0,0,0
1709,1765897919352,-437,8346,-396,0,0,0,0,0
1710,1765897920162,-443,8355,-404,0,0,0,0,0
1711,1765897920686,-438,8364,-406,0,0,0,0,0
1712,1765897921552,-446,8372,-401,0,0,0,0,0
1713,1765897921652,-438,8341,-415,0,0,0,0,0
1714,1765897922770,-450,8343,-406,0,0,0,0,0
1715,1765897923586,-433,8382,-414,0,0,0,0,0
1716,1765897924151,-434,8367,-413,0,0,0,0,0
1717,1765897924335,-447,8335,-398,0,0,0,0,0
1718,1765897925022,-439,8376,-417,0,0,0,0,0
1719,1765897925152,-438,8344,-408,0,0,0,0,0
1720,1765897925369,-446,8338,-397,0,0,0,0,0
1721,1765897926120,-442,8329,-412,0,0,0,0,0
1722,1765897926488,-438,8374,-414,0,0,0,0,0
1723,1765897926968,-433,8342,-397,0,0,0,0,0
1724,1765897927318,-440,8362,-413,0,0,0,0,0
1725,1765897927451,-430,8360,-407,0,0,0,0,0
1726,1765897927719,-432,8340,-422,0,0,0,0,0
1727,1765897927835,-440,8358,-390,0,0,0,0,0
1728,1765897928102,-426,8373,-406,0,0,0,0,0
1729,1765897928171,-430,8341,-409,0,0,0,0,0
1730,1765897928686,-442,8230,-421,0,0,0,0,0
1731,1765897928952,-442,8359,-388,0,0,0,0,0
1732,1765897929085,-460,8422,-408,0,0,0,0,0
1733,1765897935452,-431,8328,-404,0,0,0,0,0
1734,1765897935602,-446,8368,-402,0,0,0,0,0
1735,1765897936186,-442,8381,-404,0,0,0,0,0
1736,1765897938303,-437,8328,-400,0,0,0,0,0
1737,1765897940352,-448,8345,-422,0,0,0,0,0
1738,1765897940635,-447,8352,-402,0,0,0,0,0
1739,1765897940685,-452,8357,-406,0,0,0,0,0
1740,1765897941051,-459,8352,-398,0,0,0,0,0
1741,1765897941235,-460,8344,-406,0,0,0,0,0
1742,1765897942408,-436,8352,-406,0,0,0,0,0
1743,1765897942552,-430,8320,-386,0,0,0,0,0
1744,1765897942867,-450,8420,-456,0,0,0,0,0
1745,1765897942919,-449,8313,-382,0,0,0,0,0
1746,1765897943617,-434,8348,-407,0,0,0,0,0
1747,1765897943701,-437,8348,-370,0,0,0,0,0
1748,1765897944036,-442,8331,-438,0,0,0,0,0
1749,1765897944287,-455,8337,-403,0,0,0,0,0
1750,1765897945002,-455,8327,-407,0,0,0,0,0
1751,1765897945269,-482,8377,-403,0,0,0,0,0
1752,1765897945602,-466,8356,-402,0,0,0,0,0
1753,1765897945752,-460,8342,-407,0,0,0,0,0
1754,1765897946151,-444,8357,-407,0,0,0,0,0
1755,1765897947335,-444,8344,-416,0,0,0,0,0
1756,1765897947652,-446,8351,-392,0,0,0,0,0
1757,1765897948718,-446,8328,-404,0,0,0,0,0
1758,1765897948951,-444,8382,-403,0,0,0,0,0
1759,1765897949701,-434,8365,-405,0,0,0,0,0
1760,1765897950019,-425,8368,-418,0,0,0,0,0
1761,1765897950084,-427,8356,-398,0,0,0,0,0
1762,1765897950503,-453,8357,-396,0,0,0,0,0
1763,1765897950752,-455,8357,-403,0,0,0,0,0
1764,1765897950919,-444,8354,-400,0,0,0,0,0
1765,1765897952568,-448,8370,-409,0,0,0,0,0
1766,1765897952704,-448,8348,-414,0,0,0,0,0
1767,1765897953388,-438,8330,-418,0,0,0,0,0
1768,1765897953521,-433,8359,-415,0,0,0,0,0
1769,1765897954552,-454,8314,-408,0,0,0,0,0
1770,1765897956051,-439,8340,-402,0,0,0,0,0
1771,1765897958052,-439,8343,-408,0,0,0,0,0
1772,1765897961935,-438,8368,-417,0,0,0,0,0
1773,1765897963652,-434,8330,-408,0,0,0,0,0
1774,1765897964668,-444,8356,-406,0,0,0,0,0
1775,1765897967250,-444,8361,-423,0,0,0,0,0
1776,1765897968219,-430,8364,-410,0,0,0,0,0
1777,1765897968503,-404,8345,-397,0,0,0,0,0
1778,1765897968584,-464,8338,-416,0,0,0,0,0
1779,1765897968785,-446,8364,-410,0,0,0,0,0
1780,1765897969436,-436,8346,-398,0,0,0,0,0
1781,1765897969885,-434,8356,-390,0,0,0,0,0
1782,1765897970001,-442,8337,-399,0,0,0,0,0
1783,1765897970334,-442,8358,-397,0,0,0,0,0
1784,1765897973185,-427,8376,-413,0,0,0,0,0
1785,1765897973685,-437,8341,-416,0,0,0,0,0
1786,1765897973985,-454,8346,-421,0,0,0,0,0
1787,1765897974467,-432,8356,-412,0,0,0,0,0
1788,1765897975002,-444,8349,-415,0,0,0,0,0
1789,1765897975637,-449,8343,-392,0,0,0,0,0
1790,1765897975643,-430,8367,-416,0,0,0,0,0
1791,1765897975835,-448,8341,-399,0,0,0,0,0
1792,1765897975952,-461,8360,-394,0,0,0,0,0
1793,1765897976535,-439,8328,-425,0,0,0,0,0
1794,1765897976670,-426,8368,-402,0,0,0,0,0
1795,1765897977036,-441,8330,-396,0,0,0,0,0
1796,1765897977484,-440,8354,-404,0,0,0,0,0
1797,1765897979017,-444,8343,-415,0,0,0,0,0
1798,1765897979804,-436,8346,-432,0,0,0,0,0
1799,1765897981868,-447,8370,-396,0,0,0,0,0
1800,1765897982068,-445,8355,-377,0,0,0,0,0
1801,1765897982351,-442,8334,-426,0,0,0,0,0
1802,1765897982417,-446,8374,-418,0,0,0,0,0
1803,1765897982735,-460,8348,-402,0,0,0,0,0
1804,1765897983251,-448,8354,-392,0,0,0,0,0
1805,1765897983401,-453,8363,-418,0,0,0,0,0
1806,1765897984669,-402,8365,-420,0,0,0,0,0
1807,1765897986017,-494,8251,-422,0,0,0,0,0
1808,1765897986719,-474,8341,-400,0,0,0,0,0
1809,1765897986720,-454,8350,-402,0,0,0,0,0
1810,1765897986726,-430,8372,-421,0,0,0,0,0
1811,1765897986987,-455,8336,-423,0,0,0,0,0
1812,1765897987235,-473,8318,-334,0,0,0,0,0
1813,1765897987785,-443,8375,-428,0,0,0,0,0
1814,1765897987935,-445,8358,-429,0,0,0,0,0
1815,1765897989769,-434,8335,-403,0,0,0,0,0
1816,1765897990284,-433,8338,-350,0,0,0,0,0
1817,1765897990320,-440,8366,-333,0,0,0,0,0
1818,1765897990802,-456,8414,-421,0,0,0,0,0
1819,1765897991085,-422,8321,-423,0,0,0,0,0
1820,1765897991386,-447,8352,-402,0,0,0,0,0
1821,1765897991869,-455,8364,-384,0,0,0,0,0
1822,1765897992534,-456,8358,-393,0,0,0,0,0
1823,1765897992969,-448,8364,-426,0,0,0,0,0
1824,1765897993134,-431,8337,-386,0,0,0,0,0
1825,1765897993700,-450,8366,-412,0,0,0,0,0
1826,1765897994651,-456,8371,-412,0,0,0,0,0
1827,1765897994954,-474,8341,-400,0,0,0,0,0
1828,1765897995917,-442,8356,-398,0,0,0,0,0
1829,1765897996652,-457,8369,-408,0,0,0,0,0
1830,1765897996768,-414,8350,-429,0,0,0,0,0
1831,1765897996969,-455,8311,-402,0,0,0,0,0
1832,1765897997723,-460,8351,-425,0,0,0,0,0
1833,1765897997723,-449,8367,-397,0,0,0,0,0
1834,1765897997801,-445,8364,-423,0,0,0,0,0
1835,1765897997950,-442,8356,-396,0,0,0,0,0
1836,1765897998185,-450,8361,-411,0,0,0,0,0
1837,1765897998285,-448,8354,-408,0,0,0,0,0
1838,1765897999053,-470,8344,-379,0,0,0,0,0
1839,1765898000368,-412,8374,-411,0,0,0,0,0
1840,1765898004402,-449,8370,-397,0,0,0,0,0
1841,1765898007967,-436,8365,-412,0,0,0,0,0
1842,1765898008916,-456,8358,-416,0,0,0,0,0
1843,1765898008916,-461,8341,-408,0,0,0,0,0
1844,1765898009386,-439,8383,-407,0,0,0,0,0
1845,1765898010101,-418,8403,-398,0,0,0,0,0
1846,1765898010386,-466,8332,-402,0,0,0,0,0
1847,1765898010619,-462,8355,-406,0,0,0,0,0
1848,1765898010852,-433,8350,-398,0,0,0,0,0
1849,1765898010920,-454,8346,-406,0,0,0,0,0
1850,1765898011184,-433,8362,-392,0,0,0,0,0
1851,1765898011418,-455,8389,-407,0,0,0,0,0
1852,1765898011668,-444,8352,-412,0,0,0,0,0
1853,1765898012000,-436,8345,-398,0,0,0,0,0
1854,1765898012250,-452,8372,-408,0,0,0,0,0
1855,1765898012450,-436,8340,-409,0,0,0,0,0
1856,1765898012718,-448,8348,-414,0,0,0,0,0
1857,1765898013220,-456,8368,-415,0,0,0,0,0
1858,1765898013534,-437,8370,-406,0,0,0,0,0
1859,1765898014017,-429,8347,-412,0,0,0,0,0
1860,1765898014484,-438,8343,-412,0,0,0,0,0
1861,1765898014769,-436,8363,-390,0,0,0,0,0
1862,1765898015051,-436,8304,-408,0,0,0,0,0
1863,1765898015536,-437,8365,-401,0,0,0,0,0
1864,1765898015803,-448,8351,-422,0,0,0,0,0
1865,1765898016134,-436,8340,-401,0,0,0,0,0
1866,1765898016302,-430,8367,-405,0,0,0,0,0
1867,1765898016601,-442,8342,-408,0,0,0,0,0
1868,1765898017118,-444,8360,-395,0,0,0,0,0
1869,1765898017919,-440,8379,-403,0,0,0,0,0
1870,1765898018184,-468,8357,-382,0,0,0,0,0
1871,1765898018300,-462,8345,-418,0,0,0,0,0
1872,1765898018717,-433,8364,-408,0,0,0,0,0
1873,1765898018785,-446,8361,-408,0,0,0,0,0
1874,1765898019168,-436,8356,-396,0,0,0,0,0
1875,1765898020251,-459,8348,-419,0,0,0,0,0
1876,1765898021084,-417,8384,-411,0,0,0,0,0
1877,1765898022370,-441,8366,-414,0,0,0,0,0
1878,1765898023235,-443,8373,-406,0,0,0,0,0
1879,1765898023633,-438,8348,-389,0,0,0,0,0
1880,1765898024484,-456,8327,-410,0,0,0,0,0
1881,1765898025284,-439,8380,-405,0,0,0,0,0
1882,1765898026952,-447,8362,-404,0,0,0,0,0
1883,1765898027633,-428,8374,-398,0,0,0,0,0
1884,1765898027867,-435,8332,-400,0,0,0,0,0
1885,1765898028367,-455,8362,-408,0,0,0,0,0
1886,1765898028784,-441,8326,-407,0,0,0,0,0
1887,1765898033651,-428,8346,-400,0,0,0,0,0
1888,1765898034351,-439,8358,-393,0,0,0,0,0
1889,1765898034683,-450,8352,-406,0,0,0,0,0
1890,1765898035450,-428,8344,-405,0,0,0,0,0
1891,1765898036669,-443,8359,-405,0,0,0,0,0
1892,1765898040484,-433,8351,-402,0,0,0,0,0
1893,1765898041285,-458,8336,-392,0,0,0,0,0
1894,1765898041992,-438,8376,-400,0,0,0,0,0
1895,1765898044651,-437,8343,-398,0,0,0,0,0
1896,1765898045101,-445,8342,-396,0,0,0,0,0
1897,1765898047601,-433,8357,-404,0,0,0,0,0
1898,1765898048816,-416,8350,-426,0,0,0,0,0
1899,1765898048984,-451,8384,-403,0,0,0,0,0
1900,1765898050769,-445,8352,-420,0,0,0,0,0
1901,1765898051234,-451,8366,-398,0,0,0,0,0
1902,1765898052983,-444,8354,-406,0,0,0,0,0
1903,1765898053467,-438,8357,-413,0,0,0,0,0
1904,1765898053717,-452,8354,-408,0,0,0,0,0
1905,1765898054016,-451,8350,-402,0,0,0,0,0
1906,1765898054250,-438,8362,-405,0,0,0,0,0
1907,1765898054750,-442,8365,-404,0,0,0,0,0
1908,1765898055250,-442,8366,-417,0,0,0,0,0
1909,1765898055817,-459,8349,-415,0,0,0,0,0
1910,1765898056283,-442,8358,-425,0,0,0,0,0
1911,1765898056584,-435,8345,-408,0,0,0,0,0
1912,1765898056901,-461,8361,-399,0,0,0,0,0
1913,1765898057352,-448,8347,-398,0,0,0,0,0
1914,1765898058653,-442,8373,-400,0,0,0,0,0
1915,1765898060552,-422,8360,-423,0,0,0,0,0
1916,1765898062334,-448,8369,-402,0,0,0,0,0
1917,1765898062568,-414,8302,-403,0,0,0,0,0
1918,1765898062750,-398,8396,-389,0,0,0,0,0
1919,1765898063200,-470,8404,-410,0,0,0,0,0
1920,1765898064784,-417,8355,-380,0,0,0,0,0
1921,1765898065718,-397,8356,-397,0,0,0,0,0
1922,1765898065885,-499,8346,-376,0,0,0,0,0
1923,1765898066134,-406,8357,-426,0,0,0,0,0
1924,1765898066585,-446,8342,-410,0,0,0,0,0
1925,1765898069684,-456,8376,-399,0,0,0,0,0
1926,1765898071449,-430,8383,-398,0,0,0,0,0
1927,1765898072167,-428,8380,-396,0,0,0,0,0
1928,1765898072517,-456,8386,-402,0,0,0,0,0
1929,1765898073733,-441,8400,-421,0,0,0,0,0
1930,1765898074216,-438,8357,-424,0,0,0,0,0
1931,1765898074967,-462,8350,-379,0,0,0,0,0
1932,1765898075166,-464,8338,-373,0,0,0,0,0
1933,1765898080134,-397,8357,-374,0,0,0,0,0
1934,1765898080185,-460,8364,-354,0,0,0,0,0
1935,1765898080950,-431,8370,-416,0,0,0,0,0
1936,1765898082349,-437,8381,-418,0,0,0,0,0
1937,1765898083066,-468,8381,-456,0,0,0,0,0
1938,1765898083570,-417,8361,-365,0,0,0,0,0
1939,1765898084182,-480,8370,-364,0,0,0,0,0
1940,1765898084599,-442,8352,-405,0,0,0,0,0
1941,1765898086017,-478,8288,-399,0,0,0,0,0
1942,1765898087932,-444,8370,-402,0,0,0,0,0
1943,1765898088150,-440,8374,-406,0,0,0,0,0
1944,1765898088367,-460,8281,-405,0,0,0,0,0
1945,1765898088667,-437,8392,-476,0,0,0,0,0
1946,1765898090033,-461,8363,-408,0,0,0,0,0
1947,1765898095084,-504,8333,-385,0,0,0,0,0
1948,1765898098232,-451,8316,-397,0,0,0,0,0
1949,1765898099033,-440,8360,-390,0,0,0,0,0
1950,1765898103000,-440,8383,-409,0,0,0,0,0
1951,1765898104716,-447,8355,-403,0,0,0,0,0
1952,1765898106999,-426,8381,-397,0,0,0,0,0
1953,1765898108468,-427,8398,-419,0,0,0,0,0
1954,1765898109599,-424,8350,-392,0,0,0,0,0
1955,1765898109785,-440,8346,-424,0,0,0,0,0
1956,1765898112616,-538,8359,-479,0,0,0,0,0
1957,1765898112817,-426,8353,-390,0,0,0,0,0
1958,1765898113084,-449,8354,-434,0,0,0,0,0
1959,1765898113333,-447,8454,-396,0,0,0,0,0
1960,1765898114249,-420,8350,-409,0,0,0,0,0
1961,1765898115050,-454,8228,-344,0,0,0,0,0
1962,1765898119816,-455,8358,-400,0,0,0,0,0
1963,1765898123815,-451,8380,-398,0,0,0,0,0
1964,1765898124016,-425,8332,-401,0,0,0,0,0
1965,1765898124783,-434,8352,-409,0,0,0,0,0
1966,1765898125016,-436,8367,-399,0,0,0,0,0
1967,1765898128849,-449,8257,-398,0,0,0,0,0
1968,1765898130014,-391,8362,-407,0,0,0,0,0
1969,1765898130682,-448,8350,-389,0,0,0,0,0
1970,1765898134150,-798,8596,680,0,0,0,0,0
1971,1765898135650,251,9496,1261,0,0,0,0,0
1972,1765898137033,1023,8396,1514,0,0,0,0,0
1973,1765898137116,52,7631,732,0,0,0,0,0
1974,1765898138332,262,10074,658,0,0,0,0,0
1975,1765898139283,-1258,7353,1097,0,0,0,0,0
1976,1765898140979,-2704,7050,-738,0,0,0,0,0
1977,1765898141032,-1410,8838,-2340,0,0,0,0,0
1978,1765898141533,-694,7692,-1718,0,0,0,0,0
1979,1765898141733,446,8432,-754,0,0,0,0,0
1980,1765898142335,4074,8496,-2148,0,0,0,0,0
1981,1765898142599,3368,9884,-1506,0,0,0,0,0
1982,1765898146049,-4585,7870,31,0,0,0,0,0
1983,1765898146150,-2946,7758,-555,0,0,0,0,0
1984,1765898146448,-3084,7838,238,0,0,0,0,0
1985,1765898146768,-2684,7195,435,0,0,0,0,0
1986,1765898146948,-5145,7535,-1055,0,0,0,0,0
1987,1765898147298,-3551,7972,-261,0,0,0,0,0
1988,1765898147717,-2504,7456,-252,0,0,0,0,0
1989,1765898148115,-3098,6478,-794,0,0,0,0,0
1990,1765898148599,-4899,9863,-955,0,0,0,0,0
1991,1765898151151,-3379,8482,-967,0,0,0,0,0
1992,1765898151939,-2759,6763,-481,0,0,0,0,0
1993,1765898152132,1224,5591,300,0,0,0,0,0
1994,1765898152865,-4241,7949,144,0,0,0,0,0
1995,1765898153632,-3287,8822,1988,0,0,0,0,0
1996,1765898154382,4938,5874,710,0,0,0,0,0
1997,1765898154685,2944,10211,-412,0,0,0,0,0
1998,1765898155115,1594,9492,-1675,0,0,0,0,0
1999,1765898155450,-2078,8513,-2516,0,0,0,0,0
2000,1765898155700,-3401,8312,-4056,0,0,0,0,0
2001,1765898157248,6402,8545,-1420,0,0,0,0,0
2002,1765898159383,3745,9683,-1678,0,0,0,0,0
2003,1765898159700,3761,8554,-1789,0,0,0,0,0
2004,1765898161299,-2765,8162,-247,0,0,0,0,0
2005,1765898162250,1161,7094,-4314,0,0,0,0,0
2006,1765898163008,1295,10092,-2786,0,0,0,0,0
2007,1765898163232,-4940,9324,-1674,0,0,0,0,0
2008,1765898163565,-5414,8236,-977,0,0,0,0,0
2009,1765898164931,-3209,8372,273,0,0,0,0,0
2010,1765898165198,-2607,7941,-399,0,0,0,0,0
2011,1765898165349,-4149,8550,732,0,0,0,0,0
2012,1765898165632,-3914,7722,468,0,0,0,0,0
2013,1765898166165,-3032,8918,1318,0,0,0,0,0
2014,1765898166649,-4915,8344,93,0,0,0,0,0
2015,1765898166899,-4246,7738,297,0,0,0,0,0
2016,1765898167050,-5839,9301,1078,0,0,0,0,0
2017,1765898167215,-4207,8672,276,0,0,0,0,0
2018,1765898167398,-3398,8039,52,0,0,0,0,0
2019,1765898167782,-3298,8604,980,0,0,0,0,0
2020,1765898168015,-3232,7701,754,0,0,0,0,0
2021,1765898168165,-3220,8003,1839,0,0,0,0,0
2022,1765898168515,-3474,8812,689,0,0,0,0,0
2023,1765898168799,-1648,7996,486,0,0,0,0,0
2024,1765898168983,-1501,8025,854,0,0,0,0,0
2025,1765898169267,-1795,7836,863,0,0,0,0,0
2026,1765898169448,-993,9946,873,0,0,0,0,0
2027,1765898169782,-1298,7272,-420,0,0,0,0,0
2028,1765898169983,-481,9212,2074,0,0,0,0,0
2029,1765898170165,-962,7081,868,0,0,0,0,0
2030,1765898170382,-1153,8865,595,0,0,0,0,0
2031,1765898171748,-338,9019,1128,0,0,0,0,0
2032,1765898174217,-4959,8572,-353,0,0,0,0,0
2033,1765898175451,-3724,6962,-337,0,0,0,0,0
2034,1765898176584,-4730,7338,-2118,0,0,0,0,0
2035,1765898176965,-3725,7530,-1592,0,0,0,0,0
2036,1765898178801,-1469,7528,-763,0,0,0,0,0
2037,1765898178965,-337,6246,-627,0,0,0,0,0
2038,1765898179032,-1747,8508,-756,0,0,0,0,0
2039,1765898179683,-1166,8377,-946,0,0,0,0,0
2040,1765898182115,-330,8227,-2008,0,0,0,0,0
