index,date,GYRO_X,GYRO_Y,GYRO_Z
0,1782582316213,0.2099999999999999,-0.4899999999999999,0.07
1,1782582316281,0.2099999999999999,-0.56,0.0
2,1782582316331,0.14,-0.56,0.07
3,1782582316413,0.2099999999999999,-0.56,0.0
4,1782582316531,0.14,-0.4899999999999999,0.07
5,1782582316596,0.14,-0.56,0.07
6,1782582316630,0.2099999999999999,-0.3499999999999999,0.07
7,1782582316681,0.2099999999999999,-0.4899999999999999,0.07
8,1782582316764,0.2099999999999999,-0.4899999999999999,0.07
9,1782582316914,0.2099999999999999,-0.56,0.07
10,1782582316931,0.2099999999999999,-0.56,0.07
11,1782582316964,0.2099999999999999,-0.56,0.07
12,1782582316980,0.2099999999999999,-0.4899999999999999,0.07
13,1782582317164,0.28,-0.4899999999999999,0.07
14,1782582317213,0.28,-0.56,0.07
15,1782582317279,0.28,-0.4899999999999999,0.07
16,1782582317329,0.28,-0.4899999999999999,0.07
17,1782582317412,0.28,-0.56,0.14
18,1782582317479,0.28,-0.56,0.14
19,1782582317579,0.28,-0.56,0.14
20,1782582317629,0.28,-0.56,0.14
21,1782582317679,0.28,-0.4899999999999999,0.07
22,1782582317729,0.28,-0.4899999999999999,0.07
23,1782582317795,0.28,-0.4899999999999999,0.07
24,1782582317829,0.28,-0.4899999999999999,0.07
25,1782582317896,0.14,-0.4899999999999999,0.07
26,1782582317946,0.2099999999999999,-0.56,0.07
27,1782582317996,0.28,-0.4899999999999999,0.0
28,1782582318029,0.2099999999999999,-0.4899999999999999,0.0
29,1782582318079,0.2099999999999999,-0.4899999999999999,0.0
30,1782582318146,0.2099999999999999,-0.56,0.0
31,1782582318179,0.2099999999999999,-0.56,0.0
32,1782582318245,0.2099999999999999,-0.4899999999999999,0.07
33,1782582318345,0.2099999999999999,-0.56,0.07
34,1782582318412,0.2099999999999999,-0.4899999999999999,0.07
35,1782582318478,0.2099999999999999,-0.4899999999999999,0.07
36,1782582318495,0.28,-0.4899999999999999,0.07
37,1782582318512,0.2099999999999999,-0.4899999999999999,0.07
38,1782582318612,0.2099999999999999,-0.4899999999999999,0.0
39,1782582318711,0.2099999999999999,-0.4899999999999999,0.0
40,1782582318796,0.2099999999999999,-0.56,0.0
41,1782582318828,0.2099999999999999,-0.56,0.07
42,1782582318895,0.2099999999999999,-0.56,0.07
43,1782582318928,0.14,-0.4899999999999999,0.07
44,1782582319095,0.07,-0.56,0.07
45,1782582319144,0.07,-0.56,0.07
46,1782582319194,0.2099999999999999,-0.56,0.07
47,1782582319261,0.14,-0.56,0.07
48,1782582319361,0.2099999999999999,-0.63,0.07
49,1782582319378,0.2099999999999999,-0.63,0.07
50,1782582319444,0.2099999999999999,-0.63,0.07
51,1782582319494,0.14,-0.63,0.07
52,1782582319511,0.2099999999999999,-0.4899999999999999,0.0
53,1782582319577,0.2099999999999999,-0.4899999999999999,0.0
54,1782582319678,0.2099999999999999,-0.4899999999999999,0.0
55,1782582319744,0.2099999999999999,-0.4899999999999999,0.07
56,1782582319794,0.2099999999999999,-0.56,0.07
57,1782582319844,0.2099999999999999,-0.56,0.07
58,1782582319910,0.2099999999999999,-0.56,0.0
59,1782582319944,0.2099999999999999,-0.56,0.07
60,1782582319977,0.2099999999999999,-0.4899999999999999,0.0
61,1782582320044,0.2099999999999999,-0.4899999999999999,0.0
62,1782582320094,0.2099999999999999,-0.4899999999999999,0.0
63,1782582320144,0.28,-0.4899999999999999,0.07
64,1782582320193,0.3499999999999999,-0.56,0.0
65,1782582320210,0.2099999999999999,-0.56,0.0
66,1782582320227,0.2099999999999999,-0.56,0.07
67,1782582320260,0.28,-0.56,0.07
68,1782582320277,0.28,-0.56,0.07
69,1782582320326,0.14,-0.56,0.07
70,1782582320377,0.2099999999999999,-0.56,0.0
71,1782582320460,0.2099999999999999,-0.4899999999999999,0.0
72,1782582320493,0.2099999999999999,-0.56,0.0
73,1782582320560,0.28,-0.4899999999999999,0.0
74,1782582320577,0.28,-0.4899999999999999,0.0
75,1782582320660,0.28,-0.56,0.07
76,1782582320710,0.28,-0.4899999999999999,0.07
77,1782582320776,0.28,-0.4899999999999999,0.07
78,1782582320826,0.14,-0.4899999999999999,0.07
79,1782582320860,0.14,-0.56,0.07
80,1782582320910,0.14,-0.56,0.07
81,1782582320993,0.14,-0.4899999999999999,0.07
82,1782582321043,0.14,-0.56,0.0
83,1782582321126,0.28,-0.63,0.0
84,1782582321143,0.3499999999999999,-0.56,0.07
85,1782582321226,0.3499999999999999,-0.56,0.07
86,1782582321326,0.3499999999999999,-0.56,0.07
87,1782582321393,0.2099999999999999,-0.4199999999999999,0.07
88,1782582321443,0.2099999999999999,-0.4199999999999999,0.07
89,1782582321459,0.2099999999999999,-0.4899999999999999,0.0
90,1782582321542,0.14,-0.4899999999999999,0.0
91,1782582321559,0.14,-0.4899999999999999,0.0
92,1782582321592,0.07,-0.56,0.07
93,1782582321709,0.2099999999999999,-0.4899999999999999,0.07
94,1782582321760,0.2099999999999999,-0.4899999999999999,0.07
95,1782582321809,0.2099999999999999,-0.4899999999999999,0.07
96,1782582321859,0.2099999999999999,-0.4899999999999999,0.07
97,1782582321876,0.28,-0.4899999999999999,0.07
98,1782582322075,0.28,-0.56,0.0
99,1782582322142,0.28,-0.4899999999999999,0.0
100,1782582322142,0.14,-0.56,0.07
101,1782582322176,0.14,-0.56,0.07
102,1782582322225,0.14,-0.56,0.07
103,1782582322308,0.14,-0.56,0.07
104,1782582322375,0.14,-0.56,0.07
105,1782582322425,0.14,-0.56,0.0
106,1782582322442,0.14,-0.56,0.0
107,1782582322459,0.2099999999999999,-0.56,0.0
108,1782582322492,0.2099999999999999,-0.56,0.07
109,1782582322508,0.2099999999999999,-0.56,0.07
110,1782582322575,0.2099999999999999,-0.56,0.07
111,1782582322625,0.2099999999999999,-0.56,0.0
112,1782582322691,0.2099999999999999,-0.56,0.0
113,1782582322742,0.2099999999999999,-0.4899999999999999,0.0
114,1782582322791,0.14,-0.56,0.07
115,1782582322942,0.14,-0.4899999999999999,0.07
116,1782582323041,0.2099999999999999,-0.56,0.07
117,1782582323058,0.2099999999999999,-0.56,0.07
118,1782582323091,0.2099999999999999,-0.56,0.07
119,1782582323141,0.2099999999999999,-0.56,0.0
120,1782582323191,0.2099999999999999,-0.4899999999999999,0.0
121,1782582323291,0.28,-0.56,0.0
122,1782582323407,0.28,-0.56,0.07
123,1782582323458,0.28,-0.56,0.07
124,1782582323491,0.2099999999999999,-0.56,0.07
125,1782582323574,0.14,-0.56,0.07
126,1782582323608,0.2099999999999999,-0.56,0.07
127,1782582323674,0.2099999999999999,-0.56,0.07
128,1782582323824,0.2099999999999999,-0.4899999999999999,0.07
129,1782582323857,0.2099999999999999,-0.4899999999999999,0.07
130,1782582323957,0.2099999999999999,-0.4899999999999999,0.07
131,1782582324007,0.28,-0.4899999999999999,0.07
132,1782582324074,0.2099999999999999,-0.56,0.0
133,1782582324124,0.2099999999999999,-0.56,0.0
134,1782582324140,0.2099999999999999,-0.56,0.0
135,1782582324174,0.2099999999999999,-0.56,0.07
136,1782582324224,0.2099999999999999,-0.56,0.07
137,1782582324307,0.3499999999999999,-0.56,0.07
138,1782582324341,0.3499999999999999,-0.56,0.07
139,1782582324474,0.2099999999999999,-0.56,0.07
140,1782582324523,0.2099999999999999,-0.56,0.14
141,1782582324540,0.28,-0.56,0.07
142,1782582324607,0.28,-0.56,0.07
143,1782582324657,0.3499999999999999,-0.56,0.07
144,1782582324706,0.8399999999999999,-0.56,0.07
145,1782582324806,0.4199999999999999,-0.63,-0.07
146,1782582324873,0.4899999999999999,-0.6999999999999998,-0.14
147,1782582324907,0.4899999999999999,-0.6999999999999998,-0.2099999999999999
148,1782582324956,0.4899999999999999,-0.63,-0.2099999999999999
149,1782582325023,0.3499999999999999,-0.63,-0.28
150,1782582325073,0.3499999999999999,-0.6999999999999998,-0.28
151,1782582325122,0.28,-0.63,-0.3499999999999999
152,1782582325156,0.14,-0.4899999999999999,0.14
153,1782582325223,0.07,-0.4899999999999999,0.3499999999999999
154,1782582325289,0.07,-0.56,0.4199999999999999
155,1782582325339,0.07,-0.63,0.4199999999999999
156,1782582325373,0.14,-0.63,0.4199999999999999
157,1782582325389,0.2099999999999999,-0.63,0.28
158,1782582325423,0.2099999999999999,-0.56,0.0
159,1782582325539,0.2099999999999999,-0.56,-0.07
160,1782582325606,0.28,-0.4899999999999999,-0.14
161,1782582325672,0.28,-0.56,-0.07
162,1782582325690,0.28,-0.3499999999999999,0.0
163,1782582325706,0.28,-0.6999999999999998,0.07
164,1782582325772,0.28,-0.6999999999999998,0.07
165,1782582325839,0.28,-0.4899999999999999,0.07
166,1782582325905,0.2099999999999999,-0.56,0.2099999999999999
167,1782582326022,0.28,-0.56,0.14
168,1782582326122,0.2099999999999999,-0.56,0.07
169,1782582326139,0.2099999999999999,-0.56,0.07
170,1782582326155,0.28,-0.56,0.0
171,1782582326222,0.28,-0.56,0.0
172,1782582326255,0.28,-0.4899999999999999,0.0
173,1782582326355,0.2099999999999999,-0.4899999999999999,0.0
174,1782582326438,0.2099999999999999,-0.56,0.07
175,1782582326488,0.2099999999999999,-0.4899999999999999,0.07
176,1782582326555,0.2099999999999999,-0.4899999999999999,0.07
177,1782582326605,0.2099999999999999,-0.4899999999999999,0.07
178,1782582326655,0.4199999999999999,-0.4899999999999999,0.07
179,1782582328836,0.14,-0.63,0.2099999999999999
180,1782582328903,0.2099999999999999,-0.91,0.14
181,1782582328970,0.28,-0.91,0.07
182,1782582329020,0.28,-0.91,0.07
183,1782582329053,0.4899999999999999,-0.56,-0.07
184,1782582329119,0.4199999999999999,-0.4199999999999999,-0.14
185,1782582329153,0.4199999999999999,-0.4199999999999999,-0.14
186,1782582329153,0.63,-0.4199999999999999,0.2099999999999999
187,1782582329219,0.4899999999999999,-0.56,0.2099999999999999
188,1782582329236,-0.07,-0.63,0.2099999999999999
189,1782582329253,-0.07,-0.56,0.2099999999999999
190,1782582329286,-0.07,-0.56,0.07
191,1782582329303,-0.07,-0.4899999999999999,-0.07
192,1782582329336,0.2099999999999999,-0.4899999999999999,-0.07
193,1782582329386,0.4899999999999999,-0.4199999999999999,-0.07
194,1782582329436,0.4899999999999999,-0.4199999999999999,-0.14
195,1782582329486,0.4899999999999999,-0.4199999999999999,-0.14
196,1782582329536,-0.14,-0.56,0.0
197,1782582329602,-0.56,-0.56,0.0
198,1782582329636,-0.56,-0.98,0.07
199,1782582329719,-0.56,-0.98,0.14
200,1782582329752,0.4899999999999999,-0.91,0.07
201,1782582329819,1.61,-0.56,0.07
202,1782582329852,1.61,-0.4199999999999999,0.07
203,1782582329885,0.56,-0.8399999999999999,0.0
204,1782582330019,-0.14,-0.8399999999999999,0.2099999999999999
205,1782582330052,-0.14,-0.77,0.2099999999999999
206,1782582330085,-0.14,-0.4199999999999999,0.2099999999999999
207,1782582330102,0.2099999999999999,-0.14,0.14
208,1782582330119,0.4899999999999999,-0.14,0.14
209,1782582330152,0.4899999999999999,-0.07,0.07
210,1782582330202,0.4899999999999999,-0.07,0.07
211,1782582330268,0.28,-0.07,0.28
212,1782582330318,0.28,-0.07,0.2099999999999999
213,1782582330369,0.4199999999999999,-0.14,0.14
214,1782582330418,0.56,-0.3499999999999999,0.14
215,1782582330518,0.8399999999999999,-0.4899999999999999,0.07
216,1782582330568,0.14,-0.63,0.0
217,1782582330618,0.0,-0.56,0.07
218,1782582330685,0.0,-0.4199999999999999,0.07
219,1782582330735,0.0,-0.6999999999999998,0.07
220,1782582330785,0.2099999999999999,-0.4199999999999999,0.07
221,1782582330834,0.2099999999999999,-0.4199999999999999,0.07
222,1782582330851,0.2099999999999999,-0.4899999999999999,0.07
223,1782582330868,0.07,-0.63,0.07
224,1782582330885,0.07,-0.56,0.07
225,1782582330918,0.2099999999999999,-0.4899999999999999,0.0
226,1782582330952,0.2099999999999999,-0.4199999999999999,0.0
227,1782582330985,0.28,-0.4199999999999999,0.07
228,1782582331001,0.28,-0.4199999999999999,0.14
229,1782582331018,0.28,-0.4199999999999999,0.14
230,1782582331051,0.28,-0.4899999999999999,0.14
231,1782582331101,0.28,-0.56,0.14
232,1782582331151,0.28,-0.56,0.14
233,1782582331201,0.07,-0.56,0.07
234,1782582331268,0.07,-0.56,0.07
235,1782582331284,0.2099999999999999,-0.4899999999999999,0.07
236,1782582331351,0.2099999999999999,-0.4199999999999999,0.07
237,1782582331401,0.2099999999999999,-0.4199999999999999,0.07
238,1782582331484,0.2099999999999999,-0.4899999999999999,0.07
239,1782582331518,0.2099999999999999,-0.4899999999999999,0.07
240,1782582331568,0.28,-0.56,0.07
241,1782582331617,0.3499999999999999,-0.63,0.14
242,1782582331634,0.14,-0.56,0.0
243,1782582331684,0.14,-0.56,0.0
244,1782582331734,0.07,-0.56,0.0
245,1782582331751,0.14,-0.56,0.07
246,1782582331784,0.2099999999999999,-0.56,0.14
247,1782582331834,0.28,-0.56,0.14
248,1782582331867,0.28,-0.4899999999999999,0.2099999999999999
249,1782582331900,0.28,-0.4899999999999999,0.2099999999999999
250,1782582331967,0.14,-0.56,-0.07
251,1782582331983,0.14,-0.4199999999999999,-0.07
252,1782582332000,0.14,-0.28,-0.07
253,1782582332034,0.28,-0.4199999999999999,-0.07
254,1782582332100,0.28,-0.4899999999999999,-0.07
255,1782582332134,0.28,-0.4899999999999999,0.0
256,1782582332183,0.28,-0.63,0.0
257,1782582332250,0.28,-0.63,0.0
258,1782582332283,0.14,-0.4899999999999999,0.07
259,1782582332350,0.14,-0.56,0.07
260,1782582332400,0.28,-0.63,0.0
261,1782582332467,0.28,-0.3499999999999999,0.0
262,1782582366155,0.2099999999999999,-0.63,0.07
263,1782582366221,0.2099999999999999,-0.63,0.0
264,1782582366288,0.2099999999999999,-0.77,0.0
265,1782582366338,0.2099999999999999,-0.77,0.07
266,1782582366388,0.2099999999999999,-0.77,0.07
267,1782582366438,0.28,-0.77,0.07
268,1782582366472,0.28,-0.6999999999999998,0.07
269,1782582366472,0.3499999999999999,-0.2099999999999999,-0.07
270,1782582366538,0.3499999999999999,-0.3499999999999999,-0.07
271,1782582366555,0.28,-0.56,0.0
272,1782582366572,0.3499999999999999,-0.3499999999999999,0.0
273,1782582366605,0.07,0.07,0.07
274,1782582366622,0.07,-0.8399999999999999,0.07
275,1782582366654,0.2099999999999999,-0.07,0.07
276,1782582366704,0.28,0.07,0.07
277,1782582366755,0.2099999999999999,-0.07,0.07
278,1782582366804,0.2099999999999999,-0.4199999999999999,0.07
279,1782582366854,0.28,-0.56,0.07
280,1782582366904,0.2099999999999999,-0.56,0.0
281,1782582366955,0.2099999999999999,-0.56,0.07
282,1782582367004,0.2099999999999999,-0.4899999999999999,0.07
283,1782582367071,0.2099999999999999,-0.4899999999999999,0.0
284,1782582367121,0.2099999999999999,-0.4899999999999999,0.0
285,1782582367170,0.2099999999999999,-0.4899999999999999,0.07
286,1782582367321,0.14,-0.4899999999999999,0.07
287,1782582367371,0.2099999999999999,-0.4899999999999999,0.07
288,1782582367387,0.2099999999999999,-0.4899999999999999,0.07
289,1782582367404,0.2099999999999999,-0.4899999999999999,0.07
290,1782582367437,0.2099999999999999,-0.4899999999999999,0.07
291,1782582367454,0.2099999999999999,-0.4899999999999999,0.07
292,1782582367504,0.2099999999999999,-0.4899999999999999,0.07
293,1782582367554,0.2099999999999999,-0.4899999999999999,0.07
294,1782582367570,0.28,-0.4899999999999999,0.07
295,1782582367620,0.28,-0.56,0.07
296,1782582367670,0.28,-0.56,0.07
297,1782582367737,0.28,-0.56,0.07
298,1782582367820,0.28,-0.56,0.07
299,1782582367887,0.28,-0.56,0.07
300,1782582367920,0.28,-0.63,0.0
301,1782582368003,0.28,-0.4899999999999999,0.0
302,1782582368103,0.2099999999999999,-0.63,0.07
303,1782582368154,0.2099999999999999,-0.4899999999999999,0.07
304,1782582368170,0.14,-0.4899999999999999,0.07
305,1782582368186,0.2099999999999999,-0.4899999999999999,0.07
306,1782582368220,0.2099999999999999,-0.4899999999999999,0.07
307,1782582368253,0.14,-0.4899999999999999,0.0
308,1782582368286,0.14,-0.4899999999999999,0.0
309,1782582368303,0.2099999999999999,-0.4899999999999999,0.0
310,1782582368320,0.2099999999999999,-0.4899999999999999,0.0
311,1782582368353,0.2099999999999999,-0.4899999999999999,0.07
312,1782582368386,0.28,-0.56,0.07
313,1782582368420,0.2099999999999999,-0.4899999999999999,0.07
314,1782582368486,6.72,-0.4899999999999999,0.07
315,1782582368519,0.2099999999999999,-0.56,0.07
316,1782582368586,0.2099999999999999,-0.56,0.07
317,1782582368603,0.2099999999999999,-0.4899999999999999,0.07
318,1782582368670,0.2099999999999999,-0.4899999999999999,0.07
319,1782582368719,0.2099999999999999,-0.4899999999999999,0.07
320,1782582368803,0.2099999999999999,-0.4899999999999999,0.07
321,1782582368836,0.2099999999999999,-0.4899999999999999,0.07
322,1782582368903,0.2099999999999999,-0.4899999999999999,0.07
323,1782582368936,0.2099999999999999,-0.4899999999999999,0.07
324,1782582368969,0.14,-0.4899999999999999,0.07
325,1782582369002,0.14,-0.4899999999999999,0.07
326,1782582369053,0.2099999999999999,-0.56,0.07
327,1782582369069,0.14,-0.56,0.07
328,1782582369102,0.14,-0.56,0.0
329,1782582369153,0.14,-0.56,0.07
330,1782582369185,0.14,-0.4899999999999999,0.0
331,1782582369220,0.14,-0.4899999999999999,0.07
332,1782582369286,179.34,-0.4899999999999999,0.0
333,1782582369303,0.14,-0.4899999999999999,0.07
334,1782582369319,0.14,-0.4899999999999999,0.07
335,1782582369352,0.14,-0.4899999999999999,0.07
336,1782582369419,0.2099999999999999,-0.4899999999999999,0.0
337,1782582369452,0.2099999999999999,-0.4899999999999999,0.0
338,1782582369519,0.2099999999999999,-0.4899999999999999,0.0
339,1782582369569,0.2099999999999999,-0.4899999999999999,0.07
340,1782582369618,0.2099999999999999,-0.4899999999999999,0.07
341,1782582369669,0.2099999999999999,-0.56,0.07
342,1782582369719,0.2099999999999999,-0.56,0.07
343,1782582369786,0.2099999999999999,-0.56,0.0
344,1782582369835,0.2099999999999999,-0.56,0.0
345,1782582369869,0.2099999999999999,-0.56,0.07
346,1782582369919,0.2099999999999999,-0.56,0.07
347,1782582369935,0.2099999999999999,-0.56,0.07
348,1782582370019,0.2099999999999999,-0.56,0.0
349,1782582370068,0.2099999999999999,-0.56,0.07
350,1782582370118,0.2099999999999999,-0.56,0.07
351,1782582370135,0.14,-0.4899999999999999,0.0
352,1782582370202,0.14,-0.4899999999999999,0.0
353,1782582370251,0.14,-0.4899999999999999,0.0
354,1782582370269,0.14,-0.4899999999999999,0.0
355,1782582370302,0.14,-0.4899999999999999,0.0
356,1782582370351,0.2099999999999999,-0.4899999999999999,0.0
357,1782582370418,0.28,-0.4199999999999999,0.07
358,1782582370518,0.28,-0.4199999999999999,0.0
359,1782582370585,0.14,-0.4199999999999999,0.0
360,1782582370618,0.07,-0.4199999999999999,0.07
361,1782582370635,0.07,-0.4199999999999999,0.07
362,1782582370651,0.07,-0.56,0.07
363,1782582370884,0.2099999999999999,-0.4899999999999999,0.0
364,1782582370951,0.28,-0.4899999999999999,0.0
365,1782582371001,0.2099999999999999,-0.63,0.07
366,1782582371068,0.2099999999999999,-0.63,0.07
367,1782582371134,0.14,-0.63,0.07
368,1782582371201,0.2099999999999999,-0.56,0.07
369,1782582371267,0.2099999999999999,-0.4899999999999999,0.07
370,1782582371318,0.2099999999999999,-0.4899999999999999,0.07
371,1782582371367,0.2099999999999999,-0.4899999999999999,0.07
372,1782582371417,0.2099999999999999,-0.4899999999999999,0.07
373,1782582371484,0.2099999999999999,-0.4899999999999999,0.07
374,1782582371534,0.2099999999999999,-0.56,0.07
375,1782582371684,0.2099999999999999,-0.56,0.07
376,1782582371734,0.2099999999999999,-0.56,0.07
377,1782582371783,0.2099999999999999,-0.56,0.07
378,1782582371833,0.2099999999999999,-0.56,0.0
379,1782582371884,0.28,-0.56,0.07
380,1782582371950,0.28,-0.56,0.14
381,1782582371983,0.28,-0.4899999999999999,0.07
382,1782582372017,0.2099999999999999,-0.4899999999999999,0.07
383,1782582372050,0.2099999999999999,-0.4899999999999999,0.07
384,1782582372067,0.2099999999999999,-0.4899999999999999,0.07
385,1782582372100,0.2099999999999999,-0.4899999999999999,0.0
386,1782582372133,0.14,-0.4899999999999999,0.0
387,1782582372167,0.2099999999999999,-0.56,0.07
388,1782582372234,0.2099999999999999,-0.56,0.07
389,1782582372283,0.2099999999999999,-0.56,0.07
390,1782582372350,0.2099999999999999,-0.56,0.0
391,1782582372384,0.2099999999999999,-0.56,0.07
392,1782582372417,0.2099999999999999,-0.4899999999999999,0.07
393,1782582372433,0.2099999999999999,-0.56,0.07
394,1782582372483,0.2099999999999999,-0.56,0.07
395,1782582372550,0.2099999999999999,-0.56,0.07
396,1782582372600,0.2099999999999999,-0.4899999999999999,0.07
397,1782582372666,0.2099999999999999,-0.4899999999999999,0.07
398,1782582372683,0.2099999999999999,-0.4899999999999999,0.0
399,1782582372699,0.2099999999999999,-0.56,0.0
400,1782582372717,0.3499999999999999,-0.56,0.07
401,1782582372783,0.28,-0.56,0.0
402,1782582372833,0.28,-0.56,0.0
403,1782582372949,0.2099999999999999,-0.56,0.0
404,1782582373149,0.28,-0.4899999999999999,0.07
405,1782582373199,0.28,-0.4899999999999999,0.07
406,1782582373266,0.2099999999999999,-0.4899999999999999,0.07
407,1782582373332,0.2099999999999999,-0.56,0.0
408,1782582373383,0.2099999999999999,-0.4899999999999999,0.0
409,1782582373449,0.2099999999999999,-0.4899999999999999,0.07
410,1782582373565,0.2099999999999999,-0.4899999999999999,0.07
411,1782582373765,0.2099999999999999,-0.56,0.07
412,1782582373815,0.28,-0.56,0.07
413,1782582373865,0.2099999999999999,-0.4899999999999999,0.0
414,1782582373932,0.2099999999999999,-0.4899999999999999,0.07
415,1782582374015,0.2099999999999999,-0.4899999999999999,0.07
416,1782582374115,0.2099999999999999,-0.4899999999999999,0.07
417,1782582374165,0.2099999999999999,-0.4899999999999999,0.07
418,1782582374181,0.2099999999999999,-0.56,0.0
419,1782582374282,0.2099999999999999,-0.56,0.07
420,1782582374348,0.2099999999999999,-0.56,0.07
421,1782582374398,0.2099999999999999,-0.4899999999999999,0.07
422,1782582374448,0.2099999999999999,-0.4899999999999999,0.07
423,1782582374499,0.2099999999999999,-0.4899999999999999,0.0
424,1782582374631,0.2099999999999999,-0.56,0.0
425,1782582374664,0.28,-0.56,0.0
426,1782582374715,0.28,-0.56,0.07
427,1782582374731,0.28,-0.56,0.07
428,1782582374764,0.28,-0.56,0.07
429,1782582374781,0.2099999999999999,-0.4899999999999999,0.0
430,1782582374897,0.2099999999999999,-0.56,0.07
431,1782582374981,0.2099999999999999,-0.56,0.07
432,1782582375031,0.2099999999999999,-0.56,0.07
433,1782582375064,0.14,-0.56,0.07
434,1782582375131,0.14,-0.56,0.0
435,1782582375198,0.14,-0.4899999999999999,0.0
436,1782582375231,0.14,-0.4899999999999999,0.0
437,1782582375280,0.07,-0.56,0.0
438,1782582375314,0.14,-0.56,0.0
439,1782582375347,0.14,-0.56,0.0
440,1782582375364,0.28,-0.56,0.0
441,1782582375414,0.28,-0.56,0.0
442,1782582375647,0.28,-0.6999999999999998,0.14
443,1782582375697,0.28,-0.4199999999999999,0.14
444,1782582375747,0.2099999999999999,-0.6999999999999998,0.14
445,1782582375797,0.2099999999999999,-0.6999999999999998,0.14
446,1782582375846,0.2099999999999999,-0.6999999999999998,0.14
447,1782582375896,0.2099999999999999,-0.4899999999999999,0.0
448,1782582375947,0.2099999999999999,-0.4199999999999999,0.0
449,1782582375996,0.2099999999999999,-0.4199999999999999,0.07
450,1782582376047,0.2099999999999999,-0.4899999999999999,0.07
451,1782582376146,0.2099999999999999,-0.63,0.07
452,1782582376180,0.28,-0.4899999999999999,0.07
453,1782582376247,0.28,-0.4899999999999999,0.07
454,1782582376296,0.28,-0.4899999999999999,0.0
455,1782582376363,0.14,-0.4899999999999999,0.0
456,1782582376447,0.14,-0.4899999999999999,0.0
457,1782582376480,0.2099999999999999,-0.4899999999999999,0.14
458,1782582376579,0.2099999999999999,-0.4199999999999999,0.14
459,1782582376630,0.28,-0.4199999999999999,0.14
460,1782582376679,0.28,-0.4199999999999999,0.2099999999999999
461,1782582376730,0.28,-0.4899999999999999,0.2099999999999999
462,1782582376779,0.28,-0.4899999999999999,0.14
463,1782582376829,0.2099999999999999,-0.4899999999999999,0.14
464,1782582376879,0.2099999999999999,-0.4899999999999999,0.14
465,1782582376930,0.14,-0.4899999999999999,0.14
466,1782582376979,0.14,-0.4899999999999999,0.14
467,1782582377029,0.14,-0.4899999999999999,0.14
468,1782582377079,0.2099999999999999,-0.4899999999999999,0.07
469,1782582377146,0.2099999999999999,-0.4899999999999999,0.07
470,1782582377196,0.2099999999999999,-0.4899999999999999,-0.07
471,1782582377262,0.14,-0.4199999999999999,-0.07
472,1782582377329,0.2099999999999999,-0.4899999999999999,0.07
473,1782582377362,0.2099999999999999,-0.4899999999999999,0.0
474,1782582377429,0.2099999999999999,-0.4899999999999999,0.0
475,1782582377496,0.2099999999999999,-0.63,0.07
476,1782582377595,0.2099999999999999,-0.63,0.07
477,1782582377629,0.2099999999999999,-0.4899999999999999,0.07
478,1782582377645,0.14,-0.63,0.07
479,1782582377678,0.14,-0.4899999999999999,0.07
480,1782582377712,0.14,-0.4199999999999999,0.07
481,1782582377779,0.14,-0.4899999999999999,0.07
482,1782582377829,0.2099999999999999,-0.4899999999999999,0.07
483,1782582377928,0.14,-0.4199999999999999,0.0
484,1782582378012,0.14,-0.4199999999999999,0.0
485,1782582378045,0.14,-0.4899999999999999,0.0
486,1782582378061,0.14,-0.63,0.0
487,1782582378095,0.2099999999999999,-0.63,0.07
488,1782582378145,0.2099999999999999,-0.63,0.07
489,1782582378211,0.28,-0.56,0.0
490,1782582378261,0.28,-0.4199999999999999,0.0
491,1782582378295,0.28,-0.56,0.0
492,1782582378394,0.28,-0.4899999999999999,0.0
493,1782582378428,0.2099999999999999,-0.4899999999999999,0.0
494,1782582378461,0.2099999999999999,-0.56,0.0
495,1782582378511,0.2099999999999999,-0.56,0.0
496,1782582378561,0.2099999999999999,-0.56,0.0
497,1782582378594,0.2099999999999999,-0.56,0.0
498,1782582378611,0.2099999999999999,-0.56,0.0
499,1782582378695,0.2099999999999999,-0.4899999999999999,0.0
500,1782582378744,0.2099999999999999,-0.77,0.0
501,1782582378778,0.28,-0.4199999999999999,0.0
502,1782582378878,0.28,-0.4899999999999999,0.07
503,1782582378927,0.2099999999999999,-0.4199999999999999,0.07
504,1782582378978,0.14,-0.4199999999999999,0.07
505,1782582379027,0.2099999999999999,-0.56,0.0
506,1782582379077,0.2099999999999999,-0.56,0.0
507,1782582379144,0.2099999999999999,-0.4199999999999999,-0.07
508,1782582379194,0.2099999999999999,-0.4199999999999999,-0.07
509,1782582379227,0.28,-0.4199999999999999,-0.07
510,1782582379244,0.28,-0.4199999999999999,0.0
511,1782582379277,0.28,-0.4199999999999999,0.0
512,1782582379294,0.28,-0.4199999999999999,0.07
513,1782582379310,0.28,-0.4899999999999999,0.07
514,1782582379361,0.28,-0.4199999999999999,0.07
515,1782582379377,0.28,-0.4199999999999999,0.07
516,1782582379410,0.2099999999999999,-0.4199999999999999,0.07
517,1782582379460,0.2099999999999999,-0.4899999999999999,0.07
518,1782582379494,0.2099999999999999,-0.56,0.07
519,1782582379560,0.14,-0.56,0.0
520,1782582379627,0.2099999999999999,-0.4899999999999999,0.07
521,1782582379710,0.2099999999999999,-0.56,0.07
522,1782582379760,0.14,-0.4899999999999999,0.07
523,1782582379777,0.14,-0.4899999999999999,0.0
524,1782582379794,0.14,-0.4899999999999999,0.07
525,1782582379827,0.14,-0.63,0.07
526,1782582379860,0.14,-0.56,0.07
527,1782582379926,0.2099999999999999,-0.56,0.07
528,1782582379943,0.2099999999999999,-0.56,0.07
529,1782582379960,0.14,-0.56,0.07
530,1782582379994,0.14,-0.56,0.07
531,1782582380043,0.14,-0.4899999999999999,0.0
532,1782582380093,0.14,-0.4899999999999999,0.0
533,1782582380177,0.2099999999999999,-0.4899999999999999,0.0
534,1782582380243,0.2099999999999999,-0.56,0.07
535,1782582380277,0.28,-0.56,0.07
536,1782582380310,0.2099999999999999,-0.56,0.07
537,1782582380376,0.2099999999999999,-0.56,0.07
538,1782582380409,0.28,-0.56,0.0
539,1782582380443,0.2099999999999999,-0.4899999999999999,0.0
540,1782582380510,0.2099999999999999,-0.4899999999999999,0.07
541,1782582380559,0.2099999999999999,-0.4899999999999999,0.0
542,1782582380577,0.2099999999999999,-0.56,0.0
543,1782582380610,0.2099999999999999,-0.56,0.0
544,1782582380626,0.28,-0.56,0.07
545,1782582380643,0.2099999999999999,-0.4899999999999999,0.0
546,1782582380676,0.28,-0.4899999999999999,0.07
547,1782582380826,0.2099999999999999,-0.56,0.07
548,1782582380876,0.2099999999999999,-0.56,0.07
549,1782582380926,0.2099999999999999,-0.56,0.0
550,1782582380943,0.2099999999999999,-0.56,0.0
551,1782582380959,0.28,-0.4899999999999999,0.0
552,1782582380992,0.28,-0.4899999999999999,0.0
553,1782582381009,0.28,-0.4199999999999999,0.0
554,1782582381059,0.28,-0.4199999999999999,0.0
555,1782582381076,0.2099999999999999,-0.6999999999999998,0.07
556,1782582381143,0.28,-0.63,0.07
557,1782582381159,0.28,-0.63,0.07
558,1782582381192,0.28,-0.56,0.0
559,1782582381209,0.28,-0.4199999999999999,0.0
560,1782582381293,0.28,-0.4199999999999999,0.0
561,1782582381408,0.2099999999999999,-0.4899999999999999,0.07
562,1782582381443,0.2099999999999999,-0.56,0.07
563,1782582381476,0.28,-0.4899999999999999,0.07
564,1782582381508,0.0,-0.4199999999999999,0.07
565,1782582381526,0.0,-0.4899999999999999,0.07
566,1782582381542,0.14,-0.4899999999999999,0.07
567,1782582381592,0.14,-0.4899999999999999,0.07
568,1782582381642,0.14,-0.4899999999999999,0.0
569,1782582381692,0.14,-0.56,0.07
570,1782582381742,0.2099999999999999,-0.4899999999999999,0.0
571,1782582381792,0.2099999999999999,-0.4899999999999999,0.0
572,1782582381859,0.2099999999999999,-0.4899999999999999,0.0
573,1782582381942,0.2099999999999999,-0.4899999999999999,0.0
574,1782582381991,0.2099999999999999,-0.4899999999999999,0.0
575,1782582382075,0.2099999999999999,-0.56,0.07
576,1782582382125,0.2099999999999999,-0.56,0.07
577,1782582382158,0.2099999999999999,-0.56,0.07
578,1782582382225,0.2099999999999999,-0.56,0.0
579,1782582382258,0.2099999999999999,-0.56,0.0
580,1782582382326,0.14,-0.63,0.07
581,1782582382358,0.14,-0.63,0.07
582,1782582382409,0.14,-0.4899999999999999,0.0
583,1782582382458,0.2099999999999999,-0.4899999999999999,0.0
584,1782582382508,0.2099999999999999,-0.4899999999999999,0.0
585,1782582382574,0.28,-0.56,0.07
586,1782582382592,0.28,-0.4899999999999999,0.07
587,1782582382608,0.28,-0.56,0.07
588,1782582382658,0.28,-0.56,0.07
589,1782582382707,0.28,-0.56,0.07
590,1782582382758,0.2099999999999999,-0.56,0.07
591,1782582382808,0.28,-0.56,0.07
592,1782582382874,0.28,-0.56,0.07
593,1782582382908,0.14,-0.4899999999999999,0.0
594,1782582383057,0.14,-0.4899999999999999,0.07
595,1782582383091,0.14,-0.56,0.07
596,1782582383140,0.14,-0.56,0.0
597,1782582383157,0.28,-0.4899999999999999,0.07
598,1782582383191,0.14,-0.4899999999999999,0.0
599,1782582383224,0.2099999999999999,-0.4899999999999999,0.0
600,1782582383257,0.2099999999999999,-0.4899999999999999,0.0
601,1782582383308,0.2099999999999999,-0.4899999999999999,0.0
602,1782582383407,0.2099999999999999,-0.4899999999999999,0.0
603,1782582383441,0.2099999999999999,-0.56,0.07
604,1782582383457,0.2099999999999999,-0.4899999999999999,0.07
605,1782582383490,0.2099999999999999,-0.4899999999999999,0.07
606,1782582383524,0.2099999999999999,-0.4899999999999999,0.0
607,1782582383591,0.2099999999999999,-0.4899999999999999,0.07
608,1782582383673,0.2099999999999999,-0.56,0.07
609,1782582383741,0.3499999999999999,-0.4199999999999999,0.0
610,1782582383757,0.3499999999999999,-0.4199999999999999,0.07
611,1782582383774,0.28,-0.4899999999999999,0.07
612,1782582383824,0.2099999999999999,-0.4899999999999999,0.07
613,1782582383874,0.2099999999999999,-0.4199999999999999,0.07
614,1782582383907,0.14,-0.4899999999999999,0.07
615,1782582383956,0.14,-0.4899999999999999,0.07
616,1782582384006,0.2099999999999999,-0.56,0.0
617,1782582384057,0.2099999999999999,-0.56,0.0
618,1782582384140,0.2099999999999999,-0.56,0.07
619,1782582384173,0.2099999999999999,-0.56,0.07
620,1782582384223,0.28,-0.56,0.07
621,1782582384324,0.28,-0.56,0.07
622,1782582384390,0.2099999999999999,-0.4899999999999999,0.0
623,1782582384439,0.2099999999999999,-0.4899999999999999,0.0
624,1782582384490,0.2099999999999999,-0.4899999999999999,0.0
625,1782582384557,0.28,-0.4899999999999999,0.0
626,1782582384589,0.28,-0.4899999999999999,0.0
627,1782582384640,0.28,-0.4899999999999999,0.07
628,1782582384706,0.28,-0.4899999999999999,0.0
629,1782582384756,0.28,-0.4199999999999999,0.0
630,1782582384806,0.28,-0.4899999999999999,0.07
631,1782582384856,0.07,-0.4899999999999999,0.07
632,1782582384939,0.07,-0.56,0.07
633,1782582384972,0.3499999999999999,-0.4899999999999999,-0.07
634,1782582385056,0.3499999999999999,-0.4899999999999999,-0.07
635,1782582385106,0.3499999999999999,-0.4899999999999999,-0.07
636,1782582385155,0.3499999999999999,-0.4899999999999999,-0.07
637,1782582385206,0.2099999999999999,-0.4199999999999999,-0.07
638,1782582385256,0.2099999999999999,-0.4899999999999999,0.07
639,1782582385306,0.2099999999999999,-0.56,0.07
640,1782582385339,0.14,-0.63,0.07
641,1782582385405,0.14,-0.63,0.07
642,1782582385455,0.14,-0.56,0.07
643,1782582385522,0.14,-0.56,0.07
644,1782582385656,0.2099999999999999,-0.63,0.0
645,1782582385722,0.2099999999999999,-0.63,0.0
646,1782582385755,0.2099999999999999,-0.56,0.07
647,1782582385806,0.28,-0.56,0.07
648,1782582385839,0.28,-0.4899999999999999,0.07
649,1782582385888,0.28,-0.4899999999999999,0.0
650,1782582386055,0.2099999999999999,-0.56,0.0
651,1782582386105,0.2099999999999999,-0.56,0.0
652,1782582386138,0.14,-0.4899999999999999,0.07
653,1782582386188,0.14,-0.4899999999999999,0.07
654,1782582386305,0.14,-0.56,0.07
655,1782582386405,0.14,-0.56,0.07
656,1782582386438,0.2099999999999999,-0.56,0.07
657,1782582386504,0.2099999999999999,-0.56,0.07
658,1782582386554,0.2099999999999999,-0.56,0.07
659,1782582386604,0.14,-0.56,0.07
660,1782582386671,0.14,-0.56,0.07
661,1782582386688,0.14,-0.56,0.07
662,1782582386704,0.14,-0.56,0.07
663,1782582386721,0.14,-0.56,0.07
664,1782582386754,0.2099999999999999,-0.4899999999999999,0.0
665,1782582386821,0.2099999999999999,-0.4899999999999999,0.0
666,1782582386888,0.2099999999999999,-0.4899999999999999,0.07
667,1782582386954,0.2099999999999999,-0.4899999999999999,0.07
668,1782582387021,0.3499999999999999,-0.3499999999999999,0.14
669,1782582387087,0.3499999999999999,-0.3499999999999999,0.07
670,1782582387139,0.28,-0.3499999999999999,0.14
671,1782582387187,0.2099999999999999,-0.4199999999999999,0.07
672,1782582387238,0.2099999999999999,-0.4899999999999999,0.07
673,1782582387304,0.2099999999999999,-0.56,0.07
674,1782582387337,0.28,-0.4899999999999999,0.07
675,1782582387404,0.2099999999999999,-0.56,0.07
676,1782582387471,0.14,-0.56,0.07
677,1782582387570,0.14,-0.56,0.07
678,1782582387620,0.2099999999999999,-0.63,0.07
679,1782582387671,0.14,-0.4899999999999999,0.07
680,1782582387737,0.14,-0.4899999999999999,0.07
681,1782582387770,0.14,-0.4899999999999999,0.07
682,1782582387820,0.2099999999999999,-0.4899999999999999,0.07
683,1782582387870,0.07,-0.63,0.0
684,1782582387920,0.07,-0.4899999999999999,0.0
685,1782582387987,0.07,-0.4899999999999999,0.0
686,1782582388037,0.14,-0.4199999999999999,0.0
687,1782582388086,0.2099999999999999,-0.4199999999999999,0.0
688,1782582388153,0.2099999999999999,-0.56,0.07
689,1782582388203,0.2099999999999999,-0.56,0.07
690,1782582388253,0.2099999999999999,-0.4899999999999999,0.07
691,1782582388319,0.28,-0.4899999999999999,0.0
692,1782582388370,0.28,-0.4899999999999999,0.0
693,1782582388436,0.2099999999999999,-0.4899999999999999,0.0
694,1782582388453,0.2099999999999999,-0.4899999999999999,0.07
695,1782582388470,0.2099999999999999,-0.56,0.0
696,1782582388519,0.2099999999999999,-0.56,0.0
697,1782582388586,0.2099999999999999,-0.56,0.0
698,1782582388619,0.2099999999999999,-0.56,0.0
699,1782582388686,0.28,-0.4899999999999999,0.07
700,1782582388719,0.2099999999999999,-0.4899999999999999,0.07
701,1782582388753,0.2099999999999999,-0.4899999999999999,0.07
702,1782582388769,0.2099999999999999,-0.4899999999999999,0.07
703,1782582388803,0.2099999999999999,-0.56,0.07
704,1782582388836,0.14,-0.56,0.07
705,1782582388903,0.14,-0.56,0.0
706,1782582388953,0.14,-0.56,0.0
707,1782582389019,0.14,-0.56,0.0
708,1782582389152,0.28,-0.56,0.07
709,1782582389220,0.28,-0.56,0.07
710,1782582389319,0.28,-0.56,0.0
711,1782582389352,0.2099999999999999,-0.4899999999999999,0.0
712,1782582389419,0.2099999999999999,-0.56,0.0
713,1782582389452,0.2099999999999999,-0.4899999999999999,0.0
714,1782582389518,0.2099999999999999,-0.56,0.0
715,1782582389585,0.2099999999999999,-0.56,0.07
716,1782582389635,0.2099999999999999,-0.56,0.07
717,1782582389651,0.2099999999999999,-0.56,0.14
718,1782582389669,0.2099999999999999,-0.56,0.14
719,1782582389702,0.2099999999999999,-0.56,0.07
720,1782582389718,0.2099999999999999,-0.56,0.07
721,1782582389785,0.2099999999999999,-0.4899999999999999,0.07
722,1782582389868,0.28,-0.56,0.07
723,1782582389901,0.28,-0.56,0.0
724,1782582389935,0.28,-0.56,0.0
725,1782582390002,0.2099999999999999,-0.56,0.0
726,1782582390068,0.2099999999999999,-0.4899999999999999,0.07
727,1782582390102,0.2099999999999999,-0.4899999999999999,0.07
728,1782582390134,0.28,-0.56,0.07
729,1782582390185,0.28,-0.56,0.07
730,1782582390268,0.28,-0.56,0.07
731,1782582390318,0.28,-0.56,0.07
732,1782582390335,0.2099999999999999,-0.56,0.07
733,1782582390401,0.2099999999999999,-0.63,0.0
734,1782582390451,0.2099999999999999,-0.63,0.0
735,1782582390518,0.2099999999999999,-0.56,0.0
736,1782582390551,0.14,-0.56,-0.07
737,1782582390635,0.2099999999999999,-0.56,-0.07
738,1782582390751,0.2099999999999999,-0.56,0.14
739,1782582390801,0.2099999999999999,-0.56,0.07
740,1782582390851,0.2099999999999999,-0.56,0.07
741,1782582390901,0.2099999999999999,-0.56,0.07
742,1782582390934,0.28,-0.4899999999999999,0.07
743,1782582391017,0.28,-0.4899999999999999,0.07
744,1782582391084,0.28,-0.4899999999999999,0.07
745,1782582391134,0.28,-0.4899999999999999,0.07
746,1782582391201,0.28,-0.4899999999999999,0.07
747,1782582391234,0.2099999999999999,-0.4899999999999999,0.0
748,1782582391267,0.2099999999999999,-0.4899999999999999,0.07
749,1782582391334,0.14,-0.56,0.07
750,1782582391384,0.14,-0.56,0.07
751,1782582391450,0.14,-0.4899999999999999,0.07
752,1782582391484,0.14,-0.4899999999999999,0.07
753,1782582391534,0.2099999999999999,-0.56,0.07
754,1782582391600,0.28,-0.56,0.07
755,1782582391716,0.28,-0.4199999999999999,0.07
756,1782582391750,0.28,-0.4199999999999999,0.0
757,1782582391783,0.28,-0.4199999999999999,0.07
758,1782582391884,0.28,-0.56,0.0
759,1782582391917,0.28,-0.56,0.0
760,1782582391984,0.28,-0.56,0.0
761,1782582392033,0.28,-0.56,0.0
762,1782582392100,0.2099999999999999,-0.4899999999999999,0.07
763,1782582392166,0.28,-0.4899999999999999,0.0
764,1782582392300,0.28,-0.4899999999999999,0.0
765,1782582392333,0.2099999999999999,-0.4899999999999999,0.0
766,1782582392383,0.2099999999999999,-0.4899999999999999,0.0
767,1782582392433,0.2099999999999999,-0.56,0.0
768,1782582392483,0.2099999999999999,-0.56,0.0
769,1782582392533,0.2099999999999999,-0.56,0.0
770,1782582392583,0.2099999999999999,-0.56,0.07
771,1782582392633,0.2099999999999999,-0.4899999999999999,0.0
772,1782582392783,0.2099999999999999,-0.56,0.0
773,1782582392832,0.2099999999999999,-0.4899999999999999,0.0
774,1782582392916,0.28,-0.56,0.0
775,1782582393082,0.2099999999999999,-0.4899999999999999,0.07
776,1782582393232,0.2099999999999999,-0.4199999999999999,0.07
777,1782582393315,0.2099999999999999,-0.4899999999999999,0.07
778,1782582393399,0.2099999999999999,-0.56,0.14
779,1782582393465,0.2099999999999999,-0.56,0.07
780,1782582393516,0.28,-0.56,0.0
781,1782582393632,0.14,-0.4899999999999999,0.07
782,1782582393649,0.2099999999999999,-0.4199999999999999,0.0
783,1782582393699,0.14,-0.4199999999999999,0.0
784,1782582393749,0.14,-0.4199999999999999,0.0
785,1782582393815,0.14,-0.4899999999999999,0.0
786,1782582393848,0.2099999999999999,-0.4899999999999999,0.07
787,1782582393865,0.2099999999999999,-0.4899999999999999,0.0
788,1782582393915,0.2099999999999999,-0.4899999999999999,0.0
789,1782582393982,0.2099999999999999,-0.4899999999999999,0.0
790,1782582394015,0.2099999999999999,-0.4899999999999999,0.0
791,1782582394081,0.2099999999999999,-0.4899999999999999,0.0
792,1782582394181,0.2099999999999999,-0.4899999999999999,0.0
793,1782582394231,0.2099999999999999,-0.4899999999999999,0.07
794,1782582394315,0.2099999999999999,-0.4899999999999999,0.07
795,1782582394348,0.2099999999999999,-0.56,0.07
796,1782582394398,0.14,-0.4899999999999999,0.07
797,1782582394431,0.14,-0.4899999999999999,0.07
798,1782582394465,0.2099999999999999,-0.4899999999999999,0.07
799,1782582394531,0.2099999999999999,-0.56,0.0
800,1782582394631,0.14,-0.56,0.0
801,1782582394681,0.2099999999999999,-0.4899999999999999,0.07
802,1782582394731,0.2099999999999999,-0.4899999999999999,0.07
803,1782582394748,0.2099999999999999,-0.4899999999999999,0.07
804,1782582394864,0.2099999999999999,-0.56,0.07
805,1782582394931,0.14,-0.56,0.0
806,1782582394981,0.28,-0.56,0.0
807,1782582395064,0.28,-0.56,0.0
808,1782582395080,0.28,-0.56,0.07
809,1782582395114,0.28,-0.4899999999999999,0.14
810,1782582395130,0.2099999999999999,-0.4899999999999999,0.14
811,1782582395164,0.2099999999999999,-0.4899999999999999,0.14
812,1782582395247,0.2099999999999999,-0.63,0.0
813,1782582395347,0.2099999999999999,-0.4899999999999999,0.0
814,1782582395380,0.2099999999999999,-0.4899999999999999,0.0
815,1782582395447,0.2099999999999999,-0.4199999999999999,0.0
816,1782582395480,0.2099999999999999,-0.4199999999999999,0.0
817,1782582395514,0.2099999999999999,-0.4199999999999999,0.0
818,1782582395564,0.2099999999999999,-0.4899999999999999,0.07
819,1782582395613,0.2099999999999999,-0.4899999999999999,0.07
820,1782582395680,0.2099999999999999,-0.4899999999999999,0.07
821,1782582395697,0.2099999999999999,-0.4899999999999999,0.07
822,1782582395730,0.14,-0.4899999999999999,0.07
823,1782582395763,0.14,-0.4899999999999999,0.07
824,1782582395780,0.2099999999999999,-0.56,0.0
825,1782582395830,0.14,-0.56,0.0
826,1782582395897,0.14,-0.56,0.0
827,1782582395946,0.14,-0.56,0.0
828,1782582395997,0.14,-0.56,0.0
829,1782582396047,0.14,-0.56,0.0
830,1782582396064,0.14,-0.56,0.07
831,1782582396096,0.2099999999999999,-0.56,0.07
832,1782582396230,0.2099999999999999,-0.63,0.07
833,1782582396280,0.2099999999999999,-0.56,0.07
834,1782582396313,0.2099999999999999,-0.56,0.07
835,1782582396329,0.2099999999999999,-0.4899999999999999,0.07
836,1782582396347,0.2099999999999999,-0.4899999999999999,0.07
837,1782582396380,0.28,-0.4899999999999999,0.07
838,1782582396413,0.28,-0.4899999999999999,0.07
839,1782582396446,0.28,-0.56,0.07
840,1782582396512,0.3499999999999999,-0.56,0.07
841,1782582396563,0.3499999999999999,-0.56,0.07
842,1782582396579,0.2099999999999999,-0.56,0.07
843,1782582396613,0.28,-0.56,0.07
844,1782582396646,0.2099999999999999,-0.56,0.0
845,1782582396746,0.2099999999999999,-0.4899999999999999,0.07
846,1782582396813,0.2099999999999999,-0.4899999999999999,0.07
847,1782582396863,0.2099999999999999,-0.4899999999999999,0.07
848,1782582396946,0.14,-0.4899999999999999,0.07
849,1782582396979,0.28,-0.4899999999999999,0.0
850,1782582397029,0.2099999999999999,-0.4899999999999999,0.0
851,1782582397096,0.2099999999999999,-0.4899999999999999,0.07
852,1782582397129,0.14,-0.4899999999999999,0.07
853,1782582397195,0.14,-0.4899999999999999,0.07
854,1782582397246,0.2099999999999999,-0.56,0.0
855,1782582397312,0.2099999999999999,-0.56,0.0
856,1782582397428,0.2099999999999999,-0.56,0.0
857,1782582397479,0.2099999999999999,-0.56,0.07
858,1782582397512,0.2099999999999999,-0.4899999999999999,0.07
859,1782582397628,0.28,-0.56,0.07
860,1782582397712,0.28,-0.56,0.07
861,1782582397761,0.28,-0.56,0.07
862,1782582397811,0.3499999999999999,-0.4199999999999999,0.0
863,1782582397879,0.3499999999999999,-0.4899999999999999,0.07
864,1782582397912,0.3499999999999999,-0.4899999999999999,0.07
865,1782582397978,0.3499999999999999,-0.4899999999999999,0.07
866,1782582398028,0.2099999999999999,-0.4899999999999999,0.07
867,1782582398078,0.14,-0.56,0.07
868,1782582398145,0.2099999999999999,-0.4899999999999999,0.07
869,1782582398211,0.2099999999999999,-0.4899999999999999,0.07
870,1782582398278,0.2099999999999999,-0.4899999999999999,0.07
871,1782582398328,0.2099999999999999,-0.4899999999999999,0.07
872,1782582398428,0.4199999999999999,-0.4199999999999999,0.0
873,1782582398494,0.28,-0.4199999999999999,0.0
874,1782582398561,0.2099999999999999,-0.4199999999999999,0.0
875,1782582398611,0.14,-0.4199999999999999,0.0
876,1782582398661,0.14,-0.4899999999999999,0.0
877,1782582398794,0.14,-0.4899999999999999,0.0
878,1782582398844,0.14,-0.4899999999999999,0.0
879,1782582398894,0.14,-0.56,0.0
880,1782582398944,0.14,-0.56,0.0
881,1782582399010,0.14,-0.56,0.07
882,1782582399094,0.14,-0.4899999999999999,0.07
883,1782582399177,0.14,-0.4899999999999999,0.07
884,1782582399227,0.14,-0.4899999999999999,0.07
885,1782582399344,0.2099999999999999,-0.4899999999999999,0.07
886,1782582399427,0.2099999999999999,-0.4899999999999999,0.0
887,1782582399493,0.2099999999999999,-0.4899999999999999,0.0
888,1782582399510,0.2099999999999999,-0.4899999999999999,0.0
889,1782582399527,0.2099999999999999,-0.4899999999999999,0.0
890,1782582399560,0.2099999999999999,-0.4899999999999999,0.07
891,1782582399660,0.2099999999999999,-0.4899999999999999,0.07
892,1782582399777,0.2099999999999999,-0.4899999999999999,0.07
893,1782582399793,0.2099999999999999,-0.4899999999999999,0.0
894,1782582399826,0.2099999999999999,-0.4899999999999999,0.0
895,1782582399877,0.2099999999999999,-0.4899999999999999,0.0
896,1782582399926,0.2099999999999999,-0.4899999999999999,0.0
897,1782582399976,0.2099999999999999,-0.4899999999999999,0.0
898,1782582400076,0.14,-0.56,0.07
899,1782582400127,0.14,-0.56,0.07
900,1782582400160,0.14,-0.4899999999999999,0.07
901,1782582400177,0.14,-0.4899999999999999,0.07
902,1782582400243,0.14,-0.4899999999999999,0.0
903,1782582400277,0.14,-0.4899999999999999,0.0
904,1782582400310,0.14,-0.4899999999999999,0.0
905,1782582400343,0.2099999999999999,-0.4899999999999999,0.07
906,1782582400393,0.2099999999999999,-0.4899999999999999,0.07
907,1782582400443,0.2099999999999999,-0.56,0.07
908,1782582400526,0.2099999999999999,-0.4899999999999999,0.0
909,1782582400576,0.2099999999999999,-0.4899999999999999,0.0
910,1782582400593,0.2099999999999999,-0.56,0.0
911,1782582400626,0.2099999999999999,-0.56,0.0
912,1782582400659,0.2099999999999999,-0.4899999999999999,0.0
913,1782582400709,0.28,-0.4899999999999999,0.07
914,1782582400759,0.2099999999999999,-0.56,0.07
915,1782582400809,0.2099999999999999,-0.4899999999999999,0.07
916,1782582400859,0.2099999999999999,-0.4899999999999999,0.07
917,1782582400893,0.2099999999999999,-0.4899999999999999,0.07
918,1782582400909,0.2099999999999999,-0.4899999999999999,0.0
919,1782582400959,0.2099999999999999,-0.4899999999999999,0.0
920,1782582401025,0.28,-0.4899999999999999,0.07
921,1782582401076,0.28,-0.4899999999999999,0.0
922,1782582401109,0.2099999999999999,-0.4899999999999999,0.07
923,1782582401125,0.2099999999999999,-0.4899999999999999,0.07
924,1782582401142,0.2099999999999999,-0.4899999999999999,0.07
925,1782582401176,0.2099999999999999,-0.4899999999999999,0.07
926,1782582401209,0.28,-0.4899999999999999,0.07
927,1782582401309,0.2099999999999999,-0.56,0.07
928,1782582401342,0.2099999999999999,-0.56,0.07
929,1782582401375,0.2099999999999999,-0.56,0.07
930,1782582401443,0.2099999999999999,-0.4899999999999999,0.07
931,1782582401642,0.2099999999999999,-0.56,0.07
932,1782582401675,0.2099999999999999,-0.56,0.07
933,1782582401692,0.2099999999999999,-0.56,0.07
934,1782582401725,0.2099999999999999,-0.56,0.07
935,1782582401741,0.2099999999999999,-0.56,0.07
936,1782582401758,0.2099999999999999,-0.56,0.07
937,1782582401792,0.2099999999999999,-0.56,0.0
938,1782582401875,0.2099999999999999,-0.56,0.0
939,1782582401958,0.28,-0.4899999999999999,0.0
940,1782582401991,0.2099999999999999,-0.4899999999999999,0.07
941,1782582402025,0.2099999999999999,-0.4899999999999999,0.0
942,1782582402042,0.2099999999999999,-0.4899999999999999,0.07
943,1782582402075,0.2099999999999999,-0.4899999999999999,0.07
944,1782582402125,0.2099999999999999,-0.4899999999999999,0.0
945,1782582402191,0.2099999999999999,-0.4899999999999999,0.0
946,1782582402241,0.2099999999999999,-0.4899999999999999,0.07
947,1782582402291,0.2099999999999999,-0.4899999999999999,0.07
948,1782582402358,0.2099999999999999,-0.4899999999999999,0.07
949,1782582402391,0.28,-0.4899999999999999,0.07
950,1782582402441,0.28,-0.4899999999999999,0.07
951,1782582402508,0.28,-0.4899999999999999,0.07
952,1782582402575,0.28,-0.4899999999999999,0.07
953,1782582402608,0.28,-0.4899999999999999,0.07
954,1782582402625,0.28,-0.4899999999999999,0.0
955,1782582402674,0.28,-0.4899999999999999,0.07
956,1782582402741,0.2099999999999999,-0.4899999999999999,0.07
957,1782582402791,0.2099999999999999,-0.4899999999999999,0.07
958,1782582402841,0.2099999999999999,-0.4899999999999999,0.0
959,1782582402890,0.2099999999999999,-0.4899999999999999,0.07
960,1782582403024,0.28,-0.4899999999999999,0.0
961,1782582403057,0.2099999999999999,-0.4899999999999999,0.0
962,1782582403124,0.2099999999999999,-0.4899999999999999,0.0
963,1782582403157,0.2099999999999999,-0.56,0.0
964,1782582403190,0.2099999999999999,-0.56,0.0
965,1782582403224,0.14,-0.56,0.0
966,1782582403273,0.2099999999999999,-0.56,0.0
967,1782582403340,0.2099999999999999,-0.56,0.0
968,1782582403390,0.2099999999999999,-0.4899999999999999,0.0
969,1782582403457,0.2099999999999999,-0.4899999999999999,0.0
970,1782582403490,0.2099999999999999,-0.4899999999999999,0.0
971,1782582403540,0.2099999999999999,-0.56,0.07
972,1782582403606,0.2099999999999999,-0.56,0.07
973,1782582403657,0.2099999999999999,-0.56,0.07
974,1782582403707,0.2099999999999999,-0.56,0.07
975,1782582403756,0.2099999999999999,-0.56,0.0
976,1782582403840,0.28,-0.4899999999999999,0.07
977,1782582403873,0.28,-0.4899999999999999,0.07
978,1782582403923,0.2099999999999999,-0.56,0.07
979,1782582403990,0.2099999999999999,-0.56,0.07
980,1782582404040,0.2099999999999999,-0.56,0.0
981,1782582404306,0.14,-0.4199999999999999,0.07
982,1782582404356,0.2099999999999999,-0.4899999999999999,0.0
983,1782582404456,0.2099999999999999,-0.4899999999999999,0.0
984,1782582404539,0.2099999999999999,-0.4899999999999999,0.07
985,1782582404589,0.2099999999999999,-0.56,0.07
986,1782582404656,0.2099999999999999,-0.56,0.0
987,1782582404673,0.2099999999999999,-0.56,0.0
988,1782582404755,0.2099999999999999,-0.56,0.0
989,1782582404889,0.28,-0.56,0.0
990,1782582404906,0.2099999999999999,-0.56,0.07
991,1782582405022,0.2099999999999999,-0.4899999999999999,0.0
992,1782582405039,0.2099999999999999,-0.4899999999999999,0.0
993,1782582405106,0.2099999999999999,-0.4899999999999999,0.07
994,1782582405156,0.2099999999999999,-0.4899999999999999,0.0
995,1782582405205,0.2099999999999999,-0.4899999999999999,0.0
996,1782582405223,0.2099999999999999,-0.56,0.0
997,1782582405256,0.2099999999999999,-0.56,0.07
998,1782582405272,0.14,-0.56,0.07
999,1782582405305,0.14,-0.56,0.07
1000,1782582405339,0.14,-0.56,0.07
1001,1782582405389,0.2099999999999999,-0.56,0.07
1002,1782582405455,0.28,-0.56,0.07
1003,1782582405455,0.2099999999999999,-0.56,0.0
1004,1782582405555,0.2099999999999999,-0.56,0.07
1005,1782582405589,0.2099999999999999,-0.4899999999999999,0.07
1006,1782582405622,0.2099999999999999,-0.4899999999999999,0.0
1007,1782582405688,0.2099999999999999,-0.4899999999999999,0.07
1008,1782582405722,0.2099999999999999,-0.4899999999999999,0.07
1009,1782582405788,0.2099999999999999,-0.4899999999999999,0.0
1010,1782582405839,0.2099999999999999,-0.4899999999999999,0.0
1011,1782582405855,0.2099999999999999,-0.4899999999999999,0.07
1012,1782582405872,0.2099999999999999,-0.4899999999999999,0.07
1013,1782582405905,0.2099999999999999,-0.4899999999999999,0.07
1014,1782582405921,0.2099999999999999,-0.4899999999999999,0.07
1015,1782582405955,0.2099999999999999,-0.4899999999999999,0.0
1016,1782582406006,0.2099999999999999,-0.4899999999999999,0.0
1017,1782582406056,0.2099999999999999,-0.4899999999999999,0.07
1018,1782582406105,0.2099999999999999,-0.4899999999999999,0.07
1019,1782582406172,0.2099999999999999,-0.56,0.0
1020,1782582406205,0.2099999999999999,-0.4199999999999999,0.0
1021,1782582406271,0.2099999999999999,-0.56,0.0
1022,1782582406388,0.2099999999999999,-0.4899999999999999,0.0
1023,1782582406439,0.2099999999999999,-0.4899999999999999,0.07
1024,1782582406488,0.2099999999999999,-0.56,0.07
1025,1782582406538,0.2099999999999999,-0.56,0.07
1026,1782582406588,0.2099999999999999,-0.56,0.07
1027,1782582406638,0.2099999999999999,-0.56,0.07
1028,1782582406688,0.2099999999999999,-0.4899999999999999,0.07
1029,1782582406771,0.14,-0.4899999999999999,0.07
1030,1782582406840,0.2099999999999999,-0.4899999999999999,0.07
1031,1782582406887,0.2099999999999999,-0.4899999999999999,0.07
1032,1782582406938,0.2099999999999999,-0.4899999999999999,0.07
1033,1782582406987,0.2099999999999999,-0.56,0.07
1034,1782582407037,0.2099999999999999,-0.4899999999999999,0.0
1035,1782582407104,0.2099999999999999,-0.4899999999999999,0.0
1036,1782582407170,0.2099999999999999,-0.4899999999999999,0.0
1037,1782582407304,0.2099999999999999,-0.56,0.07
1038,1782582407370,0.28,-0.56,0.07
1039,1782582407405,0.28,-0.4899999999999999,0.0
1040,1782582407537,0.28,-0.4899999999999999,0.07
1041,1782582407553,0.2099999999999999,-0.4899999999999999,0.07
1042,1782582407670,0.2099999999999999,-0.4899999999999999,0.07
1043,1782582407721,0.28,-0.56,0.07
1044,1782582407770,0.28,-0.56,0.07
1045,1782582407820,0.28,-0.56,0.0
1046,1782582407887,0.2099999999999999,-0.4899999999999999,0.07
1047,1782582407953,0.2099999999999999,-0.4899999999999999,0.07
1048,1782582408087,0.2099999999999999,-0.56,0.0
1049,1782582408120,0.14,-0.4899999999999999,0.07
1050,1782582408138,0.14,-0.4899999999999999,0.07
1051,1782582408222,0.14,-0.4899999999999999,0.07
1052,1782582408305,0.14,-0.4899999999999999,0.07
1053,1782582408370,0.2099999999999999,-0.4899999999999999,0.07
1054,1782582408403,0.2099999999999999,-0.4899999999999999,0.07
1055,1782582408470,0.28,-0.4899999999999999,0.07
1056,1782582408504,0.2099999999999999,-0.4899999999999999,0.07
1057,1782582408554,0.2099999999999999,-0.4899999999999999,0.07
1058,1782582408603,0.2099999999999999,-0.4899999999999999,0.07
1059,1782582408652,0.2099999999999999,-0.4899999999999999,0.07
1060,1782582408703,0.2099999999999999,-0.56,0.07
1061,1782582408753,0.2099999999999999,-0.56,0.07
1062,1782582408786,0.14,-0.56,0.0
1063,1782582408820,0.14,-0.4899999999999999,0.0
1064,1782582408887,0.14,-0.4899999999999999,0.07
1065,1782582408920,0.14,-0.4899999999999999,0.07
1066,1782582408986,0.14,-0.4899999999999999,0.07
1067,1782582409036,0.14,-0.4899999999999999,0.07
1068,1782582409052,0.2099999999999999,-0.56,0.07
1069,1782582409119,0.2099999999999999,-0.56,0.07
1070,1782582409203,0.2099999999999999,-0.56,0.07
1071,1782582409253,0.2099999999999999,-0.56,0.07
1072,1782582409319,0.2099999999999999,-0.4899999999999999,0.07
1073,1782582409352,0.28,-0.4899999999999999,0.07
1074,1782582409469,0.28,-0.4899999999999999,0.07
1075,1782582409519,0.28,-0.4899999999999999,0.07
1076,1782582409586,0.28,-0.4899999999999999,0.0
1077,1782582409602,0.2099999999999999,-0.56,0.0
1078,1782582409668,0.14,-0.56,0.0
1079,1782582409702,0.2099999999999999,-0.56,0.0
1080,1782582409768,0.2099999999999999,-0.56,0.07
1081,1782582409802,0.2099999999999999,-0.56,0.07
1082,1782582409902,0.2099999999999999,-0.4899999999999999,0.07
1083,1782582409935,0.14,-0.4899999999999999,0.07
1084,1782582409969,0.2099999999999999,-0.4899999999999999,0.07
1085,1782582410019,0.2099999999999999,-0.4899999999999999,0.07
1086,1782582410085,0.2099999999999999,-0.4899999999999999,0.07
1087,1782582410119,0.2099999999999999,-0.56,0.07
1088,1782582410169,0.2099999999999999,-0.56,0.0
1089,1782582410186,0.2099999999999999,-0.4899999999999999,0.07
1090,1782582410219,0.2099999999999999,-0.56,0.07
1091,1782582410285,0.2099999999999999,-0.56,0.07
1092,1782582410319,0.2099999999999999,-0.56,0.07
1093,1782582410369,0.2099999999999999,-0.4899999999999999,0.07
1094,1782582410452,0.2099999999999999,-0.4899999999999999,0.07
1095,1782582410485,0.28,-0.4899999999999999,0.07
1096,1782582410584,0.2099999999999999,-0.4899999999999999,0.07
1097,1782582410634,0.2099999999999999,-0.4899999999999999,0.07
1098,1782582410668,0.2099999999999999,-0.4899999999999999,0.07
1099,1782582410735,0.14,-0.4899999999999999,0.07
1100,1782582410785,0.14,-0.4899999999999999,0.07
1101,1782582410801,0.28,-0.56,0.07
1102,1782582410851,0.2099999999999999,-0.56,0.07
1103,1782582410917,0.2099999999999999,-0.56,0.0
1104,1782582410967,0.2099999999999999,-0.56,0.0
1105,1782582411018,0.2099999999999999,-0.56,0.0
1106,1782582411067,0.2099999999999999,-0.56,0.07
1107,1782582411151,0.2099999999999999,-0.56,0.0
1108,1782582411233,0.28,-0.56,0.0
1109,1782582411300,0.28,-0.56,0.0
1110,1782582411350,0.28,-0.56,0.0
1111,1782582411417,0.3499999999999999,-0.4899999999999999,0.07
1112,1782582411467,0.3499999999999999,-0.56,0.07
1113,1782582411517,0.28,-0.56,0.07
1114,1782582411567,0.2099999999999999,-0.56,0.07
1115,1782582411618,0.2099999999999999,-0.56,0.07
1116,1782582411716,0.2099999999999999,-0.4899999999999999,0.0
1117,1782582411767,0.2099999999999999,-0.4899999999999999,0.07
1118,1782582411818,0.14,-0.4899999999999999,0.07
1119,1782582411867,0.14,-0.4899999999999999,0.07
1120,1782582411917,0.14,-0.4899999999999999,0.07
1121,1782582411966,0.28,-0.4199999999999999,-0.07
1122,1782582412033,0.28,-0.28,-0.07
1123,1782582412100,0.28,-0.28,0.0
1124,1782582412134,-0.2099999999999999,-0.28,0.0
1125,1782582412183,-0.2099999999999999,-0.28,0.07
1126,1782582412234,-0.2099999999999999,-0.4199999999999999,0.07
1127,1782582412300,0.0,-0.4199999999999999,0.0
1128,1782582412366,0.28,-0.4199999999999999,0.0
1129,1782582412401,0.56,-0.4199999999999999,0.0
1130,1782582412516,0.56,-0.4199999999999999,0.0
1131,1782582412549,0.28,-0.63,0.07
1132,1782582412616,0.2099999999999999,-0.63,0.07
1133,1782582412666,0.2099999999999999,-0.63,0.07
1134,1782582412716,0.2099999999999999,-0.56,0.07
1135,1782582412766,0.2099999999999999,-0.56,0.07
1136,1782582412883,0.07,-0.4899999999999999,0.0
1137,1782582412982,0.14,-0.4899999999999999,0.0
1138,1782582413049,0.14,-0.4899999999999999,0.0
1139,1782582413082,0.14,-0.56,0.0
1140,1782582413100,0.14,-0.56,0.07
1141,1782582413132,0.2099999999999999,-0.4899999999999999,0.07
1142,1782582413166,0.2099999999999999,-0.4899999999999999,0.07
1143,1782582413232,0.2099999999999999,-0.4899999999999999,0.0
1144,1782582413265,0.2099999999999999,-0.4899999999999999,0.0
1145,1782582413332,0.2099999999999999,-0.56,0.0
1146,1782582413365,0.2099999999999999,-0.56,0.0
1147,1782582413466,0.28,-0.4899999999999999,0.07
1148,1782582413531,0.28,-0.4899999999999999,0.0
1149,1782582413599,0.28,-0.4899999999999999,0.07
1150,1782582413649,0.28,-0.4899999999999999,0.07
1151,1782582413682,0.28,-0.4899999999999999,0.07
1152,1782582413748,0.28,-0.4899999999999999,0.07
1153,1782582413782,0.28,-0.4899999999999999,0.07
1154,1782582413848,0.28,-0.4899999999999999,0.07
1155,1782582413883,0.28,-0.4899999999999999,0.07
1156,1782582414015,0.2099999999999999,-0.56,0.07
1157,1782582414115,0.2099999999999999,-0.56,0.07
1158,1782582414198,0.2099999999999999,-0.56,0.0
1159,1782582414248,0.2099999999999999,-0.4199999999999999,0.07
1160,1782582414281,0.2099999999999999,-0.4899999999999999,0.07
1161,1782582414332,0.28,-0.4899999999999999,0.07
1162,1782582414348,0.28,-0.4899999999999999,0.07
1163,1782582414381,0.28,-0.56,0.07
1164,1782582414432,0.28,-0.56,0.07
1165,1782582414515,0.28,-0.56,0.07
1166,1782582414531,0.2099999999999999,-0.4899999999999999,0.07
1167,1782582414564,0.2099999999999999,-0.4899999999999999,0.07
1168,1782582414581,0.2099999999999999,-0.4899999999999999,0.07
1169,1782582414599,0.2099999999999999,-0.4899999999999999,0.0
1170,1782582414764,0.2099999999999999,-0.4899999999999999,0.0
1171,1782582414798,0.2099999999999999,-0.4899999999999999,0.0
1172,1782582414815,0.2099999999999999,-0.56,0.07
1173,1782582414864,0.14,-0.56,0.07
1174,1782582414897,0.14,-0.56,0.07
1175,1782582414931,0.2099999999999999,-0.56,0.07
1176,1782582414965,0.2099999999999999,-0.56,0.07
1177,1782582415014,0.2099999999999999,-0.56,0.07
1178,1782582415031,0.2099999999999999,-0.4899999999999999,0.07
1179,1782582415082,0.2099999999999999,-0.4899999999999999,0.07
1180,1782582415114,0.2099999999999999,-0.4899999999999999,0.0
1181,1782582415180,0.28,-0.4899999999999999,0.0
1182,1782582415247,0.28,-0.4899999999999999,0.0
1183,1782582415280,0.28,-0.4899999999999999,0.0
1184,1782582415297,0.28,-0.4899999999999999,0.0
1185,1782582415347,0.28,-0.4899999999999999,0.0
1186,1782582415380,0.2099999999999999,-0.56,0.07
1187,1782582415414,0.2099999999999999,-0.56,0.07
1188,1782582415480,0.2099999999999999,-0.4899999999999999,0.07
1189,1782582415498,0.2099999999999999,-0.56,0.07
1190,1782582415531,0.2099999999999999,-0.56,0.07
1191,1782582415547,0.2099999999999999,-0.4899999999999999,0.07
1192,1782582415580,0.2099999999999999,-0.56,0.07
1193,1782582415697,0.2099999999999999,-0.4899999999999999,0.07
1194,1782582415713,0.2099999999999999,-0.4899999999999999,0.07
1195,1782582415730,0.2099999999999999,-0.4899999999999999,0.07
1196,1782582415763,0.2099999999999999,-0.56,0.07
1197,1782582415781,0.2099999999999999,-0.4899999999999999,0.0
1198,1782582415830,0.2099999999999999,-0.4899999999999999,0.0
1199,1782582415880,0.2099999999999999,-0.4899999999999999,0.0
1200,1782582415947,0.28,-0.4899999999999999,0.0
1201,1782582415998,0.28,-0.4899999999999999,0.0
1202,1782582415998,0.2099999999999999,-0.56,0.0
1203,1782582416030,0.2099999999999999,-0.4199999999999999,0.07
1204,1782582416047,0.2099999999999999,-0.56,0.07
1205,1782582416114,0.2099999999999999,-0.4899999999999999,0.07
1206,1782582416213,0.2099999999999999,-0.3499999999999999,0.07
1207,1782582416346,0.28,-0.4899999999999999,0.07
1208,1782582416362,0.28,-0.4199999999999999,0.07
1209,1782582416379,0.28,-0.4899999999999999,0.07
1210,1782582416413,0.28,-0.4899999999999999,0.07
1211,1782582416429,0.2099999999999999,-0.4899999999999999,0.07
1212,1782582416462,0.2099999999999999,-0.56,0.07
1213,1782582416530,0.2099999999999999,-0.56,0.07
1214,1782582416562,0.2099999999999999,-0.4899999999999999,0.07
1215,1782582416612,0.2099999999999999,-0.4899999999999999,0.07
1216,1782582416629,0.2099999999999999,-0.4899999999999999,0.07
1217,1782582416646,0.2099999999999999,-0.4899999999999999,0.07
1218,1782582416730,0.28,-0.56,0.07
1219,1782582416795,0.28,-0.56,0.0
1220,1782582416896,0.2099999999999999,-0.56,0.07
1221,1782582416946,0.28,-0.6999999999999998,0.07
1222,1782582417012,0.3499999999999999,-0.6999999999999998,0.07
1223,1782582417045,0.3499999999999999,-0.6999999999999998,0.07
1224,1782582417062,0.28,-0.6999999999999998,0.0
1225,1782582417095,0.2099999999999999,-0.63,0.0
1226,1782582417128,0.2099999999999999,-0.6999999999999998,0.07
1227,1782582417263,0.2099999999999999,-0.63,0.07
1228,1782582417296,0.2099999999999999,-0.4899999999999999,0.07
1229,1782582417345,0.0,-0.4899999999999999,0.07
1230,1782582417362,0.0,-0.4899999999999999,0.07
1231,1782582417379,0.0,-0.4899999999999999,0.07
1232,1782582417478,0.2099999999999999,-0.4199999999999999,-0.07
1233,1782582417562,0.2099999999999999,-0.4899999999999999,0.0
1234,1782582417612,0.07,-0.6999999999999998,0.0
1235,1782582417712,0.28,-0.63,0.07
1236,1782582417762,0.2099999999999999,-0.56,0.07
1237,1782582417812,0.2099999999999999,-0.4899999999999999,0.07
1238,1782582417862,0.28,-0.4899999999999999,0.0
1239,1782582417930,0.28,-0.4199999999999999,0.0
1240,1782582417964,0.28,-0.4199999999999999,0.0
1241,1782582418029,0.28,-0.63,0.07
1242,1782582418078,0.28,-0.63,0.07
1243,1782582418129,0.28,-0.63,0.07
1244,1782582418195,0.14,-0.56,0.0
1245,1782582418245,0.2099999999999999,-0.56,0.0
1246,1782582418295,0.2099999999999999,-0.56,0.0
1247,1782582418312,6.93,-0.56,0.0
1248,1782582418327,0.0,-0.63,0.07
1249,1782582418428,0.28,-0.4899999999999999,0.07
1250,1782582418511,0.28,-0.3499999999999999,0.07
1251,1782582418545,0.28,-0.3499999999999999,0.0
1252,1782582418562,0.28,-0.3499999999999999,0.0
1253,1782582418629,0.2099999999999999,-0.4899999999999999,0.0
1254,1782582418694,0.2099999999999999,-0.4899999999999999,0.0
1255,1782582418711,0.2099999999999999,-0.4899999999999999,0.0
1256,1782582418777,0.14,-0.4899999999999999,0.0
1257,1782582418811,0.14,-0.4899999999999999,0.07
1258,1782582418845,0.14,-0.4899999999999999,0.07
1259,1782582418860,0.14,-0.4899999999999999,0.07
1260,1782582418877,0.2099999999999999,-0.4899999999999999,0.14
1261,1782582418929,0.2099999999999999,-0.4899999999999999,0.14
1262,1782582418977,0.2099999999999999,-0.56,0.07
1263,1782582419044,0.2099999999999999,-0.56,0.07
1264,1782582419127,0.2099999999999999,-0.56,0.07
1265,1782582419161,0.2099999999999999,-0.56,0.07
1266,1782582419261,0.2099999999999999,-0.56,0.07
1267,1782582419327,0.2099999999999999,-0.56,0.07
1268,1782582419377,0.2099999999999999,-0.56,0.07
1269,1782582419410,0.2099999999999999,-0.56,0.07
1270,1782582419427,0.2099999999999999,-0.56,0.0
1271,1782582419493,0.28,-0.4899999999999999,0.0
1272,1782582419560,0.28,-0.4899999999999999,0.0
1273,1782582419610,0.28,-0.56,0.07
1274,1782582419660,0.2099999999999999,-0.56,0.07
1275,1782582419710,0.14,-0.4899999999999999,0.0
1276,1782582419727,0.14,-0.4899999999999999,0.07
1277,1782582419893,0.2099999999999999,-0.56,0.0
1278,1782582419944,0.2099999999999999,-0.56,0.0
1279,1782582420015,0.2099999999999999,-0.4899999999999999,0.0
1280,1782582420060,0.2099999999999999,-0.56,0.07
1281,1782582420143,0.2099999999999999,-0.4899999999999999,0.07
1282,1782582420211,0.28,-0.4899999999999999,0.07
1283,1782582420294,0.28,-0.4899999999999999,0.0
1284,1782582420344,0.28,-0.4899999999999999,0.0
1285,1782582420426,0.2099999999999999,-0.4899999999999999,0.07
1286,1782582420493,0.2099999999999999,-0.4899999999999999,0.07
1287,1782582420526,0.2099999999999999,-0.4899999999999999,0.07
1288,1782582420593,0.2099999999999999,-0.4899999999999999,0.07
1289,1782582420676,0.3499999999999999,-0.4899999999999999,0.07
1290,1782582420726,0.14,-0.4899999999999999,0.07
1291,1782582420793,0.14,-0.4899999999999999,0.07
1292,1782582420810,0.14,-0.4899999999999999,0.07
1293,1782582420826,0.3499999999999999,-0.4199999999999999,0.0
1294,1782582420859,0.3499999999999999,-0.4199999999999999,0.0
1295,1782582420893,0.3499999999999999,-0.4199999999999999,0.0
1296,1782582420911,0.14,-0.56,0.0
1297,1782582420961,0.3499999999999999,-0.56,0.0
1298,1782582421026,0.3499999999999999,-0.56,0.0
1299,1782582421076,0.3499999999999999,-0.56,0.0
1300,1782582421159,0.07,-0.4899999999999999,0.07
1301,1782582421192,0.07,-0.4899999999999999,0.07
1302,1782582421242,0.14,-0.77,0.0
1303,1782582421277,0.56,-0.8399999999999999,0.0
1304,1782582421376,0.56,-0.77,0.0
1305,1782582421493,0.07,-0.3499999999999999,0.2099999999999999
1306,1782582421559,0.07,-0.77,0.2099999999999999
1307,1782582421592,0.07,-0.77,0.2099999999999999
1308,1782582421710,0.07,-0.77,0.07
1309,1782582421842,0.2099999999999999,-0.56,0.2099999999999999
1310,1782582421892,0.2099999999999999,-0.56,0.2099999999999999
1311,1782582421942,0.2099999999999999,-0.56,0.14
1312,1782582421992,0.28,-0.56,0.14
1313,1782582422058,0.2099999999999999,-0.4899999999999999,0.0
1314,1782582422175,0.2099999999999999,-0.4899999999999999,0.0
1315,1782582422225,0.2099999999999999,-0.4199999999999999,0.07
1316,1782582422275,0.2099999999999999,-0.4199999999999999,0.07
1317,1782582422358,0.14,-0.56,0.0
1318,1782582422408,0.14,-0.56,0.0
1319,1782582422491,0.14,-0.56,0.0
1320,1782582422542,0.14,-0.56,0.0
1321,1782582422592,0.14,-0.4899999999999999,0.07
1322,1782582422691,0.14,-0.4899999999999999,0.0
1323,1782582422741,0.2099999999999999,-0.4899999999999999,0.0
1324,1782582422792,0.2099999999999999,-0.4899999999999999,0.0
1325,1782582422858,0.2099999999999999,-0.4899999999999999,0.0
1326,1782582422925,0.2099999999999999,-0.4899999999999999,0.07
1327,1782582422941,0.2099999999999999,-0.4899999999999999,0.0
1328,1782582422991,0.2099999999999999,-0.4899999999999999,0.07
1329,1782582423041,0.2099999999999999,-0.4899999999999999,0.07
1330,1782582423107,0.2099999999999999,-0.4899999999999999,0.14
1331,1782582423158,0.2099999999999999,-0.4899999999999999,0.14
1332,1782582423207,0.2099999999999999,-0.4899999999999999,0.14
1333,1782582423274,0.28,-0.4899999999999999,0.0
1334,1782582423341,0.28,-0.56,0.07
1335,1782582423441,0.28,-0.56,0.07
1336,1782582423491,0.2099999999999999,-0.56,0.07
1337,1782582423540,0.14,-0.4899999999999999,0.0
1338,1782582423607,0.14,-0.56,0.0
1339,1782582423658,0.2099999999999999,-0.56,0.07
1340,1782582423707,0.2099999999999999,-0.56,0.07
1341,1782582423774,0.28,-0.4899999999999999,0.07
1342,1782582423807,0.28,-0.4899999999999999,0.07
1343,1782582423858,0.2099999999999999,-0.4899999999999999,0.0
1344,1782582423957,0.2099999999999999,-0.56,0.0
1345,1782582424074,0.2099999999999999,-0.56,-0.07
1346,1782582424157,0.2099999999999999,-0.4899999999999999,0.07
1347,1782582424206,0.14,-0.4899999999999999,0.07
1348,1782582424257,0.14,-0.4199999999999999,0.07
1349,1782582424307,0.14,-0.4199999999999999,0.07
1350,1782582424356,0.14,-0.4899999999999999,0.07
1351,1782582424423,0.28,-0.4899999999999999,0.0
1352,1782582424489,0.28,-0.56,0.07
1353,1782582424573,0.2099999999999999,-0.4899999999999999,0.07
1354,1782582424656,0.2099999999999999,-0.4199999999999999,0.07
1355,1782582424673,0.2099999999999999,-0.56,0.07
1356,1782582424706,0.2099999999999999,-0.56,0.07
1357,1782582424772,0.2099999999999999,-0.56,0.0
1358,1782582424823,0.2099999999999999,-0.56,0.0
1359,1782582424872,0.2099999999999999,-0.56,0.0
1360,1782582424939,0.2099999999999999,-0.56,0.0
1361,1782582424956,0.2099999999999999,-0.56,0.0
1362,1782582425007,0.07,-0.56,0.0
1363,1782582425073,0.07,-0.56,0.0
1364,1782582425123,0.07,-0.56,0.0
1365,1782582425173,0.14,-0.56,0.0
1366,1782582425289,0.2099999999999999,-0.4899999999999999,0.07
1367,1782582425355,0.2099999999999999,-0.4899999999999999,0.07
1368,1782582425406,0.2099999999999999,-0.8399999999999999,0.07
1369,1782582425456,0.07,0.07,0.07
1370,1782582425507,0.07,-1.54,0.07
1371,1782582425556,0.2099999999999999,-1.54,0.14
1372,1782582425622,0.2099999999999999,-0.56,0.0
1373,1782582425672,0.2099999999999999,-0.56,0.0
1374,1782582425739,0.2099999999999999,-0.56,0.0
1375,1782582425806,0.2099999999999999,-0.4899999999999999,0.07
1376,1782582425855,0.2099999999999999,-0.4199999999999999,0.07
1377,1782582425905,0.2099999999999999,-0.56,0.07
1378,1782582425989,0.2099999999999999,-0.56,0.07
1379,1782582426072,0.2099999999999999,-0.4899999999999999,0.07
1380,1782582426138,0.28,-0.56,0.0
1381,1782582426205,0.28,-0.56,0.0
1382,1782582426271,0.28,-0.56,0.0
1383,1782582426305,0.28,-0.56,0.07
1384,1782582426372,0.28,-0.4899999999999999,0.07
1385,1782582426554,0.2099999999999999,-0.4899999999999999,0.07
1386,1782582426655,0.14,-0.56,0.07
1387,1782582426788,0.2099999999999999,-0.56,0.07
1388,1782582426838,0.2099999999999999,-0.56,0.07
1389,1782582426887,0.2099999999999999,-0.56,0.0
1390,1782582426921,0.2099999999999999,-0.56,0.07
1391,1782582427021,0.2099999999999999,-0.4899999999999999,0.07
1392,1782582427072,0.2099999999999999,-0.4899999999999999,0.07
1393,1782582427170,0.2099999999999999,-0.4899999999999999,0.07
1394,1782582427220,0.2099999999999999,-0.4899999999999999,0.07
1395,1782582427303,0.28,-0.56,0.07
1396,1782582427437,0.2099999999999999,-0.56,0.07
1397,1782582427487,0.2099999999999999,-0.4899999999999999,0.07
1398,1782582427537,0.28,-0.4899999999999999,0.07
1399,1782582427555,0.2099999999999999,-0.4899999999999999,0.07
1400,1782582427586,0.28,-0.4899999999999999,0.07
1401,1782582427636,0.2099999999999999,-0.56,0.07
1402,1782582427687,0.28,-0.56,0.07
1403,1782582427720,0.2099999999999999,-0.56,0.07
1404,1782582427803,0.2099999999999999,-0.56,0.07
1405,1782582427822,0.14,-0.56,0.07
1406,1782582427838,0.14,-0.56,0.07
1407,1782582427853,0.2099999999999999,-0.4899999999999999,0.07
1408,1782582427886,0.2099999999999999,-0.4899999999999999,0.0
1409,1782582427919,0.2099999999999999,-0.56,0.0
1410,1782582427953,0.2099999999999999,-0.4899999999999999,0.0
1411,1782582428003,0.2099999999999999,-0.4899999999999999,0.0
1412,1782582428087,0.2099999999999999,-0.4899999999999999,0.0
1413,1782582428136,0.2099999999999999,-0.4899999999999999,0.0
1414,1782582428270,0.2099999999999999,-0.4899999999999999,0.0
1415,1782582428338,0.2099999999999999,-0.4899999999999999,0.07
1416,1782582428420,0.14,-0.56,0.0
1417,1782582428436,0.2099999999999999,-0.56,0.14
1418,1782582428469,0.14,-0.56,0.14
1419,1782582428503,0.2099999999999999,-0.4899999999999999,0.07
1420,1782582428602,0.14,-0.4899999999999999,0.07
1421,1782582428685,0.2099999999999999,-0.4899999999999999,0.0
1422,1782582428703,0.14,-0.56,0.07
1423,1782582428735,0.2099999999999999,-0.56,0.07
1424,1782582428753,0.2099999999999999,-0.56,0.07
1425,1782582428803,0.2099999999999999,-0.56,0.0
1426,1782582428852,0.2099999999999999,-0.56,0.0
1427,1782582428887,0.2099999999999999,-0.56,0.0
1428,1782582428953,0.2099999999999999,-0.56,0.0
1429,1782582429003,0.28,-0.56,0.07
1430,1782582429035,0.28,-0.4899999999999999,0.07
1431,1782582429069,0.2099999999999999,-0.4899999999999999,0.14
1432,1782582429135,0.2099999999999999,-0.4899999999999999,0.14
1433,1782582429252,0.2099999999999999,-0.4899999999999999,0.14
1434,1782582429286,0.2099999999999999,-0.56,0.07
1435,1782582429318,0.3499999999999999,-0.4899999999999999,0.0
1436,1782582429337,0.2099999999999999,-0.4899999999999999,0.0
1437,1782582429369,0.3499999999999999,-0.4899999999999999,0.0
1438,1782582429386,0.3499999999999999,-0.4899999999999999,0.0
1439,1782582429420,0.3499999999999999,-0.4899999999999999,0.0
1440,1782582429469,0.28,-0.4899999999999999,0.0
1441,1782582429535,0.28,-0.4899999999999999,0.0
1442,1782582429569,0.2099999999999999,-0.56,0.07
1443,1782582429602,0.28,-0.56,0.07
1444,1782582429670,0.28,-0.56,0.07
1445,1782582429719,0.28,-0.56,0.07
1446,1782582429768,0.2099999999999999,-0.4899999999999999,0.07
1447,1782582429836,0.2099999999999999,-0.4899999999999999,0.07
1448,1782582429868,0.2099999999999999,-0.56,0.07
1449,1782582429935,0.28,-0.56,0.07
1450,1782582430018,0.14,-0.56,0.07
1451,1782582430051,0.28,-0.56,0.07
1452,1782582430068,0.28,-0.56,0.07
1453,1782582430085,0.28,-0.4899999999999999,0.07
1454,1782582430151,0.28,-0.56,0.0
1455,1782582430202,0.28,-0.56,0.0
1456,1782582430235,0.28,-0.4899999999999999,0.0
1457,1782582430251,0.2099999999999999,-0.4899999999999999,0.07
1458,1782582430284,0.2099999999999999,-0.4899999999999999,0.07
1459,1782582430318,0.2099999999999999,-0.4899999999999999,0.07
1460,1782582430385,0.2099999999999999,-0.4899999999999999,0.07
1461,1782582430435,0.2099999999999999,-0.4899999999999999,0.14
1462,1782582430484,0.28,-0.4899999999999999,0.07
1463,1782582430535,0.28,-0.4899999999999999,0.0
1464,1782582430634,0.2099999999999999,-0.4899999999999999,0.0
1465,1782582430701,0.2099999999999999,-0.4899999999999999,0.0
1466,1782582430784,0.2099999999999999,-0.4899999999999999,0.0
1467,1782582430834,0.2099999999999999,-0.4899999999999999,0.07
1468,1782582430867,0.2099999999999999,-0.4899999999999999,0.07
1469,1782582430934,0.2099999999999999,-0.4899999999999999,0.07
1470,1782582431001,0.2099999999999999,-0.4899999999999999,0.0
1471,1782582431050,0.2099999999999999,-0.4899999999999999,0.0
1472,1782582431068,0.28,-0.4899999999999999,0.0
1473,1782582431084,0.28,-0.4899999999999999,0.0
1474,1782582431152,0.2099999999999999,-0.4899999999999999,0.0
1475,1782582431250,0.2099999999999999,-0.4899999999999999,0.07
1476,1782582431334,0.2099999999999999,-0.4899999999999999,0.0
1477,1782582431383,0.2099999999999999,-0.4899999999999999,0.07
1478,1782582431400,0.2099999999999999,-0.4899999999999999,0.0
1479,1782582431451,0.2099999999999999,-0.4899999999999999,0.07
1480,1782582431484,0.2099999999999999,-0.4899999999999999,0.07
1481,1782582431568,0.28,-0.4899999999999999,0.14
1482,1782582431633,0.28,-0.4899999999999999,0.07
1483,1782582431684,0.2099999999999999,-0.56,0.07
1484,1782582431717,0.2099999999999999,-0.56,0.0
1485,1782582431734,0.2099999999999999,-0.56,0.0
1486,1782582431749,0.2099999999999999,-0.4899999999999999,0.0
1487,1782582431767,0.14,-0.4899999999999999,0.0
1488,1782582431817,0.2099999999999999,-0.4899999999999999,0.0
1489,1782582431934,0.14,-0.56,0.07
1490,1782582432000,0.14,-0.56,0.07
1491,1782582432066,0.14,-0.56,0.07
1492,1782582432099,0.2099999999999999,-0.56,0.07
1493,1782582432116,0.2099999999999999,-0.56,0.07
1494,1782582432149,0.2099999999999999,-0.56,0.07
1495,1782582432232,0.2099999999999999,-0.56,0.07
1496,1782582432349,0.2099999999999999,-0.56,0.07
1497,1782582432399,0.2099999999999999,-0.56,0.07
1498,1782582432433,0.2099999999999999,-0.56,0.0
1499,1782582432500,0.2099999999999999,-0.56,0.0
1500,1782582432549,0.2099999999999999,-0.56,0.0
1501,1782582432600,0.14,-0.56,0.0
1502,1782582432650,0.14,-0.56,0.07
1503,1782582432715,0.2099999999999999,-0.56,0.07
1504,1782582432765,0.2099999999999999,-0.4899999999999999,0.07
1505,1782582432816,0.2099999999999999,-0.4899999999999999,0.07
1506,1782582432851,0.2099999999999999,-0.4899999999999999,0.07
1507,1782582432899,0.2099999999999999,-0.4899999999999999,0.07
1508,1782582432934,0.2099999999999999,-0.4899999999999999,0.07
1509,1782582432966,0.2099999999999999,-0.56,0.07
1510,1782582432982,0.2099999999999999,-0.56,0.0
1511,1782582433032,0.14,-0.4899999999999999,0.07
1512,1782582433082,0.2099999999999999,-0.4899999999999999,0.07
1513,1782582433149,0.2099999999999999,-0.4899999999999999,0.07
1514,1782582433165,0.2099999999999999,-0.4899999999999999,0.07
1515,1782582433233,0.2099999999999999,-0.4899999999999999,0.07
1516,1782582433282,0.2099999999999999,-0.4899999999999999,0.07
1517,1782582433298,0.2099999999999999,-0.4899999999999999,0.07
1518,1782582433332,0.14,-0.4899999999999999,0.07
1519,1782582433382,0.2099999999999999,-0.56,0.07
1520,1782582433433,0.2099999999999999,-0.56,0.07
1521,1782582433449,0.14,-0.56,0.07
1522,1782582433483,0.14,-0.56,0.07
1523,1782582433532,0.2099999999999999,-0.56,0.07
1524,1782582433550,0.14,-0.56,0.07
1525,1782582433598,0.2099999999999999,-0.56,0.07
1526,1782582433665,0.2099999999999999,-0.56,0.07
1527,1782582433764,0.2099999999999999,-0.4899999999999999,0.07
1528,1782582433831,0.2099999999999999,-0.56,0.0
1529,1782582433848,0.2099999999999999,-0.56,0.0
1530,1782582433881,0.2099999999999999,-0.56,0.0
1531,1782582433914,0.2099999999999999,-0.56,0.0
1532,1782582433965,0.2099999999999999,-0.4899999999999999,0.0
1533,1782582434014,0.28,-0.4899999999999999,0.0
1534,1782582434031,0.2099999999999999,-0.4899999999999999,0.0
1535,1782582434064,0.2099999999999999,-0.4899999999999999,0.0
1536,1782582434097,0.2099999999999999,-0.4899999999999999,0.0
1537,1782582434198,0.28,-0.4899999999999999,0.07
1538,1782582434265,0.28,-0.4899999999999999,0.07
1539,1782582434331,0.28,-0.4899999999999999,0.07
1540,1782582434365,0.28,-0.4899999999999999,0.07
1541,1782582434398,0.28,-0.56,0.07
1542,1782582434431,0.28,-0.56,0.07
1543,1782582434447,0.28,-0.56,0.07
1544,1782582434481,0.28,-0.56,0.07
1545,1782582434548,0.2099999999999999,-0.56,0.07
1546,1782582434597,0.2099999999999999,-0.56,0.07
1547,1782582434647,0.2099999999999999,-0.56,0.07
1548,1782582434697,0.2099999999999999,-0.56,0.07
1549,1782582434714,0.2099999999999999,-0.56,0.07
1550,1782582434731,0.2099999999999999,-0.56,0.07
1551,1782582434748,0.2099999999999999,-0.4899999999999999,0.07
1552,1782582434781,0.2099999999999999,-0.4899999999999999,0.07
1553,1782582434797,0.2099999999999999,-0.4899999999999999,0.07
1554,1782582434864,0.2099999999999999,-0.4899999999999999,0.0
1555,1782582434914,0.2099999999999999,-0.4899999999999999,0.0
1556,1782582434981,0.2099999999999999,-0.4899999999999999,0.0
1557,1782582435063,0.14,-0.4899999999999999,0.0
1558,1782582435114,0.14,-0.56,0.07
1559,1782582435147,0.14,-0.4899999999999999,0.07
1560,1782582435180,0.14,-0.4899999999999999,0.07
1561,1782582435213,0.2099999999999999,-0.4899999999999999,0.07
1562,1782582435247,0.2099999999999999,-0.4899999999999999,0.07
1563,1782582435280,0.2099999999999999,-0.56,0.07
1564,1782582435363,0.2099999999999999,-0.56,0.07
1565,1782582435413,0.2099999999999999,-0.4899999999999999,0.07
1566,1782582435430,0.2099999999999999,-0.56,0.07
1567,1782582435463,0.2099999999999999,-0.56,0.07
1568,1782582435480,0.2099999999999999,-0.4899999999999999,0.07
1569,1782582435498,0.2099999999999999,-0.56,0.07
1570,1782582435547,0.2099999999999999,-0.4899999999999999,0.07
1571,1782582435664,0.2099999999999999,-0.4899999999999999,0.07
1572,1782582435763,0.2099999999999999,-0.4899999999999999,0.07
1573,1782582435830,0.2099999999999999,-0.4899999999999999,0.0
1574,1782582435864,0.2099999999999999,-0.4899999999999999,0.0
1575,1782582435897,0.2099999999999999,-0.4899999999999999,0.0
1576,1782582435947,0.2099999999999999,-0.4899999999999999,0.0
1577,1782582435997,0.28,-0.4899999999999999,0.07
1578,1782582436013,0.2099999999999999,-0.4899999999999999,0.0
1579,1782582436047,0.2099999999999999,-0.56,0.0
1580,1782582436080,0.28,-0.56,0.07
1581,1782582436096,0.2099999999999999,-0.4899999999999999,0.07
1582,1782582436146,0.2099999999999999,-0.56,0.07
1583,1782582436196,0.2099999999999999,-0.56,0.07
1584,1782582436246,0.2099999999999999,-0.4899999999999999,0.0
1585,1782582436312,0.28,-0.4899999999999999,0.0
1586,1782582436380,0.2099999999999999,-0.4899999999999999,0.0
1587,1782582436397,0.2099999999999999,-0.4899999999999999,0.0
1588,1782582436429,0.2099999999999999,-0.4899999999999999,0.0
1589,1782582436479,0.14,-0.4899999999999999,0.0
1590,1782582436546,0.14,-0.4899999999999999,0.0
1591,1782582436562,0.2099999999999999,-0.4899999999999999,0.14
1592,1782582436630,0.2099999999999999,-0.4899999999999999,0.14
1593,1782582436663,0.2099999999999999,-0.4899999999999999,0.14
1594,1782582436696,0.2099999999999999,-0.4899999999999999,0.07
1595,1782582436712,0.2099999999999999,-0.4899999999999999,0.07
1596,1782582436729,0.28,-0.4899999999999999,0.07
1597,1782582436780,0.28,-0.56,0.07
1598,1782582436830,0.28,-0.4899999999999999,0.07
1599,1782582436879,0.14,-0.4899999999999999,0.0
1600,1782582436928,0.2099999999999999,-0.4899999999999999,0.0
1601,1782582436963,0.2099999999999999,-0.4899999999999999,0.0
1602,1782582436979,0.28,-0.4899999999999999,0.0
1603,1782582436996,0.28,-0.4899999999999999,0.0
1604,1782582437029,0.2099999999999999,-0.4899999999999999,0.0
1605,1782582437062,0.2099999999999999,-0.4899999999999999,0.0
1606,1782582437146,0.2099999999999999,-0.4899999999999999,0.07
1607,1782582437195,0.2099999999999999,-0.56,0.07
1608,1782582437245,0.2099999999999999,-0.4899999999999999,0.07
1609,1782582437329,0.14,-0.4899999999999999,0.07
1610,1782582437378,0.14,-0.4899999999999999,0.07
1611,1782582437445,0.2099999999999999,-0.56,0.07
1612,1782582437495,0.2099999999999999,-0.4899999999999999,0.07
1613,1782582437529,0.2099999999999999,-0.4899999999999999,0.07
1614,1782582437561,0.2099999999999999,-0.4899999999999999,0.07
1615,1782582437578,0.2099999999999999,-0.4899999999999999,0.07
1616,1782582437611,0.2099999999999999,-0.4899999999999999,0.07
1617,1782582437678,0.2099999999999999,-0.4899999999999999,0.07
1618,1782582437745,0.2099999999999999,-0.4899999999999999,0.07
1619,1782582437778,0.2099999999999999,-0.4899999999999999,0.07
1620,1782582437811,0.2099999999999999,-0.4899999999999999,0.07
1621,1782582437863,0.2099999999999999,-0.4899999999999999,0.07
1622,1782582437911,0.28,-0.4899999999999999,0.07
1623,1782582437961,0.28,-0.4899999999999999,0.07
1624,1782582438012,0.2099999999999999,-0.4899999999999999,0.07
1625,1782582438061,0.14,-0.56,0.07
1626,1782582438094,0.2099999999999999,-0.4899999999999999,0.0
1627,1782582438161,0.2099999999999999,-0.56,0.0
1628,1782582438261,0.28,-0.56,0.0
1629,1782582438345,0.2099999999999999,-0.56,0.0
1630,1782582438394,6.93,-0.4899999999999999,0.07
1631,1782582438444,0.2099999999999999,-0.56,0.07
1632,1782582438511,0.2099999999999999,-0.63,0.0
1633,1782582438544,0.2099999999999999,-0.56,0.0
1634,1782582438610,0.2099999999999999,-0.56,0.0
1635,1782582438644,0.2099999999999999,-0.63,0.0
1636,1782582438711,0.2099999999999999,-0.56,0.07
1637,1782582438744,0.28,-0.56,0.07
1638,1782582438844,0.28,-0.56,0.07
1639,1782582438944,0.28,-0.4899999999999999,0.07
1640,1782582439093,0.2099999999999999,-0.4899999999999999,0.07
1641,1782582439160,0.2099999999999999,-0.4899999999999999,0.07
1642,1782582439210,0.2099999999999999,-0.56,0.07
1643,1782582439244,0.28,-0.56,0.0
1644,1782582439294,0.28,-0.56,0.07
1645,1782582439344,0.28,-0.4899999999999999,0.07
1646,1782582439393,0.28,-0.56,0.14
1647,1782582439526,0.3499999999999999,-0.4899999999999999,0.0
1648,1782582439560,0.3499999999999999,-0.4199999999999999,0.0
1649,1782582439593,0.3499999999999999,-0.4199999999999999,0.0
1650,1782582439627,0.3499999999999999,-0.4199999999999999,0.07
1651,1782582439776,0.28,-0.4199999999999999,0.07
1652,1782582439810,0.28,-0.4899999999999999,0.07
1653,1782582439827,0.28,-0.56,0.07
1654,1782582439843,0.28,-0.4899999999999999,0.07
1655,1782582439876,0.28,-0.4899999999999999,0.07
1656,1782582439909,0.28,-0.4899999999999999,0.07
1657,1782582439943,0.2099999999999999,-0.4899999999999999,0.07
1658,1782582440009,0.2099999999999999,-0.4899999999999999,0.07
1659,1782582440043,0.2099999999999999,-0.4899999999999999,0.0
1660,1782582440109,0.2099999999999999,-0.4899999999999999,0.07
1661,1782582440193,0.2099999999999999,-0.4899999999999999,0.0
1662,1782582440242,0.2099999999999999,-0.4899999999999999,0.0
1663,1782582440309,0.2099999999999999,-0.4899999999999999,0.0
1664,1782582440393,0.2099999999999999,-0.4899999999999999,0.0
1665,1782582440509,0.2099999999999999,-0.4899999999999999,0.07
1666,1782582440592,0.2099999999999999,-0.4899999999999999,0.07
1667,1782582440643,0.2099999999999999,-0.56,0.07
1668,1782582440692,0.2099999999999999,-0.56,0.07
1669,1782582440759,0.14,-0.56,0.07
1670,1782582440826,0.14,-0.4899999999999999,0.07
1671,1782582440942,0.14,-0.4899999999999999,0.0
1672,1782582441058,0.2099999999999999,-0.56,0.07
1673,1782582441092,0.2099999999999999,-0.56,0.07
1674,1782582441141,0.2099999999999999,-0.56,0.07
1675,1782582441192,0.2099999999999999,-0.4899999999999999,0.07
1676,1782582441275,0.2099999999999999,-0.4899999999999999,0.07
1677,1782582441292,0.2099999999999999,-0.56,0.0
1678,1782582441342,0.2099999999999999,-0.4899999999999999,0.0
1679,1782582441392,0.2099999999999999,-0.4899999999999999,0.0
1680,1782582441458,0.2099999999999999,-0.4899999999999999,0.07
1681,1782582441491,0.2099999999999999,-0.56,0.07
1682,1782582441558,0.2099999999999999,-0.56,0.07
1683,1782582441592,0.2099999999999999,-0.56,0.07
1684,1782582441642,0.14,-0.56,0.07
1685,1782582441691,0.2099999999999999,-0.56,0.0
1686,1782582441724,0.2099999999999999,-0.56,0.0
1687,1782582441791,0.2099999999999999,-0.56,0.0
1688,1782582441825,0.2099999999999999,-0.56,0.0
1689,1782582441841,0.2099999999999999,-0.56,0.07
1690,1782582441858,0.2099999999999999,-0.4899999999999999,0.07
1691,1782582441891,0.2099999999999999,-0.4899999999999999,0.07
1692,1782582441908,0.28,-0.4899999999999999,0.07
1693,1782582441958,0.28,-0.4899999999999999,0.07
1694,1782582442025,0.28,-0.4899999999999999,0.07
1695,1782582442075,0.28,-0.4899999999999999,0.07
1696,1782582442274,0.2099999999999999,-0.4899999999999999,0.0
1697,1782582442324,0.2099999999999999,-0.4899999999999999,0.0
1698,1782582442375,0.2099999999999999,-0.4899999999999999,0.0
1699,1782582442441,0.14,-0.4899999999999999,0.07
1700,1782582442508,0.28,-0.56,0.0
1701,1782582442557,0.2099999999999999,-0.56,0.0
1702,1782582442607,0.2099999999999999,-0.56,0.0
1703,1782582442658,0.2099999999999999,-0.56,0.0
1704,1782582442707,0.28,-0.56,0.0
1705,1782582442757,0.28,-0.56,0.07
1706,1782582442790,0.2099999999999999,-0.56,0.0
1707,1782582442824,0.2099999999999999,-0.56,0.07
1708,1782582442890,0.2099999999999999,-0.56,0.07
1709,1782582443057,0.2099999999999999,-0.56,0.07
1710,1782582443107,0.14,-0.56,0.07
1711,1782582443174,0.14,-0.56,0.07
1712,1782582443208,0.2099999999999999,-0.56,0.07
1713,1782582443273,0.2099999999999999,-0.4899999999999999,0.07
1714,1782582443390,0.2099999999999999,-0.56,0.0
1715,1782582443608,0.2099999999999999,-0.4899999999999999,0.07
1716,1782582443657,0.2099999999999999,-0.4899999999999999,0.07
1717,1782582443707,0.2099999999999999,-0.56,0.07
1718,1782582443773,0.2099999999999999,-0.56,0.07
1719,1782582443807,0.14,-0.56,0.07
1720,1782582443856,0.14,-0.56,0.07
1721,1782582443906,0.14,-0.56,0.07
1722,1782582443923,0.2099999999999999,-0.56,0.0
1723,1782582443989,0.2099999999999999,-0.4899999999999999,0.0
1724,1782582444072,0.2099999999999999,-0.4899999999999999,0.0
1725,1782582444157,0.2099999999999999,-0.4899999999999999,0.07
1726,1782582444207,0.14,-0.4899999999999999,0.07
1727,1782582444240,0.2099999999999999,-0.4899999999999999,0.07
1728,1782582444308,0.2099999999999999,-0.56,0.07
1729,1782582444356,0.28,-0.56,0.0
1730,1782582444406,0.28,-0.56,0.0
1731,1782582444474,0.2099999999999999,-0.4899999999999999,0.07
1732,1782582444489,0.28,-0.4899999999999999,0.07
1733,1782582444506,0.28,-0.4899999999999999,0.07
1734,1782582444540,0.28,-0.4899999999999999,0.07
1735,1782582444556,0.2099999999999999,-0.4899999999999999,0.07
1736,1782582444606,0.28,-0.56,0.0
1737,1782582444672,0.28,-0.56,0.07
1738,1782582444739,0.28,-0.4899999999999999,0.07
1739,1782582444822,0.28,-0.4199999999999999,0.07
1740,1782582444889,0.28,-0.4899999999999999,0.07
1741,1782582444905,0.28,-0.4899999999999999,0.07
1742,1782582444939,0.28,-0.4199999999999999,0.07
1743,1782582444972,0.28,-0.4199999999999999,0.07
1744,1782582445022,0.28,-0.4899999999999999,0.07
1745,1782582445072,0.2099999999999999,-0.4199999999999999,0.07
1746,1782582445122,0.2099999999999999,-0.4899999999999999,0.0
1747,1782582445173,0.2099999999999999,-0.56,0.0
1748,1782582445223,0.2099999999999999,-0.56,0.0
1749,1782582445272,0.2099999999999999,-0.56,0.07
1750,1782582445372,0.2099999999999999,-0.56,0.07
1751,1782582445422,0.2099999999999999,-0.4899999999999999,0.0
1752,1782582445472,0.2099999999999999,-0.4899999999999999,0.0
1753,1782582445572,0.2099999999999999,-0.4899999999999999,0.0
1754,1782582445655,0.2099999999999999,-0.4899999999999999,0.0
1755,1782582445672,0.2099999999999999,-0.4899999999999999,0.0
1756,1782582445838,0.2099999999999999,-0.4899999999999999,0.07
1757,1782582445904,0.2099999999999999,-0.4899999999999999,0.07
1758,1782582445938,0.14,-0.4899999999999999,0.07
1759,1782582445988,0.2099999999999999,-0.4899999999999999,0.07
1760,1782582446054,0.28,-0.4899999999999999,0.07
1761,1782582446171,0.28,-0.56,0.07
1762,1782582446222,0.28,-0.4899999999999999,0.0
1763,1782582446271,0.28,-0.4899999999999999,0.07
1764,1782582446287,0.2099999999999999,-0.4899999999999999,0.0
1765,1782582446304,0.2099999999999999,-0.4899999999999999,0.0
1766,1782582446321,0.14,-0.4899999999999999,0.0
1767,1782582446354,0.14,-0.4899999999999999,0.0
1768,1782582446404,0.14,-0.4899999999999999,0.0
1769,1782582446454,0.2099999999999999,-0.4899999999999999,0.0
1770,1782582446504,0.28,-0.4899999999999999,0.07
1771,1782582446538,0.2099999999999999,-0.4899999999999999,0.07
1772,1782582446554,0.2099999999999999,-0.4899999999999999,0.07
1773,1782582446604,0.2099999999999999,-0.4899999999999999,0.07
1774,1782582446637,0.2099999999999999,-0.4899999999999999,0.07
1775,1782582446787,0.14,-0.56,0.0
1776,1782582446838,0.14,-0.56,0.0
1777,1782582446872,0.28,-0.56,0.0
1778,1782582446904,0.28,-0.56,0.0
1779,1782582446920,0.28,-0.56,0.0
1780,1782582446970,0.28,-0.56,0.0
1781,1782582447037,0.28,-0.56,0.0
1782,1782582447087,0.2099999999999999,-0.56,0.07
1783,1782582447137,0.2099999999999999,-0.56,0.07
1784,1782582447204,0.2099999999999999,-0.56,0.07
1785,1782582447220,0.2099999999999999,-0.56,0.07
1786,1782582447237,0.2099999999999999,-0.56,0.07
1787,1782582447270,0.2099999999999999,-0.4899999999999999,0.07
1788,1782582447303,0.28,-0.4899999999999999,0.07
1789,1782582447370,0.14,-0.56,0.07
1790,1782582447436,0.14,-0.56,0.07
1791,1782582447471,0.2099999999999999,-0.56,0.07
1792,1782582447487,0.2099999999999999,-0.56,0.07
1793,1782582447520,0.2099999999999999,-0.56,0.0
1794,1782582447537,0.2099999999999999,-0.56,0.0
1795,1782582447553,0.2099999999999999,-0.56,0.0
1796,1782582447604,0.2099999999999999,-0.56,0.0
1797,1782582447653,0.2099999999999999,-0.56,0.07
1798,1782582447719,0.14,-0.4899999999999999,0.0
1799,1782582447769,0.2099999999999999,-0.4899999999999999,0.0
1800,1782582447787,0.2099999999999999,-0.4899999999999999,0.0
1801,1782582447819,0.2099999999999999,-0.4899999999999999,0.0
1802,1782582447886,0.2099999999999999,-0.4899999999999999,0.0
1803,1782582447953,0.14,-0.4899999999999999,0.0
1804,1782582447986,0.2099999999999999,-0.4899999999999999,0.07
1805,1782582448019,0.14,-0.4899999999999999,0.0
1806,1782582448036,0.14,-0.4899999999999999,0.0
1807,1782582448053,0.14,-0.4899999999999999,0.0
1808,1782582448102,0.14,-0.56,0.07
1809,1782582448186,0.14,-0.56,0.07
1810,1782582448253,0.2099999999999999,-0.4899999999999999,0.07
1811,1782582448287,0.2099999999999999,-0.56,0.07
1812,1782582448353,0.2099999999999999,-0.56,0.07
1813,1782582448419,0.2099999999999999,-0.56,0.07
1814,1782582448436,0.2099999999999999,-0.56,0.0
1815,1782582448486,0.2099999999999999,-0.56,0.07
1816,1782582448569,0.2099999999999999,-0.4899999999999999,0.07
1817,1782582448620,0.2099999999999999,-0.4899999999999999,0.07
1818,1782582448669,0.14,-0.4899999999999999,0.07
1819,1782582448686,0.2099999999999999,-0.4899999999999999,0.07
1820,1782582448719,0.14,-0.4899999999999999,0.07
1821,1782582448735,0.14,-0.56,0.07
1822,1782582448786,0.2099999999999999,-0.56,0.07
1823,1782582448869,0.28,-0.4899999999999999,0.0
1824,1782582448902,0.28,-0.4899999999999999,0.0
1825,1782582448919,0.28,-0.4899999999999999,0.07
1826,1782582449002,0.2099999999999999,-0.4899999999999999,0.0
1827,1782582449069,0.28,-0.4899999999999999,0.0
1828,1782582449119,0.14,-0.56,0.07
1829,1782582449169,0.14,-0.56,0.07
1830,1782582449218,0.14,-0.56,0.07
1831,1782582449251,0.2099999999999999,-0.56,0.07
1832,1782582449318,0.2099999999999999,-0.56,0.07
1833,1782582449402,0.2099999999999999,-0.56,0.07
1834,1782582449435,0.2099999999999999,-0.56,0.07
1835,1782582449518,0.2099999999999999,-0.56,0.07
1836,1782582449568,0.2099999999999999,-0.56,0.07
1837,1782582449601,0.28,-0.4899999999999999,0.07
1838,1782582449634,0.2099999999999999,-0.4899999999999999,0.07
1839,1782582449668,0.28,-0.4899999999999999,0.07
1840,1782582449768,0.2099999999999999,-0.4899999999999999,0.0
1841,1782582449818,0.2099999999999999,-0.4899999999999999,0.0
1842,1782582449852,0.2099999999999999,-0.4899999999999999,0.0
1843,1782582449918,0.2099999999999999,-0.4899999999999999,0.0
1844,1782582449952,0.14,-0.4899999999999999,0.0
1845,1782582450018,-0.28,-0.4899999999999999,0.07
1846,1782582450068,-0.07,-0.4899999999999999,0.07
1847,1782582450101,0.3499999999999999,-0.4899999999999999,0.07
1848,1782582450117,0.3499999999999999,-0.4899999999999999,0.07
1849,1782582450151,0.3499999999999999,-0.4899999999999999,0.07
1850,1782582450167,0.28,-0.4899999999999999,0.0
1851,1782582450218,0.28,-0.56,0.0
1852,1782582450251,0.2099999999999999,-0.56,0.07
1853,1782582450284,0.28,-0.3499999999999999,0.0
1854,1782582450401,0.28,-0.3499999999999999,0.0
1855,1782582450434,0.28,-0.4899999999999999,0.0
1856,1782582450467,0.28,-0.6999999999999998,0.0
1857,1782582450501,0.2099999999999999,-0.56,0.07
1858,1782582450568,0.28,-0.4899999999999999,0.07
1859,1782582450617,0.28,-0.4899999999999999,0.07
1860,1782582450700,0.28,-0.4899999999999999,0.07
1861,1782582450834,0.2099999999999999,-0.4899999999999999,0.07
1862,1782582450834,0.14,-0.4899999999999999,0.07
1863,1782582450901,0.14,-0.4899999999999999,0.07
1864,1782582450950,0.14,-0.4899999999999999,0.07
1865,1782582451000,0.14,-0.4899999999999999,0.07
1866,1782582451033,0.2099999999999999,-0.4899999999999999,0.07
1867,1782582451050,0.2099999999999999,-0.4899999999999999,0.07
1868,1782582451083,0.2099999999999999,-0.4899999999999999,0.07
1869,1782582451184,0.2099999999999999,-0.56,0.07
1870,1782582451317,0.2099999999999999,-0.4899999999999999,0.07
1871,1782582451383,0.2099999999999999,-0.4899999999999999,0.07
1872,1782582451433,0.2099999999999999,-0.4899999999999999,0.07
1873,1782582451483,0.2099999999999999,-0.4899999999999999,0.07
1874,1782582451550,0.2099999999999999,-0.4899999999999999,0.07
1875,1782582451617,0.2099999999999999,-0.4899999999999999,0.07
1876,1782582451733,0.14,-0.4899999999999999,0.0
1877,1782582451784,0.14,-0.4899999999999999,0.0
1878,1782582451833,0.14,-0.4899999999999999,0.0
1879,1782582451916,0.2099999999999999,-0.4899999999999999,0.0
1880,1782582451966,0.2099999999999999,-0.4899999999999999,0.07
1881,1782582452049,0.2099999999999999,-0.56,0.0
1882,1782582452101,0.2099999999999999,-0.4899999999999999,0.0
1883,1782582452166,0.2099999999999999,-0.4899999999999999,0.0
1884,1782582452217,0.2099999999999999,-0.4899999999999999,0.0
1885,1782582452250,0.14,-0.4899999999999999,0.0
1886,1782582452350,0.14,-0.4899999999999999,0.0
1887,1782582452382,0.14,-0.56,0.0
1888,1782582452465,0.2099999999999999,-0.56,0.0
1889,1782582452533,0.2099999999999999,-0.56,0.0
1890,1782582452566,0.2099999999999999,-0.56,0.07
1891,1782582452583,0.14,-0.56,0.07
1892,1782582452633,0.14,-0.56,0.07
1893,1782582452699,0.14,-0.56,0.07
1894,1782582452800,0.14,-0.56,0.07
1895,1782582452866,0.14,-0.56,0.07
1896,1782582452899,0.2099999999999999,-0.4899999999999999,-0.07
1897,1782582452966,0.2099999999999999,-0.4899999999999999,-0.07
1898,1782582453066,0.2099999999999999,-0.4899999999999999,0.0
1899,1782582453115,0.2099999999999999,-0.4899999999999999,0.0
1900,1782582453182,0.14,-0.4899999999999999,0.0
1901,1782582453282,0.14,-0.4899999999999999,0.0
1902,1782582453348,0.14,-0.56,0.0
1903,1782582453416,0.2099999999999999,-0.56,0.07
1904,1782582453482,0.2099999999999999,-0.63,0.07
1905,1782582453515,0.14,-0.63,0.07
1906,1782582453581,0.14,-0.63,0.07
1907,1782582453631,0.14,-0.63,0.07
1908,1782582453682,0.14,-0.56,0.0
1909,1782582453714,0.14,-0.4899999999999999,0.07
1910,1782582453798,0.14,-0.4899999999999999,0.0
1911,1782582453866,0.14,-0.56,0.07
1912,1782582453914,0.14,-0.56,0.0
1913,1782582453981,0.2099999999999999,-0.56,0.0
1914,1782582453998,0.2099999999999999,-0.4899999999999999,0.0
1915,1782582454032,0.2099999999999999,-0.4899999999999999,0.0
1916,1782582454098,0.14,-0.4899999999999999,0.0
1917,1782582454198,0.14,-0.56,0.0
1918,1782582454248,0.28,-0.4899999999999999,0.07
1919,1782582454281,0.28,-0.56,0.07
1920,1782582454297,0.28,-0.4899999999999999,0.07
1921,1782582454331,0.2099999999999999,-0.4899999999999999,0.07
1922,1782582454364,0.14,-0.4899999999999999,0.07
1923,1782582454431,0.14,-0.56,0.07
1924,1782582454565,0.28,-0.4899999999999999,0.07
1925,1782582454598,0.28,-0.4899999999999999,0.07
1926,1782582454615,0.28,-0.4899999999999999,0.07
1927,1782582454649,0.2099999999999999,-0.4899999999999999,0.0
1928,1782582454664,0.14,-0.4899999999999999,0.0
1929,1782582454680,0.14,-0.4899999999999999,0.0
1930,1782582454747,0.14,-0.4899999999999999,0.0
1931,1782582454797,0.2099999999999999,-0.4899999999999999,0.0
1932,1782582454847,0.2099999999999999,-0.4899999999999999,0.0
1933,1782582454914,0.2099999999999999,-0.56,0.07
1934,1782582454997,0.14,-0.56,0.07
1935,1782582455113,0.2099999999999999,-0.56,0.07
1936,1782582455163,0.2099999999999999,-0.4899999999999999,0.07
1937,1782582455214,0.2099999999999999,-0.56,0.07
1938,1782582455263,0.2099999999999999,-0.56,0.07
1939,1782582455296,0.14,-0.56,0.07
1940,1782582455364,0.14,-0.56,0.07
1941,1782582455413,0.2099999999999999,-0.4899999999999999,0.07
1942,1782582455463,0.2099999999999999,-0.56,0.07
1943,1782582455546,0.28,-0.56,0.0
1944,1782582455596,0.28,-0.4899999999999999,0.07
1945,1782582455647,0.28,-0.4899999999999999,0.0
1946,1782582455730,0.28,-0.4899999999999999,0.0
1947,1782582455763,0.14,-0.4899999999999999,0.0
1948,1782582455780,0.14,-0.4899999999999999,0.07
1949,1782582455879,0.14,-0.4899999999999999,0.07
1950,1782582455946,0.2099999999999999,-0.4899999999999999,0.07
1951,1782582455996,0.2099999999999999,-0.4899999999999999,0.07
1952,1782582456013,0.2099999999999999,-0.4899999999999999,0.07
1953,1782582456046,0.2099999999999999,-0.4899999999999999,0.07
1954,1782582456063,0.2099999999999999,-0.4899999999999999,0.07
1955,1782582456079,0.28,-0.4899999999999999,0.07
1956,1782582456129,0.28,-0.4899999999999999,0.07
1957,1782582456196,0.2099999999999999,-0.4899999999999999,0.07
1958,1782582456279,0.2099999999999999,-0.56,0.0
1959,1782582456313,0.2099999999999999,-0.56,0.0
1960,1782582456345,0.2099999999999999,-0.56,0.07
1961,1782582456396,0.2099999999999999,-0.56,0.07
1962,1782582456445,0.2099999999999999,-0.56,0.07
1963,1782582456496,0.2099999999999999,-0.4899999999999999,0.07
1964,1782582456579,0.28,-0.4899999999999999,0.07
1965,1782582456628,0.2099999999999999,-0.4899999999999999,0.07
1966,1782582456729,0.2099999999999999,-0.4899999999999999,0.07
1967,1782582456795,0.28,-0.4899999999999999,0.07
1968,1782582456862,-0.28,-0.77,0.0
1969,1782582456912,0.3499999999999999,-0.56,0.0
1970,1782582457012,0.3499999999999999,-0.77,0.0
1971,1782582457079,0.3499999999999999,-0.77,0.0
1972,1782582457112,0.28,-0.56,0.07
1973,1782582457179,0.28,-0.56,0.07
1974,1782582457245,0.07,-0.56,0.07
1975,1782582457278,0.07,-0.56,0.07
1976,1782582457328,0.14,-0.4199999999999999,0.07
1977,1782582457361,0.14,-0.3499999999999999,0.07
1978,1782582457378,0.14,-0.3499999999999999,0.07
1979,1782582457412,0.14,-0.8399999999999999,0.0
1980,1782582457511,0.2099999999999999,-0.4899999999999999,0.07
1981,1782582457561,0.2099999999999999,-0.4899999999999999,0.07
1982,1782582457595,0.2099999999999999,-0.4899999999999999,0.07
1983,1782582457611,0.2099999999999999,-0.56,0.07
1984,1782582457644,0.2099999999999999,-0.4899999999999999,0.07
1985,1782582457662,0.2099999999999999,-0.4899999999999999,0.07
1986,1782582457694,0.2099999999999999,-0.56,0.07
1987,1782582457745,0.2099999999999999,-0.4899999999999999,0.0
1988,1782582457811,0.2099999999999999,-0.4899999999999999,0.07
1989,1782582457878,0.2099999999999999,-0.56,0.07
1990,1782582457945,0.2099999999999999,-0.56,0.0
1991,1782582457977,0.28,-0.4899999999999999,0.0
1992,1782582458028,0.28,-0.56,0.07
1993,1782582458077,0.2099999999999999,-0.56,0.07
1994,1782582458127,0.2099999999999999,-0.56,0.07
1995,1782582458194,0.2099999999999999,-0.56,0.07
1996,1782582458228,0.2099999999999999,-0.56,0.07
1997,1782582458344,0.2099999999999999,-0.4899999999999999,0.0
1998,1782582458444,0.14,-0.4899999999999999,0.07
1999,1782582458494,0.14,-0.56,0.07
2000,1782582458577,0.2099999999999999,-0.4899999999999999,0.07
2001,1782582458628,0.2099999999999999,-0.56,0.07
2002,1782582458677,0.2099999999999999,-0.56,0.07
2003,1782582458744,0.2099999999999999,-0.56,0.07
2004,1782582458794,0.2099999999999999,-0.56,0.07
2005,1782582458861,0.2099999999999999,-0.4899999999999999,0.07
2006,1782582458910,0.2099999999999999,-0.4899999999999999,0.07
2007,1782582459126,0.14,-0.4899999999999999,0.07
2008,1782582459193,0.2099999999999999,-0.56,0.0
2009,1782582459227,0.2099999999999999,-0.4899999999999999,0.0
2010,1782582459293,0.2099999999999999,-0.4899999999999999,0.0
2011,1782582459343,0.2099999999999999,-0.4899999999999999,0.0
2012,1782582459393,0.2099999999999999,-0.4899999999999999,0.0
2013,1782582459460,0.2099999999999999,-0.56,0.07
2014,1782582459510,0.2099999999999999,-0.56,0.07
2015,1782582459626,0.2099999999999999,-0.4899999999999999,0.07
2016,1782582459676,0.2099999999999999,-0.56,0.07
2017,1782582459726,0.28,-0.56,0.07
2018,1782582459776,0.2099999999999999,-0.56,0.07
2019,1782582459826,0.2099999999999999,-0.56,0.07
2020,1782582459876,0.2099999999999999,-0.4899999999999999,0.07
2021,1782582459942,0.2099999999999999,-0.4899999999999999,0.07
2022,1782582459993,0.2099999999999999,-0.4899999999999999,0.07
2023,1782582460010,0.14,-0.4899999999999999,0.07
2024,1782582460076,0.14,-0.56,0.07
2025,1782582460126,0.2099999999999999,-0.4899999999999999,0.07
2026,1782582460176,0.2099999999999999,-0.4899999999999999,0.0
2027,1782582460226,0.2099999999999999,-0.56,0.0
2028,1782582460259,0.2099999999999999,-0.56,0.0
2029,1782582460359,0.28,-0.4899999999999999,0.07
2030,1782582460425,0.2099999999999999,-0.4899999999999999,0.07
2031,1782582460525,0.2099999999999999,-0.4899999999999999,0.07
2032,1782582460643,0.2099999999999999,-0.4899999999999999,0.07
2033,1782582460709,0.2099999999999999,-0.4899999999999999,0.07
2034,1782582460776,0.2099999999999999,-0.4899999999999999,0.07
2035,1782582460825,0.14,-0.4899999999999999,0.07
2036,1782582460875,0.28,-0.4899999999999999,0.0
2037,1782582460942,0.2099999999999999,-0.4899999999999999,0.0
2038,1782582461009,0.2099999999999999,-0.4899999999999999,0.0
2039,1782582461226,0.2099999999999999,-0.56,0.14
2040,1782582461275,0.2099999999999999,-0.56,0.07
2041,1782582461325,0.28,-0.4899999999999999,0.07
2042,1782582461375,0.28,-0.56,0.07
2043,1782582461425,0.28,-0.4899999999999999,0.07
2044,1782582461474,0.28,-0.56,0.07
2045,1782582461525,0.28,-0.4899999999999999,0.07
2046,1782582461591,0.28,-0.4899999999999999,0.07
2047,1782582461691,0.3499999999999999,-0.4899999999999999,0.0
2048,1782582461791,0.14,-0.4899999999999999,0.07
2049,1782582461824,0.2099999999999999,-0.4899999999999999,0.07
2050,1782582461891,0.2099999999999999,-0.4899999999999999,0.07
2051,1782582461958,0.28,-0.4899999999999999,0.07
2052,1782582462041,0.2099999999999999,-0.4899999999999999,0.07
2053,1782582462074,0.2099999999999999,-0.4899999999999999,0.07
2054,1782582462108,0.2099999999999999,-0.4899999999999999,0.07
2055,1782582462174,0.2099999999999999,-0.4899999999999999,0.07
2056,1782582462240,0.2099999999999999,-0.56,0.07
2057,1782582462307,0.2099999999999999,-0.56,0.07
2058,1782582462357,0.2099999999999999,-0.56,0.07
2059,1782582462374,0.28,-0.56,0.07
2060,1782582462457,0.2099999999999999,-0.56,0.07
2061,1782582462524,0.2099999999999999,-0.56,0.07
2062,1782582462574,0.2099999999999999,-0.56,0.07
2063,1782582462607,0.2099999999999999,-0.56,0.07
2064,1782582462624,0.2099999999999999,-0.56,0.07
2065,1782582462657,0.2099999999999999,-0.4899999999999999,0.07
2066,1782582462691,0.2099999999999999,-0.4899999999999999,0.07
2067,1782582462757,0.2099999999999999,-0.4899999999999999,0.07
2068,1782582462824,0.2099999999999999,-0.4899999999999999,0.07
2069,1782582462890,0.2099999999999999,-0.4899999999999999,0.07
2070,1782582462924,0.28,-0.4899999999999999,0.07
2071,1782582462957,0.2099999999999999,-0.4899999999999999,0.07
2072,1782582463007,0.2099999999999999,-0.4899999999999999,0.0
2073,1782582463056,0.2099999999999999,-0.4899999999999999,0.0
2074,1782582463123,0.2099999999999999,-0.4899999999999999,0.0
2075,1782582463174,0.2099999999999999,-0.4899999999999999,0.0
2076,1782582463307,0.2099999999999999,-0.4899999999999999,0.07
2077,1782582463340,0.2099999999999999,-0.4899999999999999,0.07
2078,1782582463407,0.2099999999999999,-0.56,0.07
2079,1782582463473,0.2099999999999999,-0.56,0.07
2080,1782582463524,0.2099999999999999,-0.4899999999999999,0.0
2081,1782582463573,0.14,-0.56,0.0
2082,1782582463606,0.07,-0.4899999999999999,0.0
2083,1782582463673,0.07,-0.4899999999999999,0.0
2084,1782582463823,0.07,-0.56,0.0
2085,1782582463856,0.28,-0.4899999999999999,0.0
2086,1782582463889,0.28,-0.4899999999999999,0.0
2087,1782582463957,0.28,-0.4899999999999999,0.0
2088,1782582463989,0.28,-0.4899999999999999,0.07
2089,1782582464056,0.2099999999999999,-0.4899999999999999,0.0
2090,1782582464089,0.14,-0.4899999999999999,0.0
2091,1782582464155,0.2099999999999999,-0.56,0.07
2092,1782582464206,0.2099999999999999,-0.56,0.07
2093,1782582464256,0.2099999999999999,-0.4899999999999999,0.07
2094,1782582464305,0.2099999999999999,-0.4899999999999999,0.07
2095,1782582464356,0.2099999999999999,-0.4899999999999999,0.07
2096,1782582464373,0.2099999999999999,-0.4899999999999999,0.07
2097,1782582464473,0.28,-0.56,0.07
2098,1782582464505,0.28,-0.56,0.07
2099,1782582464555,0.2099999999999999,-0.56,0.0
2100,1782582464572,0.14,-0.56,0.0
2101,1782582464622,0.14,-0.56,0.0
2102,1782582464672,0.14,-0.4899999999999999,0.0
2103,1782582464688,0.2099999999999999,-0.4899999999999999,0.0
2104,1782582464739,0.2099999999999999,-0.4899999999999999,0.0
2105,1782582464805,0.28,-0.4899999999999999,0.07
2106,1782582464856,0.28,-0.4899999999999999,0.07
2107,1782582464922,0.2099999999999999,-0.4899999999999999,0.07
2108,1782582464989,0.2099999999999999,-0.4899999999999999,0.07
2109,1782582465022,0.2099999999999999,-0.4899999999999999,0.07
2110,1782582465088,0.2099999999999999,-0.56,0.0
2111,1782582465105,0.2099999999999999,-0.56,0.0
2112,1782582465138,0.2099999999999999,-0.56,0.0
2113,1782582465188,0.2099999999999999,-0.4899999999999999,0.0
2114,1782582465238,0.2099999999999999,-0.4899999999999999,0.07
2115,1782582465288,0.2099999999999999,-0.4899999999999999,0.07
2116,1782582465354,0.2099999999999999,-0.56,0.07
2117,1782582465388,0.2099999999999999,-0.4899999999999999,0.07
2118,1782582465421,0.28,-0.4899999999999999,0.07
2119,1782582465555,0.28,-0.4899999999999999,0.07
2120,1782582465604,0.28,-0.4899999999999999,0.07
2121,1782582465638,0.2099999999999999,-0.63,0.0
2122,1782582465671,0.2099999999999999,-0.63,0.0
2123,1782582465704,0.2099999999999999,-0.56,0.07
2124,1782582465738,0.2099999999999999,-0.56,0.07
2125,1782582465804,0.2099999999999999,-0.4899999999999999,0.07
2126,1782582465871,0.2099999999999999,-0.4899999999999999,0.07
2127,1782582465904,0.2099999999999999,-0.4899999999999999,0.07
2128,1782582465937,0.2099999999999999,-0.4899999999999999,0.07
2129,1782582465971,0.2099999999999999,-0.4899999999999999,0.07
2130,1782582465988,0.2099999999999999,-0.4899999999999999,0.07
2131,1782582466005,0.2099999999999999,-0.4899999999999999,0.07
2132,1782582466037,0.2099999999999999,-0.4899999999999999,0.07
2133,1782582466104,0.28,-0.56,0.07
2134,1782582466222,0.2099999999999999,-0.56,0.07
2135,1782582466288,0.2099999999999999,-0.56,0.07
2136,1782582466322,0.2099999999999999,-0.56,0.07
2137,1782582466339,0.2099999999999999,-0.4899999999999999,0.07
2138,1782582466354,0.2099999999999999,-0.4899999999999999,0.07
2139,1782582466404,0.2099999999999999,-0.4899999999999999,0.07
2140,1782582466504,0.2099999999999999,-0.4899999999999999,0.07
2141,1782582466554,0.14,-0.4899999999999999,0.07
2142,1782582466587,0.2099999999999999,-0.4899999999999999,0.07
2143,1782582466620,0.2099999999999999,-0.4899999999999999,0.07
2144,1782582466687,0.28,-0.56,0.07
2145,1782582466704,0.28,-0.56,0.07
2146,1782582466720,0.28,-0.56,0.0
2147,1782582466770,0.2099999999999999,-0.56,0.0
2148,1782582466787,0.2099999999999999,-0.56,0.07
2149,1782582466837,0.2099999999999999,-0.56,0.07
2150,1782582466854,0.2099999999999999,-0.56,0.07
2151,1782582466870,0.2099999999999999,-0.4899999999999999,0.07
2152,1782582466903,0.2099999999999999,-0.4899999999999999,0.07
2153,1782582466920,0.2099999999999999,-0.4899999999999999,0.07
2154,1782582466953,0.2099999999999999,-0.4899999999999999,0.07
2155,1782582467004,0.2099999999999999,-0.56,0.0
2156,1782582467070,0.14,-0.56,0.0
2157,1782582467137,0.2099999999999999,-0.56,0.07
2158,1782582467187,0.2099999999999999,-0.56,0.0
2159,1782582467237,0.2099999999999999,-0.56,0.0
2160,1782582467286,0.2099999999999999,-0.56,0.0
2161,1782582467337,0.2099999999999999,-0.56,0.0
2162,1782582467387,0.2099999999999999,-0.4899999999999999,0.0
2163,1782582467420,0.28,-0.4899999999999999,0.07
2164,1782582467437,0.28,-0.4899999999999999,0.07
2165,1782582467470,0.2099999999999999,-0.4899999999999999,0.0
2166,1782582467553,0.2099999999999999,-0.4899999999999999,0.0
2167,1782582467636,0.2099999999999999,-0.4899999999999999,0.07
2168,1782582467670,0.28,-0.4899999999999999,0.0
2169,1782582467719,0.28,-0.4899999999999999,0.0
2170,1782582467753,0.28,-0.4899999999999999,0.0
2171,1782582467886,0.28,-0.4899999999999999,0.0
2172,1782582467920,0.28,-0.4899999999999999,0.0
2173,1782582468003,0.3499999999999999,-0.4899999999999999,0.0
2174,1782582468019,0.28,-0.56,0.07
2175,1782582468036,0.2099999999999999,-0.4899999999999999,0.07
2176,1782582468070,0.28,-0.56,0.07
2177,1782582468153,0.2099999999999999,-0.56,0.07
2178,1782582468385,0.2099999999999999,-0.4899999999999999,0.07
2179,1782582468419,0.2099999999999999,-0.4899999999999999,0.07
2180,1782582468452,0.2099999999999999,-0.4899999999999999,0.07
2181,1782582468469,0.2099999999999999,-0.56,0.07
2182,1782582468502,0.2099999999999999,-0.56,0.07
2183,1782582468569,0.2099999999999999,-0.4899999999999999,0.0
2184,1782582468602,0.2099999999999999,-0.56,0.0
2185,1782582468619,0.2099999999999999,-0.4899999999999999,0.0
2186,1782582468652,0.2099999999999999,-0.56,0.0
2187,1782582468669,0.2099999999999999,-0.56,0.0
2188,1782582468702,0.2099999999999999,-0.4899999999999999,0.0
2189,1782582468802,0.2099999999999999,-0.4899999999999999,0.0
2190,1782582468919,0.28,-0.56,0.0
2191,1782582468952,0.28,-0.56,0.0
2192,1782582468969,0.28,-0.56,0.07
2193,1782582469018,0.2099999999999999,-0.56,0.07
2194,1782582469052,0.2099999999999999,-0.56,0.07
2195,1782582469085,0.2099999999999999,-0.4899999999999999,0.07
2196,1782582469119,0.2099999999999999,-0.56,0.07
2197,1782582469169,0.2099999999999999,-0.56,0.07
2198,1782582469202,0.2099999999999999,-0.56,0.07
2199,1782582469218,0.2099999999999999,-0.56,0.0
2200,1782582469251,0.2099999999999999,-0.56,0.07
2201,1782582469268,0.2099999999999999,-0.56,0.07
2202,1782582469335,0.2099999999999999,-0.4899999999999999,0.07
2203,1782582469435,0.2099999999999999,-0.4899999999999999,0.07
2204,1782582469501,0.2099999999999999,-0.4899999999999999,0.07
2205,1782582469552,0.2099999999999999,-0.4899999999999999,0.07
2206,1782582469601,0.2099999999999999,-0.4899999999999999,0.0
2207,1782582469651,0.2099999999999999,-0.4899999999999999,0.0
2208,1782582469701,0.2099999999999999,-0.56,0.0
2209,1782582469752,0.2099999999999999,-0.56,0.0
2210,1782582469818,0.2099999999999999,-0.56,0.07
2211,1782582469868,0.2099999999999999,-0.56,0.07
2212,1782582469985,0.2099999999999999,-0.56,0.0
2213,1782582470034,0.2099999999999999,-0.56,0.07
2214,1782582470084,0.2099999999999999,-0.4899999999999999,0.0
2215,1782582470151,0.2099999999999999,-0.56,0.0
2216,1782582470251,0.2099999999999999,-0.56,0.0
2217,1782582470317,0.2099999999999999,-0.56,0.07
2218,1782582470350,0.2099999999999999,-0.56,0.14
2219,1782582470367,0.14,-0.56,0.07
2220,1782582470417,0.14,-0.4899999999999999,0.07
2221,1782582470500,0.14,-0.4899999999999999,0.07
2222,1782582470568,0.2099999999999999,-0.4899999999999999,0.07
2223,1782582470617,0.2099999999999999,-0.56,0.0
2224,1782582470700,0.14,-0.56,0.0
2225,1782582470717,0.14,-0.56,0.0
2226,1782582470733,0.14,-0.4899999999999999,0.07
2227,1782582470767,0.14,-0.4899999999999999,0.07
2228,1782582470783,0.2099999999999999,-0.4899999999999999,0.07
2229,1782582470834,0.2099999999999999,-0.4899999999999999,0.07
2230,1782582470916,0.2099999999999999,-0.4199999999999999,0.0
2231,1782582470984,0.2099999999999999,-0.4899999999999999,0.0
2232,1782582471167,0.28,-0.4899999999999999,0.07
2233,1782582471216,0.2099999999999999,-0.63,0.07
2234,1782582471300,0.2099999999999999,-0.63,0.14
2235,1782582471350,0.2099999999999999,-0.63,0.14
2236,1782582471367,0.28,-0.63,0.14
2237,1782582471383,0.2099999999999999,-0.4899999999999999,0.14
2238,1782582471416,0.2099999999999999,-0.4899999999999999,0.07
2239,1782582471466,0.28,-0.56,0.0
2240,1782582471567,0.28,-0.56,0.0
2241,1782582471666,0.28,-0.4899999999999999,0.0
2242,1782582471700,0.28,-0.4899999999999999,0.0
2243,1782582471717,0.28,-0.4899999999999999,0.0
2244,1782582471766,0.2099999999999999,-0.56,0.07
2245,1782582471816,0.2099999999999999,-0.56,0.07
2246,1782582471866,0.2099999999999999,-0.56,0.0
2247,1782582471899,0.2099999999999999,-0.56,0.0
2248,1782582471932,0.2099999999999999,-0.56,0.07
2249,1782582471949,0.28,-0.4899999999999999,0.0
2250,1782582471966,0.28,-0.4899999999999999,0.07
2251,1782582471984,0.28,-0.4899999999999999,0.07
2252,1782582472083,-1.33,-4.76,3.01
2253,1782582472116,-1.33,-4.27,1.89
2254,1782582472166,-1.4,-4.13,0.63
2255,1782582472183,-1.4,0.6999999999999998,-0.91
2256,1782582472199,0.6999999999999998,0.77,-3.08
2257,1782582472234,0.6999999999999998,2.45,-3.43
2258,1782582472283,0.98,4.62,-5.11
2259,1782582472383,2.38,3.29,-3.64
2260,1782582472449,2.38,2.94,-3.64
2261,1782582472466,1.54,-0.2099999999999999,-3.29
2262,1782582472482,1.54,-0.4199999999999999,-3.29
2263,1782582472516,1.54,-3.15,-1.47
2264,1782582472532,1.54,-3.15,-0.91
2265,1782582472583,1.54,-3.15,-0.6999999999999998
2266,1782582472635,2.24,-0.6999999999999998,-5.39
2267,1782582472682,2.45,0.07,-5.39
2268,1782582472716,2.24,0.56,-5.39
2269,1782582472833,2.24,0.77,-5.18
2270,1782582472966,-0.8399999999999999,-0.98,-7.14
2271,1782582473032,-0.8399999999999999,-0.6999999999999998,-7.21
2272,1782582473065,0.07,-0.6999999999999998,-7.349999999999999
2273,1782582473182,1.89,-0.63,-9.52
2274,1782582473249,1.89,-0.63,-9.52
2275,1782582473299,1.89,-0.63,-9.52
2276,1782582473332,-0.4899999999999999,-0.63,-9.52
2277,1782582473515,-0.63,-1.68,-11.69
2278,1782582473548,0.77,-1.68,-11.62
2279,1782582473615,0.77,-0.8399999999999999,-11.62
2280,1782582473632,-1.82,-0.98,-12.25
2281,1782582473682,-1.82,-1.19,-12.67
2282,1782582473765,-1.26,-1.82,-12.74
2283,1782582473799,-0.07,-1.19,-13.23
2284,1782582473881,0.91,-1.19,-13.23
2285,1782582473899,-0.2099999999999999,0.91,-15.12
2286,1782582473965,-0.2099999999999999,0.91,-15.12
2287,1782582473999,-0.2099999999999999,0.91,-15.26
2288,1782582474098,0.77,0.91,-15.12
2289,1782582474131,-0.98,1.26,-15.47
2290,1782582474198,0.77,-0.77,-17.92
2291,1782582474265,0.6999999999999998,-0.98,-17.92
2292,1782582474314,-2.59,-0.4199999999999999,-17.36
2293,1782582474364,-2.59,-0.98,-16.94
2294,1782582474431,-1.54,-0.98,-16.94
2295,1782582474464,-1.54,-0.91,-16.94
2296,1782582474532,3.78,-2.17,-18.9
2297,1782582474614,2.1,-2.17,-19.25
2298,1782582474665,0.2099999999999999,-2.24,-18.9
2299,1782582474714,-0.2099999999999999,-2.24,-19.46
2300,1782582474747,-0.2099999999999999,-2.24,-19.53
2301,1782582474914,-0.91,-1.19,-16.87
2302,1782582474946,-0.91,-1.61,-17.08
2303,1782582474981,-1.12,-1.89,-17.22
2304,1782582475013,-3.29,-6.3,-14.14
2305,1782582475047,-3.29,-4.83,-14.14
2306,1782582475096,-3.22,1.05,-15.47
2307,1782582475180,2.17,1.47,-15.54
2308,1782582475263,-2.17,0.28,-13.09
2309,1782582475330,-1.47,0.28,-12.95
2310,1782582475347,0.07,0.28,-12.53
2311,1782582475413,1.05,0.4899999999999999,-11.69
2312,1782582475430,1.05,0.4899999999999999,-11.34
2313,1782582475463,1.05,-0.2099999999999999,-10.15
2314,1782582475513,1.96,-1.68,4.9
2315,1782582475629,2.24,-0.6999999999999998,6.02
2316,1782582475663,2.24,-1.89,7.63
2317,1782582475713,1.4,-1.89,9.38
2318,1782582475763,-0.4199999999999999,-0.6999999999999998,11.2
2319,1782582475779,-0.4199999999999999,-0.63,12.04
2320,1782582475862,6.23,-0.28,26.46
2321,1782582475935,-2.59,-0.28,27.37
2322,1782582475996,-3.92,-0.28,27.37
2323,1782582476046,4.06,-6.09,36.05
2324,1782582476145,5.25,-6.09,36.05
2325,1782582476245,5.25,-3.22,36.26
2326,1782582476296,0.63,1.19,43.05
2327,1782582476345,0.63,1.19,43.05
2328,1782582476396,-1.82,1.19,42.14
2329,1782582476412,-1.82,1.19,42.07
2330,1782582476429,-1.82,-3.99,41.44
2331,1782582476496,-1.82,-3.99,41.44
2332,1782582476595,-0.28,-2.1,45.5
2333,1782582476646,0.0,-1.75,46.13
2334,1782582476678,2.87,-1.4,46.76
2335,1782582476695,2.87,-0.98,47.18
2336,1782582476729,2.87,-0.63,47.88
2337,1782582476746,0.0,-0.63,48.09
2338,1782582476778,0.0,-0.4899999999999999,48.72
2339,1782582476829,0.0,-0.28,48.72
2340,1782582476961,3.71,-1.68,48.72
2341,1782582477011,3.71,1.89,48.79
2342,1782582477078,3.92,1.89,48.86
2343,1782582477161,3.08,-5.04,51.45
2344,1782582477212,8.96,-5.04,51.45
2345,1782582477261,10.43,-5.04,51.45
2346,1782582477295,10.43,0.28,50.96
2347,1782582477328,8.96,0.28,50.96
2348,1782582477378,5.6,0.28,50.33
2349,1782582477494,1.61,-3.71,53.13
2350,1782582477528,1.61,-3.78,53.06
2351,1782582477578,3.01,0.63,52.36
2352,1782582477628,3.29,1.4,52.29
2353,1782582477661,2.8,-1.61,54.95
2354,1782582477778,3.64,-1.61,54.67
2355,1782582477845,4.2,-1.61,54.46
2356,1782582477894,0.2099999999999999,-0.3499999999999999,53.97
2357,1782582477944,0.63,0.56,53.83
2358,1782582477977,4.9,1.12,53.83
2359,1782582478044,7.63,1.12,53.48
2360,1782582478078,8.12,4.06,53.2
2361,1782582478144,2.31,-2.31,54.81
2362,1782582478228,2.31,-2.59,54.74
2363,1782582478294,2.31,-2.59,54.18
2364,1782582478344,2.31,-2.59,53.97
2365,1782582478377,2.31,-2.59,53.97
2366,1782582478393,3.29,-2.03,53.97
2367,1782582478460,1.05,0.3499999999999999,53.83
2368,1782582478660,0.07,-1.75,51.38
2369,1782582478676,1.96,-0.14,51.73
2370,1782582478710,3.36,0.14,51.94
2371,1782582478760,4.76,0.4199999999999999,51.94
2372,1782582478929,2.45,-5.74,51.8
2373,1782582478977,3.64,-5.74,51.87
2374,1782582479010,4.41,1.82,51.87
2375,1782582479027,3.64,-3.08,52.01
2376,1782582479059,3.64,-1.33,52.36
2377,1782582479076,2.94,1.82,52.78
2378,1782582479126,1.61,-0.4199999999999999,53.13
2379,1782582479177,-0.77,-0.4199999999999999,53.2
2380,1782582479226,-1.4,-0.14,53.62
2381,1782582479293,1.96,-0.07,56.49
2382,1782582479326,2.8,-1.12,56.49
2383,1782582479393,1.96,-3.43,56.42
2384,1782582479426,1.96,-5.04,56.42
2385,1782582479509,7.28,-3.92,54.18
2386,1782582479576,7.28,-3.71,54.04
2387,1782582479593,6.44,-5.6,53.9
2388,1782582479659,6.44,3.57,53.9
2389,1782582479742,5.25,3.57,53.62
2390,1782582479776,1.12,-2.38,53.55
2391,1782582479842,2.45,-2.38,53.55
2392,1782582479892,2.45,1.68,53.55
2393,1782582479926,2.45,1.68,53.55
2394,1782582479959,1.61,2.59,53.2
2395,1782582480060,4.62,0.98,51.17
2396,1782582480159,5.25,1.47,50.19
2397,1782582480225,5.25,2.94,48.51
2398,1782582480259,-2.87,-0.77,49.35
2399,1782582480308,-2.87,-1.82,49.35
