index,date,ACCEL_X,ACCEL_Y,ACCEL_Z,1,2,3,4,5
0,1764700956461,-1793,7945,-100,0,0,0,0,0
1,1764700956776,-1788,7945,-94,0,0,0,0,0
2,1764700956942,-1785,7944,-88,0,0,0,0,0
3,1764700957076,-1789,7953,-99,0,0,0,0,0
4,1764700957192,-1786,7942,-98,0,0,0,0,0
5,1764700957343,-1795,7948,-100,0,0,0,0,0
6,1764700957492,-1784,7948,-98,0,0,0,0,0
7,1764700957676,-1792,7953,-94,0,0,0,0,0
8,1764700957826,-1799,7951,-96,0,0,0,0,0
9,1764700957943,-1793,7945,-90,0,0,0,0,0
10,1764700958143,-1788,7948,-92,0,0,0,0,0
11,1764700958259,-1796,7948,-101,0,0,0,0,0
12,1764700958392,-1785,7946,-91,0,0,0,0,0
13,1764700958510,-1795,7948,-96,0,0,0,0,0
14,1764700958843,-1800,7946,-91,0,0,0,0,0
15,1764700958910,-1790,7944,-91,0,0,0,0,0
16,1764700959093,-1786,7945,-102,0,0,0,0,0
17,1764700959175,-1793,7949,-98,0,0,0,0,0
18,1764700959409,-1797,7950,-102,0,0,0,0,0
19,1764700959508,-1790,7949,-92,0,0,0,0,0
20,1764700959676,-1789,7948,-106,0,0,0,0,0
21,1764700959759,-1791,7948,-85,0,0,0,0,0
22,1764700960009,-1789,7946,-100,0,0,0,0,0
23,1764700960059,-1795,7948,-93,0,0,0,0,0
24,1764700960242,-1787,7952,-103,0,0,0,0,0
25,1764700960309,-1791,7943,-97,0,0,0,0,0
26,1764700960559,-1796,7947,-90,0,0,0,0,0
27,1764700960709,-1796,7940,-90,0,0,0,0,0
28,1764700960843,-1792,7951,-96,0,0,0,0,0
29,1764700960959,-1790,7947,-95,0,0,0,0,0
30,1764700961192,-1796,7950,-99,0,0,0,0,0
31,1764700961260,-1793,7944,-88,0,0,0,0,0
32,1764700961409,-1790,7944,-108,0,0,0,0,0
33,1764700961526,-1792,7939,-92,0,0,0,0,0
34,1764700961759,-1788,7948,-97,0,0,0,0,0
35,1764700961859,-1793,7951,-82,0,0,0,0,0
36,1764700962060,-1789,7950,-96,0,0,0,0,0
37,1764700962109,-1791,7945,-96,0,0,0,0,0
38,1764700962342,-1790,7947,-100,0,0,0,0,0
39,1764700962442,-1793,7944,-89,0,0,0,0,0
40,1764700962575,-1783,7941,-96,0,0,0,0,0
41,1764700962776,-1794,7946,-101,0,0,0,0,0
42,1764700963009,-1797,7949,-95,0,0,0,0,0
43,1764700963242,-1782,7944,-102,0,0,0,0,0
44,1764700963326,-1798,7948,-94,0,0,0,0,0
45,1764700963560,-1797,7942,-105,0,0,0,0,0
46,1764700963809,-1793,7959,-92,0,0,0,0,0
47,1764700963926,-1790,7950,-104,0,0,0,0,0
48,1764700964159,-1793,7941,-98,0,0,0,0,0
49,1764700964242,-1797,7942,-105,0,0,0,0,0
50,1764700964425,-1792,7947,-102,0,0,0,0,0
51,1764700964526,-1787,7946,-95,0,0,0,0,0
52,1764700964826,-1787,7938,-108,0,0,0,0,0
53,1764700965075,-1791,7951,-92,0,0,0,0,0
54,1764700965193,-1799,7947,-95,0,0,0,0,0
55,1764700965393,-1797,7950,-94,0,0,0,0,0
56,1764700965459,-1793,7944,-96,0,0,0,0,0
57,1764700965642,-1790,7948,-94,0,0,0,0,0
58,1764700965809,-1788,7948,-101,0,0,0,0,0
59,1764700965992,-1790,7946,-95,0,0,0,0,0
60,1764700966042,-1792,7945,-90,0,0,0,0,0
61,1764700966242,-1795,7949,-96,0,0,0,0,0
62,1764700966342,-1796,7945,-94,0,0,0,0,0
63,1764700966559,-1789,7942,-89,0,0,0,0,0
64,1764700966792,-1785,7952,-94,0,0,0,0,0
65,1764700966959,-1785,7942,-95,0,0,0,0,0
66,1764700967226,-1796,7945,-96,0,0,0,0,0
67,1764700967442,-1792,7957,-99,0,0,0,0,0
68,1764700967525,-1800,7948,-105,0,0,0,0,0
69,1764700967825,-1788,7950,-92,0,0,0,0,0
70,1764700968025,-1797,7948,-97,0,0,0,0,0
71,1764700968143,-1790,7944,-98,0,0,0,0,0
72,1764700968342,-1795,7938,-96,0,0,0,0,0
73,1764700968376,-1790,7948,-92,0,0,0,0,0
74,1764700968592,-1783,7946,-94,0,0,0,0,0
75,1764700968827,-1789,7954,-93,0,0,0,0,0
76,1764700969093,-1792,7941,-95,0,0,0,0,0
77,1764700969225,-1786,7949,-98,0,0,0,0,0
78,1764700969377,-1791,7952,-100,0,0,0,0,0
79,1764700969592,-1788,7949,-94,0,0,0,0,0
80,1764700969792,-1792,7946,-98,0,0,0,0,0
81,1764700969926,-1539,7949,-99,0,0,0,0,0
82,1764700970175,-1791,7946,-99,0,0,0,0,0
83,1764700970392,-1790,7942,-108,0,0,0,0,0
84,1764700970459,-1784,7940,-98,0,0,0,0,0
85,1764700971027,-1781,7946,-89,0,0,0,0,0
86,1764700971075,-1789,7951,-95,0,0,0,0,0
87,1764700971276,-1792,7943,-97,0,0,0,0,0
88,1764700971359,-1791,7948,-98,0,0,0,0,0
89,1764700971576,-1789,7957,-97,0,0,0,0,0
90,1764700971642,-1790,7947,-94,0,0,0,0,0
91,1764700971892,-1798,7949,-96,0,0,0,0,0
92,1764700972110,-1784,7941,-98,0,0,0,0,0
93,1764700972226,-1790,7952,-94,0,0,0,0,0
94,1764700972392,-1786,7946,-92,0,0,0,0,0
95,1764700972458,-1795,7946,-96,0,0,0,0,0
96,1764700972643,-1791,7952,-96,0,0,0,0,0
97,1764700972775,-1793,7950,-104,0,0,0,0,0
98,1764700973042,-1803,7948,-101,0,0,0,0,0
99,1764700973242,-1789,7948,-98,0,0,0,0,0
100,1764700973409,-1797,7950,-98,0,0,0,0,0
101,1764700973525,-1786,7944,-94,0,0,0,0,0
102,1764700973659,-1788,7948,-98,0,0,0,0,0
103,1764700973725,-1785,7942,-93,0,0,0,0,0
104,1764700973942,-1785,7949,-103,0,0,0,0,0
105,1764700974042,-1800,7949,-101,0,0,0,0,0
106,1764700974292,-1795,7951,-97,0,0,0,0,0
107,1764700974426,-1782,7951,-95,0,0,0,0,0
108,1764700974609,-1795,7953,-93,0,0,0,0,0
109,1764700974709,-1799,7946,-94,0,0,0,0,0
110,1764700974909,-1794,7942,-92,0,0,0,0,0
111,1764700975093,-1800,7943,-93,0,0,0,0,0
112,1764700975275,-1788,7955,-102,0,0,0,0,0
113,1764700975442,-1800,7947,-87,0,0,0,0,0
114,1764700975559,-1798,7956,-102,0,0,0,0,0
115,1764700975709,-1792,7950,-99,0,0,0,0,0
116,1764700975876,-1794,7946,-92,0,0,0,0,0
117,1764700976042,-1794,7949,-96,0,0,0,0,0
118,1764700976175,-1787,7948,-87,0,0,0,0,0
119,1764700976326,-1796,7951,-106,0,0,0,0,0
120,1764700976493,-1796,7959,-101,0,0,0,0,0
121,1764700976709,-1788,7954,-105,0,0,0,0,0
122,1764700976809,-1792,7948,-94,0,0,0,0,0
123,1764700976959,-1789,7948,-96,0,0,0,0,0
124,1764700977092,-1795,7945,-98,0,0,0,0,0
125,1764700977259,-1790,7952,-103,0,0,0,0,0
126,1764700977475,-1796,7948,-94,0,0,0,0,0
127,1764700977725,-1797,7945,-91,0,0,0,0,0
128,1764700977809,-1790,7947,-93,0,0,0,0,0
129,1764700978009,-1795,7950,-99,0,0,0,0,0
130,1764700978075,-1788,7943,-113,0,0,0,0,0
131,1764700978309,-1780,7951,-104,0,0,0,0,0
132,1764700978392,-1790,7950,-96,0,0,0,0,0
133,1764700978609,-1794,7940,-100,0,0,0,0,0
134,1764700978693,-1788,7948,-88,0,0,0,0,0
135,1764700978925,-1787,7945,-108,0,0,0,0,0
136,1764700978976,-1792,7955,-97,0,0,0,0,0
137,1764700979175,-1794,7946,-102,0,0,0,0,0
138,1764700979275,-1798,7951,-84,0,0,0,0,0
139,1764700979509,-1794,7931,-94,0,0,0,0,0
140,1764700979675,-1766,7974,-86,0,0,0,0,0
141,1764700979992,-1814,7942,-118,0,0,0,0,0
142,1764700980192,-1796,7950,-94,0,0,0,0,0
143,1764700980259,-1782,7937,-88,0,0,0,0,0
144,1764700980492,-1782,7955,-100,0,0,0,0,0
145,1764700980575,-1781,7949,-91,0,0,0,0,0
146,1764700980776,-1797,7930,-96,0,0,0,0,0
147,1764700980875,-1806,7950,-100,0,0,0,0,0
148,1764700981109,-1784,7945,-94,0,0,0,0,0
149,1764700981192,-1790,7956,-101,0,0,0,0,0
150,1764700981375,-1786,7940,-96,0,0,0,0,0
151,1764700981475,-1802,7942,-93,0,0,0,0,0
152,1764700981709,-1798,7941,-104,0,0,0,0,0
153,1764700981775,-1790,7952,-105,0,0,0,0,0
154,1764700982092,-1788,7952,-98,0,0,0,0,0
155,1764700982159,-1804,7942,-88,0,0,0,0,0
156,1764700982259,-1794,7949,-104,0,0,0,0,0
157,1764700982392,-1794,7943,-86,0,0,0,0,0
158,1764700982558,-1802,7948,-86,0,0,0,0,0
159,1764700982707,-1778,7946,-105,0,0,0,0,0
160,1764700982957,-1790,7944,-93,0,0,0,0,0
161,1764700983077,-1787,7946,-102,0,0,0,0,0
162,1764700983292,-1785,7952,-106,0,0,0,0,0
163,1764700983542,-1789,7950,-94,0,0,0,0,0
164,1764700983609,-1796,7940,-107,0,0,0,0,0
165,1764700983842,-1791,7944,-100,0,0,0,0,0
166,1764700984193,-1793,7949,-104,0,0,0,0,0
167,1764700984326,-1794,7946,-113,0,0,0,0,0
168,1764700984510,-1790,7948,-96,0,0,0,0,0
169,1764700984575,-1800,7953,-100,0,0,0,0,0
170,1764700984760,-1784,7952,-98,0,0,0,0,0
171,1764700984875,-1786,7948,-114,0,0,0,0,0
172,1764700985092,-1794,7943,-96,0,0,0,0,0
173,1764700985158,-1785,7943,-103,0,0,0,0,0
174,1764700985359,-1786,7946,-94,0,0,0,0,0
175,1764700985508,-1785,7954,-101,0,0,0,0,0
176,1764700985676,-1793,7947,-98,0,0,0,0,0
177,1764700985791,-1786,7943,-89,0,0,0,0,0
178,1764700985942,-1789,7951,-112,0,0,0,0,0
179,1764700986208,-1790,7949,-94,0,0,0,0,0
180,1764700986425,-1801,7944,-104,0,0,0,0,0
181,1764700986575,-1782,7950,-98,0,0,0,0,0
182,1764700986742,-1789,7940,-98,0,0,0,0,0
183,1764700987025,-1790,7947,-95,0,0,0,0,0
184,1764700987174,-1790,7953,-96,0,0,0,0,0
185,1764700987375,-1794,7946,-102,0,0,0,0,0
186,1764700987625,-1791,7945,-106,0,0,0,0,0
187,1764700987742,-1790,7948,-99,0,0,0,0,0
188,1764700987909,-1797,7948,-94,0,0,0,0,0
189,1764700988325,-1794,7935,-92,0,0,0,0,0
190,1764700988426,-1792,7936,-94,0,0,0,0,0
191,1764700988642,-1787,7937,-92,0,0,0,0,0
192,1764700988692,-1799,7945,-102,0,0,0,0,0
193,1764700988908,-1776,7948,-96,0,0,0,0,0
194,1764700988975,-1793,7951,-86,0,0,0,0,0
195,1764700989241,-1790,7947,-91,0,0,0,0,0
196,1764700989491,-1802,7946,-92,0,0,0,0,0
197,1764700989541,-1789,7942,-90,0,0,0,0,0
198,1764700989775,-1794,7944,-88,0,0,0,0,0
199,1764700990025,-1794,7940,-91,0,0,0,0,0
200,1764700990209,-1778,7947,-90,0,0,0,0,0
201,1764700990492,-1789,7946,-96,0,0,0,0,0
202,1764700990708,-1782,7948,-99,0,0,0,0,0
203,1764700990776,-1793,7948,-97,0,0,0,0,0
204,1764700991041,-1806,7936,-94,0,0,0,0,0
205,1764700991292,-1802,7952,-104,0,0,0,0,0
206,1764700991391,-1788,7942,-93,0,0,0,0,0
207,1764700991625,-1790,7944,-102,0,0,0,0,0
208,1764700991860,-1804,7944,-110,0,0,0,0,0
209,1764700991959,-1788,7955,-102,0,0,0,0,0
210,1764700992193,-1786,7951,-101,0,0,0,0,0
211,1764700992508,-1801,7948,-94,0,0,0,0,0
212,1764700992592,-1787,7960,-93,0,0,0,0,0
213,1764700992759,-1800,7946,-99,0,0,0,0,0
214,1764700992858,-1787,7951,-101,0,0,0,0,0
215,1764700993075,-1794,7941,-106,0,0,0,0,0
216,1764700993159,-1790,7946,-96,0,0,0,0,0
217,1764700993326,-1797,7946,-99,0,0,0,0,0
218,1764700993409,-1784,7951,-99,0,0,0,0,0
219,1764700993675,-1802,7946,-102,0,0,0,0,0
220,1764700993725,-1792,7947,-96,0,0,0,0,0
221,1764700993909,-1802,7948,-114,0,0,0,0,0
222,1764700993992,-1782,7954,-108,0,0,0,0,0
223,1764700994292,-1788,7944,-108,0,0,0,0,0
224,1764700994408,-1800,7951,-112,0,0,0,0,0
225,1764700994559,-1795,7948,-84,0,0,0,0,0
226,1764700994675,-1785,7944,-104,0,0,0,0,0
227,1764700994876,-1780,7944,-98,0,0,0,0,0
228,1764700994975,-1786,7946,-86,0,0,0,0,0
229,1764700995126,-1787,7948,-105,0,0,0,0,0
230,1764700995225,-1781,7948,-102,0,0,0,0,0
231,1764700995475,-1799,7957,-99,0,0,0,0,0
232,1764700995541,-1791,7946,-113,0,0,0,0,0
233,1764700995708,-1786,7954,-107,0,0,0,0,0
234,1764700995792,-1796,7950,-102,0,0,0,0,0
235,1764700996026,-1806,7944,-94,0,0,0,0,0
236,1764700996108,-1794,7944,-102,0,0,0,0,0
237,1764700996342,-1781,7951,-98,0,0,0,0,0
238,1764700996625,-1796,7959,-109,0,0,0,0,0
239,1764700996708,-1796,7941,-100,0,0,0,0,0
240,1764700996892,-1786,7940,-93,0,0,0,0,0
241,1764700996975,-1789,7942,-91,0,0,0,0,0
242,1764700997208,-1786,7948,-96,0,0,0,0,0
243,1764700997309,-1787,7943,-91,0,0,0,0,0
244,1764700997492,-1775,7934,-87,0,0,0,0,0
245,1764700997575,-1810,7967,-120,0,0,0,0,0
246,1764700997825,-1740,7963,-56,0,0,0,0,0
247,1764700997875,-1818,7944,-68,0,0,0,0,0
248,1764700998059,-1813,7940,-134,0,0,0,0,0
249,1764700998126,-1812,7950,-136,0,0,0,0,0
250,1764700998459,-1750,7964,-113,0,0,0,0,0
251,1764700998558,-1802,7936,-136,0,0,0,0,0
252,1764700998708,-1794,7949,-87,0,0,0,0,0
253,1764700998842,-1806,7953,-91,0,0,0,0,0
254,1764700999025,-1760,7953,-119,0,0,0,0,0
255,1764700999158,-2036,7945,-80,0,0,0,0,0
256,1764700999292,-1788,7937,-62,0,0,0,0,0
257,1764700999442,-1819,7941,-140,0,0,0,0,0
258,1764700999625,-1776,7958,-102,0,0,0,0,0
259,1764700999725,-1784,7946,-118,0,0,0,0,0
260,1764700999892,-1798,7944,-85,0,0,0,0,0
261,1764701000025,-1804,7933,-99,0,0,0,0,0
262,1764701000225,-1794,7941,-98,0,0,0,0,0
263,1764701000525,-1834,7902,-85,0,0,0,0,0
264,1764701000775,-1790,7948,-90,0,0,0,0,0
265,1764701000842,-1810,7953,-110,0,0,0,0,0
266,1764701001025,-1854,7898,-12,0,0,0,0,0
267,1764701001108,-1846,7916,-39,0,0,0,0,0
268,1764701001342,-1836,7908,-144,0,0,0,0,0
269,1764701001442,-1744,8007,-35,0,0,0,0,0
270,1764701001642,-2121,7729,-16,0,0,0,0,0
271,1764701001726,-2217,7724,-375,0,0,0,0,0
272,1764701001958,-1646,7974,-678,0,0,0,0,0
273,1764701002009,-1698,7554,26,0,0,0,0,0
274,1764701002225,-1731,7882,-74,0,0,0,0,0
275,1764701002459,-1876,7996,223,0,0,0,0,0
276,1764701002608,-1635,8024,-335,0,0,0,0,0
277,1764701002742,-1596,8307,246,0,0,0,0,0
278,1764701002875,-1880,7879,-205,0,0,0,0,0
279,1764701003058,-1750,8227,-150,0,0,0,0,0
280,1764701003191,-1598,7734,-217,0,0,0,0,0
281,1764701003441,-1820,8112,-191,0,0,0,0,0
282,1764701003625,-1557,7690,-115,0,0,0,0,0
283,1764701003775,-1962,7834,-210,0,0,0,0,0
284,1764701004026,-1622,8082,-339,0,0,0,0,0
285,1764701004225,-1930,7847,-100,0,0,0,0,0
286,1764701004426,-1634,7962,-550,0,0,0,0,0
287,1764701004658,-1887,8177,-270,0,0,0,0,0
288,1764701004892,-1855,7799,-27,0,0,0,0,0
289,1764701004975,-2100,7628,72,0,0,0,0,0
290,1764701005175,-1915,8240,-167,0,0,0,0,0
291,1764701005242,-1811,8025,-365,0,0,0,0,0
292,1764701005508,-1791,8166,-98,0,0,0,0,0
293,1764701005575,-1529,7956,-219,0,0,0,0,0
294,1764701005825,-1773,7882,-337,0,0,0,0,0
295,1764701005975,-1928,7956,-114,0,0,0,0,0
296,1764701006125,-1671,7947,-220,0,0,0,0,0
297,1764701006375,-1730,7618,-217,0,0,0,0,0
298,1764701006575,-1916,7691,-498,0,0,0,0,0
299,1764701006759,-1816,7711,32,0,0,0,0,0
300,1764701007008,-1807,7611,-72,0,0,0,0,0
301,1764701007093,-1722,7990,-402,0,0,0,0,0
302,1764701007311,-1678,8304,10,0,0,0,0,0
303,1764701007426,-1721,7970,-18,0,0,0,0,0
304,1764701007509,-1976,7569,-204,0,0,0,0,0
305,1764701007658,-1845,8041,-132,0,0,0,0,0
306,1764701007824,-1895,7948,110,0,0,0,0,0
307,1764701007974,-1671,8060,-230,0,0,0,0,0
308,1764701008209,-1788,7869,-290,0,0,0,0,0
309,1764701008275,-1574,7892,-294,0,0,0,0,0
310,1764701008591,-1798,8002,318,0,0,0,0,0
311,1764701008858,-1888,7700,-442,0,0,0,0,0
312,1764701008959,-1929,8040,-189,0,0,0,0,0
313,1764701357538,-1797,7944,545,0,0,0,0,0
314,1764701357657,-1880,8013,-535,0,0,0,0,0
315,1764701357922,-1710,8088,262,0,0,0,0,0
316,1764701358171,-1895,7500,442,0,0,0,0,0
317,1764701358306,-1736,7505,-59,0,0,0,0,0
318,1764701358460,-1636,8294,-116,0,0,0,0,0
319,1764701358604,-1656,8399,131,0,0,0,0,0
320,1764701358803,-2016,7581,-142,0,0,0,0,0
321,1764701358906,-1924,7927,429,0,0,0,0,0
322,1764701359158,-1760,8418,-63,0,0,0,0,0
323,1764701359273,-1697,7792,-3,0,0,0,0,0
324,1764701359487,-1706,7483,-126,0,0,0,0,0
325,1764701359621,-1805,8363,-227,0,0,0,0,0
326,1764701359787,-1818,7524,17,0,0,0,0,0
327,1764701359937,-2016,7985,-72,0,0,0,0,0
328,1764701360170,-1862,7838,-149,0,0,0,0,0
329,1764701360422,-1482,8231,97,0,0,0,0,0
330,1764701360587,-1674,7922,-816,0,0,0,0,0
331,1764701360737,-1815,7934,-117,0,0,0,0,0
332,1764701361003,-1980,7795,19,0,0,0,0,0
333,1764701361103,-1873,7575,129,0,0,0,0,0
334,1764701361320,-2105,7502,144,0,0,0,0,0
335,1764701361587,-1660,7940,186,0,0,0,0,0
336,1764701361726,-1463,7948,144,0,0,0,0,0
337,1764701361904,-1575,8328,-292,0,0,0,0,0
338,1764701362070,-1774,8311,-38,0,0,0,0,0
339,1764701362204,-1784,8268,34,0,0,0,0,0
340,1764701362487,-1608,8069,-693,0,0,0,0,0
341,1764701362557,-1844,8106,157,0,0,0,0,0
342,1764701362688,-1680,8083,-285,0,0,0,0,0
343,1764701362804,-1823,7758,-176,0,0,0,0,0
344,1764701362954,-1798,7779,16,0,0,0,0,0
345,1764701363137,-1870,7914,-1,0,0,0,0,0
346,1764701363388,-1722,7947,-280,0,0,0,0,0
347,1764701363522,-1969,7710,-315,0,0,0,0,0
348,1764701363706,-1918,7943,-161,0,0,0,0,0
349,1764701363959,-1924,7917,-172,0,0,0,0,0
350,1764701364087,-1854,7693,-277,0,0,0,0,0
351,1764701364354,-1869,7804,-68,0,0,0,0,0
352,1764701364537,-1852,7987,-70,0,0,0,0,0
353,1764701364620,-1955,7948,-60,0,0,0,0,0
354,1764701364854,-1719,7912,-151,0,0,0,0,0
355,1764701364937,-1742,8055,-158,0,0,0,0,0
356,1764701365121,-1815,7844,-232,0,0,0,0,0
357,1764701365187,-1879,7895,-54,0,0,0,0,0
358,1764701365438,-1751,7911,-130,0,0,0,0,0
359,1764701365528,-1742,7967,-58,0,0,0,0,0
360,1764701365723,-1810,7947,-101,0,0,0,0,0
361,1764701365776,-1781,7936,-52,0,0,0,0,0
362,1764701366037,-1791,7923,-176,0,0,0,0,0
363,1764701366270,-1756,7938,-90,0,0,0,0,0
364,1764701366438,-2041,7982,-88,0,0,0,0,0
365,1764701366654,-1819,7956,-86,0,0,0,0,0
366,1764701366887,-1793,7945,-94,0,0,0,0,0
367,1764701366986,-1792,7937,-100,0,0,0,0,0
368,1764701367186,-1786,7938,-79,0,0,0,0,0
369,1764701367304,-1789,7946,-85,0,0,0,0,0
370,1764701367470,-1794,7944,-104,0,0,0,0,0
371,1764701367571,-1789,7950,-84,0,0,0,0,0
372,1764701367770,-1811,7938,-93,0,0,0,0,0
373,1764701367889,-1782,7942,-92,0,0,0,0,0
374,1764701368074,-1792,7945,-93,0,0,0,0,0
375,1764701368154,-1784,7941,-86,0,0,0,0,0
376,1764701368487,-1790,7943,-92,0,0,0,0,0
377,1764701368571,-1781,7955,-74,0,0,0,0,0
378,1764701368738,-1784,7944,-90,0,0,0,0,0
379,1764701368870,-1801,7942,-93,0,0,0,0,0
380,1764701369055,-1788,7947,-88,0,0,0,0,0
381,1764701369304,-1786,7943,-98,0,0,0,0,0
382,1764701369454,-1799,7942,-95,0,0,0,0,0
383,1764701369638,-1805,7946,-94,0,0,0,0,0
384,1764701369738,-1752,7979,-107,0,0,0,0,0
385,1764701369904,-1780,7949,-79,0,0,0,0,0
386,1764701370037,-1788,7946,-69,0,0,0,0,0
387,1764701370337,-1684,7960,-56,0,0,0,0,0
388,1764701370554,-1838,8004,-228,0,0,0,0,0
389,1764701370738,-1799,7919,-112,0,0,0,0,0
390,1764701371021,-1644,8138,-328,0,0,0,0,0
391,1764701371121,-1881,7608,-403,0,0,0,0,0
392,1764701371321,-1591,8086,445,0,0,0,0,0
393,1764701371621,-1773,7849,-80,0,0,0,0,0
394,1764701371721,-1798,7548,39,0,0,0,0,0
395,1764701371937,-1539,7866,-484,0,0,0,0,0
396,1764701372171,-1840,7783,-84,0,0,0,0,0
397,1764701372304,-1820,7626,-717,0,0,0,0,0
398,1764701372570,-1640,7849,-504,0,0,0,0,0
399,1764701372605,-1766,8056,-251,0,0,0,0,0
400,1764701372787,-1633,8030,-528,0,0,0,0,0
401,1764701372921,-1619,8336,293,0,0,0,0,0
402,1764701373087,-1678,8120,439,0,0,0,0,0
403,1764701373171,-1622,8204,-680,0,0,0,0,0
404,1764701373321,-1757,8022,-450,0,0,0,0,0
405,1764701373521,-1439,7951,-490,0,0,0,0,0
406,1764701373637,-1744,7489,-94,0,0,0,0,0
407,1764701373770,-1875,7999,-58,0,0,0,0,0
408,1764701373920,-1738,7672,52,0,0,0,0,0
409,1764701374087,-1744,8265,-344,0,0,0,0,0
410,1764701374237,-1805,7725,-185,0,0,0,0,0
411,1764701374504,-1841,8126,-261,0,0,0,0,0
412,1764701374721,-1437,8205,459,0,0,0,0,0
413,1764701374904,-1764,8127,-494,0,0,0,0,0
414,1764701374970,-1806,7426,-761,0,0,0,0,0
415,1764701375154,-1898,8446,-308,0,0,0,0,0
416,1764701375287,-2023,8100,123,0,0,0,0,0
417,1764701375487,-2094,7794,398,0,0,0,0,0
418,1764701375538,-1808,8198,61,0,0,0,0,0
419,1764701375737,-1736,8100,-578,0,0,0,0,0
420,1764701375887,-1691,8201,-150,0,0,0,0,0
421,1764701376054,-1924,7896,417,0,0,0,0,0
422,1764701376138,-1797,7884,356,0,0,0,0,0
423,1764701376287,-1771,8051,-321,0,0,0,0,0
424,1764701376537,-1948,7824,-20,0,0,0,0,0
425,1764701376787,-1855,7982,11,0,0,0,0,0
426,1764701376954,-1811,8190,-38,0,0,0,0,0
427,1764701377104,-1723,8249,-88,0,0,0,0,0
428,1764701377354,-1805,7923,215,0,0,0,0,0
429,1764701377503,-1690,8058,-135,0,0,0,0,0
430,1764701377838,-1627,7984,-118,0,0,0,0,0
431,1764701377921,-1788,7956,16,0,0,0,0,0
432,1764701378087,-1774,7918,-213,0,0,0,0,0
433,1764701378237,-1961,7965,231,0,0,0,0,0
434,1764701378504,-1767,7991,68,0,0,0,0,0
435,1764701378754,-1740,7922,-132,0,0,0,0,0
436,1764701378887,-1694,8132,76,0,0,0,0,0
437,1764701379137,-1698,7890,-166,0,0,0,0,0
438,1764701379304,-1725,8024,-89,0,0,0,0,0
439,1764701379454,-1905,7977,-64,0,0,0,0,0
440,1764701379704,-1763,7914,-198,0,0,0,0,0
441,1764701379870,-1737,7918,-102,0,0,0,0,0
442,1764701380037,-1783,7973,-99,0,0,0,0,0
443,1764701380154,-1775,7962,-58,0,0,0,0,0
444,1764701380287,-1794,7936,-107,0,0,0,0,0
445,1764701380387,-1765,7966,-62,0,0,0,0,0
446,1764701380671,-1786,7946,-110,0,0,0,0,0
447,1764701380937,-1806,7949,-92,0,0,0,0,0
448,1764701381120,-1806,7950,-88,0,0,0,0,0
449,1764701381254,-1797,7939,-68,0,0,0,0,0
