index,date,GYRO_X,GYRO_Y,GYRO_Z,1,2,3,4,5
0,1764700956526,6,-8,-1,0,0,0,0,0
1,1764700956776,5,-8,0,0,0,0,0,0
2,1764700956976,7,-9,0,0,0,0,0,0
3,1764700957093,5,-9,0,0,0,0,0,0
4,1764700957260,5,-7,-1,0,0,0,0,0
5,1764700957359,4,-10,-1,0,0,0,0,0
6,1764700957542,5,-8,0,0,0,0,0,0
7,1764700957693,4,-9,0,0,0,0,0,0
8,1764700957859,4,-9,0,0,0,0,0,0
9,1764700957960,5,-10,-2,0,0,0,0,0
10,1764700958176,3,-9,-1,0,0,0,0,0
11,1764700958276,4,-10,-2,0,0,0,0,0
12,1764700958459,7,-9,1,0,0,0,0,0
13,1764700958526,5,-9,-1,0,0,0,0,0
14,1764700958859,7,-10,-2,0,0,0,0,0
15,1764700958942,7,-8,0,0,0,0,0,0
16,1764700959109,5,-8,-1,0,0,0,0,0
17,1764700959242,6,-9,-1,0,0,0,0,0
18,1764700959426,5,-9,-1,0,0,0,0,0
19,1764700959676,4,-8,0,0,0,0,0,0
20,1764700959809,4,-9,0,0,0,0,0,0
21,1764700960009,4,-9,0,0,0,0,0,0
22,1764700960109,5,-10,0,0,0,0,0,0
23,1764700960276,5,-9,-1,0,0,0,0,0
24,1764700960359,5,-9,0,0,0,0,0,0
25,1764700960659,4,-8,-1,0,0,0,0,0
26,1764700960908,3,-9,-1,0,0,0,0,0
27,1764700960992,6,-9,0,0,0,0,0,0
28,1764700961225,3,-9,1,0,0,0,0,0
29,1764700961459,5,-10,0,0,0,0,0,0
30,1764700961542,7,-10,-1,0,0,0,0,0
31,1764700961792,7,-8,-1,0,0,0,0,0
32,1764700961876,4,-10,-1,0,0,0,0,0
33,1764700962076,4,-9,-1,0,0,0,0,0
34,1764700962176,5,-10,0,0,0,0,0,0
35,1764700962392,5,-8,1,0,0,0,0,0
36,1764700962642,5,-9,-1,0,0,0,0,0
37,1764700962810,6,-9,0,0,0,0,0,0
38,1764700963026,6,-8,-2,0,0,0,0,0
39,1764700963076,5,-8,0,0,0,0,0,0
40,1764700963292,5,-9,-1,0,0,0,0,0
41,1764700963360,6,-9,0,0,0,0,0,0
42,1764700963592,5,-8,0,0,0,0,0,0
43,1764700963875,4,-9,1,0,0,0,0,0
44,1764700963975,5,-10,-1,0,0,0,0,0
45,1764700964192,4,-9,-1,0,0,0,0,0
46,1764700964259,5,-8,0,0,0,0,0,0
47,1764700964460,5,-8,0,0,0,0,0,0
48,1764700964559,4,-9,-2,0,0,0,0,0
49,1764700964961,5,-8,0,0,0,0,0,0
50,1764700965092,6,-8,0,0,0,0,0,0
51,1764700965242,6,-9,0,0,0,0,0,0
52,1764700965410,5,-9,0,0,0,0,0,0
53,1764700965509,5,-9,-1,0,0,0,0,0
54,1764700965661,5,-11,-1,0,0,0,0,0
55,1764700965859,5,-10,0,0,0,0,0,0
56,1764700966093,5,-8,-1,0,0,0,0,0
57,1764700966259,5,-8,0,0,0,0,0,0
58,1764700966392,6,-8,0,0,0,0,0,0
59,1764700966592,6,-9,0,0,0,0,0,0
60,1764700966842,4,-9,0,0,0,0,0,0
61,1764700966992,4,-8,-2,0,0,0,0,0
62,1764700967142,4,-9,0,0,0,0,0,0
63,1764700967276,6,-9,0,0,0,0,0,0
64,1764700967459,5,-9,-1,0,0,0,0,0
65,1764700967575,4,-8,0,0,0,0,0,0
66,1764700967875,5,-8,-1,0,0,0,0,0
67,1764700968043,5,-9,0,0,0,0,0,0
68,1764700968176,5,-9,-1,0,0,0,0,0
69,1764700968358,5,-9,0,0,0,0,0,0
70,1764700968442,5,-9,-1,0,0,0,0,0
71,1764700968625,4,-9,-1,0,0,0,0,0
72,1764700968875,4,-10,-1,0,0,0,0,0
73,1764700969125,5,-9,0,0,0,0,0,0
74,1764700969258,4,-9,0,0,0,0,0,0
75,1764700969442,6,-8,-1,0,0,0,0,0
76,1764700969642,6,-8,-1,0,0,0,0,0
77,1764700969810,6,-9,-1,0,0,0,0,0
78,1764700969975,6,-8,-1,0,0,0,0,0
79,1764700970092,5,-9,-1,0,0,0,0,0
80,1764700970208,4,-10,0,0,0,0,0,0
81,1764700970392,5,-9,0,0,0,0,0,0
82,1764700970526,5,-9,0,0,0,0,0,0
83,1764700970743,5,-10,0,0,0,0,0,0
84,1764700971027,5,-8,0,0,0,0,0,0
85,1764700971142,5,-8,0,0,0,0,0,0
86,1764700971292,5,-9,0,0,0,0,0,0
87,1764700971409,6,-9,-1,0,0,0,0,0
88,1764700971593,4,-10,-1,0,0,0,0,0
89,1764700971676,3,-8,-2,0,0,0,0,0
90,1764700971909,4,-8,-1,0,0,0,0,0
91,1764700972160,3,-8,-1,0,0,0,0,0
92,1764700972226,5,-8,-1,0,0,0,0,0
93,1764700972492,3,-9,0,0,0,0,0,0
94,1764700972692,6,-9,-1,0,0,0,0,0
95,1764700972825,5,-9,-1,0,0,0,0,0
96,1764700973092,4,-8,0,0,0,0,0,0
97,1764700973276,6,-9,0,0,0,0,0,0
98,1764700973426,6,-8,0,0,0,0,0,0
99,1764700973577,4,-8,0,0,0,0,0,0
100,1764700973676,6,-9,-1,0,0,0,0,0
101,1764700973760,4,-9,0,0,0,0,0,0
102,1764700973975,5,-9,0,0,0,0,0,0
103,1764700974076,6,-8,-2,0,0,0,0,0
104,1764700974309,5,-8,0,0,0,0,0,0
105,1764700974476,6,-9,0,0,0,0,0,0
106,1764700974609,6,-10,1,0,0,0,0,0
107,1764700974742,5,-10,-1,0,0,0,0,0
108,1764700974809,3,-10,-1,0,0,0,0,0
109,1764700974909,5,-9,-1,0,0,0,0,0
110,1764700975158,7,-9,0,0,0,0,0,0
111,1764700975292,6,-9,-1,0,0,0,0,0
112,1764700975475,5,-9,0,0,0,0,0,0
113,1764700975592,5,-8,-1,0,0,0,0,0
114,1764700975742,6,-9,-1,0,0,0,0,0
115,1764700975892,5,-8,0,0,0,0,0,0
116,1764700976076,5,-9,0,0,0,0,0,0
117,1764700976192,6,-9,-1,0,0,0,0,0
118,1764700976392,4,-8,0,0,0,0,0,0
119,1764700976542,5,-9,-1,0,0,0,0,0
120,1764700976742,5,-9,0,0,0,0,0,0
121,1764700976825,5,-10,0,0,0,0,0,0
122,1764700977009,5,-9,-1,0,0,0,0,0
123,1764700977043,5,-7,-1,0,0,0,0,0
124,1764700977108,5,-10,0,0,0,0,0,0
125,1764700977309,7,-9,-1,0,0,0,0,0
126,1764700977492,7,-9,0,0,0,0,0,0
127,1764700977725,6,-8,-2,0,0,0,0,0
128,1764700977842,5,-8,-1,0,0,0,0,0
129,1764700978026,6,-9,-1,0,0,0,0,0
130,1764700978125,4,-9,-1,0,0,0,0,0
131,1764700978325,5,-9,1,0,0,0,0,0
132,1764700978442,5,-10,0,0,0,0,0,0
133,1764700978659,5,-9,0,0,0,0,0,0
134,1764700978726,5,-10,0,0,0,0,0,0
135,1764700978759,4,-9,0,0,0,0,0,0
136,1764700978925,6,-8,0,0,0,0,0,0
137,1764700979026,6,-10,0,0,0,0,0,0
138,1764700979209,5,-11,0,0,0,0,0,0
139,1764700979325,6,-9,-1,0,0,0,0,0
140,1764700979359,3,-9,-1,0,0,0,0,0
141,1764700979542,5,-9,0,0,0,0,0,0
142,1764700979725,6,-9,-1,0,0,0,0,0
143,1764700980041,7,-10,0,0,0,0,0,0
144,1764700980209,5,-11,0,0,0,0,0,0
145,1764700980292,6,-9,0,0,0,0,0,0
146,1764700980509,6,-8,-1,0,0,0,0,0
147,1764700980609,6,-9,-1,0,0,0,0,0
148,1764700980809,6,-8,-1,0,0,0,0,0
149,1764700980909,5,-9,0,0,0,0,0,0
150,1764700981125,5,-9,-1,0,0,0,0,0
151,1764700981225,5,-11,1,0,0,0,0,0
152,1764700981425,6,-9,-1,0,0,0,0,0
153,1764700981492,5,-9,-1,0,0,0,0,0
154,1764700981725,5,-10,-1,0,0,0,0,0
155,1764700981826,3,-9,-1,0,0,0,0,0
156,1764700982109,5,-9,0,0,0,0,0,0
157,1764700982326,4,-9,-1,0,0,0,0,0
158,1764700982425,4,-8,-1,0,0,0,0,0
159,1764700982591,5,-7,0,0,0,0,0,0
160,1764700982725,4,-10,0,0,0,0,0,0
161,1764700982791,6,-9,-1,0,0,0,0,0
162,1764700982974,4,-10,0,0,0,0,0,0
163,1764700983142,5,-9,-1,0,0,0,0,0
164,1764700983309,6,-9,0,0,0,0,0,0
165,1764700983376,4,-9,-1,0,0,0,0,0
166,1764700983559,5,-9,0,0,0,0,0,0
167,1764700983659,5,-9,-1,0,0,0,0,0
168,1764700983891,6,-10,-1,0,0,0,0,0
169,1764700984193,5,-9,0,0,0,0,0,0
170,1764700984359,5,-9,-1,0,0,0,0,0
171,1764700984510,5,-10,-1,0,0,0,0,0
172,1764700984625,5,-9,1,0,0,0,0,0
173,1764700984775,4,-8,0,0,0,0,0,0
174,1764700984925,7,-9,-1,0,0,0,0,0
175,1764700985125,5,-9,0,0,0,0,0,0
176,1764700985242,5,-9,-1,0,0,0,0,0
177,1764700985375,7,-11,-1,0,0,0,0,0
178,1764700985542,6,-8,-1,0,0,0,0,0
179,1764700985692,6,-10,0,0,0,0,0,0
180,1764700985843,4,-8,0,0,0,0,0,0
181,1764700985959,6,-9,1,0,0,0,0,0
182,1764700986259,6,-8,-1,0,0,0,0,0
183,1764700986492,4,-9,0,0,0,0,0,0
184,1764700986575,6,-8,-1,0,0,0,0,0
185,1764700986808,5,-9,0,0,0,0,0,0
186,1764700987058,4,-7,-1,0,0,0,0,0
187,1764700987192,5,-9,0,0,0,0,0,0
188,1764700987409,5,-10,0,0,0,0,0,0
189,1764700987675,4,-11,-1,0,0,0,0,0
190,1764700987759,5,-9,-1,0,0,0,0,0
191,1764700988341,6,-10,0,0,0,0,0,0
192,1764700988475,5,-7,1,0,0,0,0,0
193,1764700988725,6,-8,-1,0,0,0,0,0
194,1764700988908,6,-10,-1,0,0,0,0,0
195,1764700989024,5,-10,-1,0,0,0,0,0
196,1764700989291,6,-9,-1,0,0,0,0,0
197,1764700989507,5,-8,0,0,0,0,0,0
198,1764700989591,4,-8,0,0,0,0,0,0
199,1764700989825,5,-8,-1,0,0,0,0,0
200,1764700989842,6,-9,-1,0,0,0,0,0
201,1764700990075,6,-10,0,0,0,0,0,0
202,1764700990259,5,-9,-1,0,0,0,0,0
203,1764700990392,6,-8,-1,0,0,0,0,0
204,1764700990525,6,-9,-1,0,0,0,0,0
205,1764700990708,6,-9,-1,0,0,0,0,0
206,1764700990824,4,-10,-1,0,0,0,0,0
207,1764700990974,5,-8,-1,0,0,0,0,0
208,1764700991092,6,-10,-1,0,0,0,0,0
209,1764700991309,5,-9,-1,0,0,0,0,0
210,1764700991442,5,-7,-1,0,0,0,0,0
211,1764700991559,5,-9,0,0,0,0,0,0
212,1764700991659,6,-9,0,0,0,0,0,0
213,1764700991875,6,-10,-1,0,0,0,0,0
214,1764700992042,5,-9,0,0,0,0,0,0
215,1764700992342,5,-9,0,0,0,0,0,0
216,1764700992525,7,-9,0,0,0,0,0,0
217,1764700992642,5,-9,0,0,0,0,0,0
218,1764700992776,5,-9,0,0,0,0,0,0
219,1764700992908,5,-8,-1,0,0,0,0,0
220,1764700993092,5,-8,0,0,0,0,0,0
221,1764700993225,4,-9,-1,0,0,0,0,0
222,1764700993342,5,-8,0,0,0,0,0,0
223,1764700993459,5,-9,-1,0,0,0,0,0
224,1764700993675,7,-9,-1,0,0,0,0,0
225,1764700993776,5,-8,-1,0,0,0,0,0
226,1764700993942,6,-9,-1,0,0,0,0,0
227,1764700994025,6,-11,0,0,0,0,0,0
228,1764700994325,6,-10,-2,0,0,0,0,0
229,1764700994459,7,-9,0,0,0,0,0,0
230,1764700994575,5,-9,0,0,0,0,0,0
231,1764700994708,6,-9,0,0,0,0,0,0
232,1764700994892,5,-8,-1,0,0,0,0,0
233,1764700995025,4,-11,-1,0,0,0,0,0
234,1764700995159,6,-9,0,0,0,0,0,0
235,1764700995275,4,-9,1,0,0,0,0,0
236,1764700995475,5,-10,-1,0,0,0,0,0
237,1764700995592,4,-7,1,0,0,0,0,0
238,1764700995725,5,-9,0,0,0,0,0,0
239,1764700995825,5,-10,0,0,0,0,0,0
240,1764700996042,5,-10,0,0,0,0,0,0
241,1764700996209,5,-9,0,0,0,0,0,0
242,1764700996425,6,-9,-2,0,0,0,0,0
243,1764700996659,5,-9,0,0,0,0,0,0
244,1764700996742,7,-9,0,0,0,0,0,0
245,1764700996925,4,-9,-1,0,0,0,0,0
246,1764700997025,5,-9,0,0,0,0,0,0
247,1764700997242,3,-10,-1,0,0,0,0,0
248,1764700997343,5,-9,0,0,0,0,0,0
249,1764700997525,5,-10,-2,0,0,0,0,0
250,1764700997626,7,-7,0,0,0,0,0,0
251,1764700997825,5,-11,-1,0,0,0,0,0
252,1764700997942,6,-8,-1,0,0,0,0,0
253,1764700998075,5,-9,1,0,0,0,0,0
254,1764700998175,7,-9,1,0,0,0,0,0
255,1764700998475,5,-9,-1,0,0,0,0,0
256,1764700998742,5,-8,-1,0,0,0,0,0
257,1764700998908,5,-8,0,0,0,0,0,0
258,1764700999042,6,-10,-2,0,0,0,0,0
259,1764700999309,5,-9,-1,0,0,0,0,0
260,1764700999492,5,-8,0,0,0,0,0,0
261,1764700999642,4,-9,0,0,0,0,0,0
262,1764700999792,6,-9,0,0,0,0,0,0
263,1764700999908,5,-8,-1,0,0,0,0,0
264,1764701000075,5,-8,-1,0,0,0,0,0
265,1764701000259,5,-10,0,0,0,0,0,0
266,1764701000575,5,-5,-1,0,0,0,0,0
267,1764701000808,4,-8,-1,0,0,0,0,0
268,1764701000892,5,-10,0,0,0,0,0,0
269,1764701001058,6,-16,-1,0,0,0,0,0
270,1764701001142,11,-12,1,0,0,0,0,0
271,1764701001409,9,-5,-2,0,0,0,0,0
272,1764701001475,3,-19,0,0,0,0,0,0
273,1764701001658,0,-21,-4,0,0,0,0,0
274,1764701001775,-20,-70,1,0,0,0,0,0
275,1764701001975,-55,29,-4,0,0,0,0,0
276,1764701002075,61,-69,-15,0,0,0,0,0
277,1764701002241,-38,-41,-2,0,0,0,0,0
278,1764701002525,-51,42,7,0,0,0,0,0
279,1764701002625,41,-18,-4,0,0,0,0,0
280,1764701002808,11,52,3,0,0,0,0,0
281,1764701002892,-26,-24,1,0,0,0,0,0
282,1764701003125,13,42,4,0,0,0,0,0
283,1764701003192,-8,-41,-9,0,0,0,0,0
284,1764701003359,13,-48,-5,0,0,0,0,0
285,1764701003476,-25,39,7,0,0,0,0,0
286,1764701003692,26,29,1,0,0,0,0,0
287,1764701003792,6,-34,-3,0,0,0,0,0
288,1764701003942,36,-34,-7,0,0,0,0,0
289,1764701004042,-28,31,9,0,0,0,0,0
290,1764701004258,4,10,3,0,0,0,0,0
291,1764701004442,-60,3,6,0,0,0,0,0
292,1764701004625,54,-56,-7,0,0,0,0,0
293,1764701004708,-12,10,8,0,0,0,0,0
294,1764701004925,47,-41,-5,0,0,0,0,0
295,1764701005008,44,-68,-8,0,0,0,0,0
296,1764701005191,-40,4,6,0,0,0,0,0
297,1764701005275,-16,-3,1,0,0,0,0,0
298,1764701005541,-30,23,-248,0,0,0,0,0
299,1764701005608,-28,19,2,0,0,0,0,0
300,1764701005725,-33,-28,2,0,0,0,0,0
301,1764701005825,-33,-16,4,0,0,0,0,0
302,1764701006008,35,-32,-4,0,0,0,0,0
303,1764701006142,33,-58,-8,0,0,0,0,0
304,1764701006391,8,57,5,0,0,0,0,0
305,1764701006624,-21,-23,1,0,0,0,0,0
306,1764701006775,3,-29,-2,0,0,0,0,0
307,1764701006841,247,-21,5,0,0,0,0,0
308,1764701007024,-4,-14,0,0,0,0,0,0
309,1764701007143,1,-8,1,0,0,0,0,0
310,1764701007345,-2,19,-2,0,0,0,0,0
311,1764701007559,11,-5,-254,0,0,0,0,0
312,1764701007675,2,-3,2,0,0,0,0,0
313,1764701007876,8,-11,1,0,0,0,0,0
314,1764701007975,4,-4,-2,0,0,0,0,0
315,1764701008058,14,-16,3,0,0,0,0,0
316,1764701008225,10,-34,-2,0,0,0,0,0
317,1764701008325,1,-2,-3,0,0,0,0,0
318,1764701008858,3,-2,0,0,0,0,0,0
319,1764701357570,58,15,3,0,0,0,0,0
320,1764701357691,-53,10,5,0,0,0,0,0
321,1764701357973,25,-74,-2,0,0,0,0,0
322,1764701358206,-13,-23,0,0,0,0,0,0
323,1764701358325,25,-53,-9,0,0,0,0,0
324,1764701358509,42,60,5,0,0,0,0,0
325,1764701358556,-3,-31,-3,0,0,0,0,0
326,1764701358622,-10,61,5,0,0,0,0,0
327,1764701358837,28,-86,-6,0,0,0,0,0
328,1764701358938,-11,-56,-1,0,0,0,0,0
329,1764701359174,-36,14,5,0,0,0,0,0
330,1764701359341,30,-14,-6,0,0,0,0,0
331,1764701359506,-5,-50,-6,0,0,0,0,0
332,1764701359621,-26,19,11,0,0,0,0,0
333,1764701359720,-42,-56,-3,0,0,0,0,0
334,1764701359804,77,-61,-6,0,0,0,0,0
335,1764701359990,26,40,5,0,0,0,0,0
336,1764701360187,49,-60,-4,0,0,0,0,0
337,1764701360456,-20,62,7,0,0,0,0,0
338,1764701360637,-48,-9,3,0,0,0,0,0
339,1764701360754,-29,-18,5,0,0,0,0,0
340,1764701360886,7,35,0,0,0,0,0,0
341,1764701361003,10,-16,0,0,0,0,0,0
342,1764701361154,41,-58,-2,0,0,0,0,0
343,1764701361337,50,-75,-8,0,0,0,0,0
344,1764701361457,-48,4,2,0,0,0,0,0
345,1764701361603,41,-10,-4,0,0,0,0,0
346,1764701361774,-18,-6,-3,0,0,0,0,0
347,1764701361922,-38,20,-2,0,0,0,0,0
348,1764701362104,27,39,4,0,0,0,0,0
349,1764701362304,33,42,7,0,0,0,0,0
350,1764701362523,-9,-82,2,0,0,0,0,0
351,1764701362589,28,-11,2,0,0,0,0,0
352,1764701362720,-10,22,-3,0,0,0,0,0
353,1764701362820,8,-41,0,0,0,0,0,0
354,1764701363021,19,-20,2,0,0,0,0,0
355,1764701363153,102,-11,-1,0,0,0,0,0
356,1764701363226,8,1,-4,0,0,0,0,0
357,1764701363405,1,5,-1,0,0,0,0,0
358,1764701363556,7,-25,-1,0,0,0,0,0
359,1764701363727,11,6,2,0,0,0,0,0
360,1764701363824,-8,13,-6,0,0,0,0,0
361,1764701363972,10,-21,-1,0,0,0,0,0
362,1764701364304,9,-11,1,0,0,0,0,0
363,1764701364371,10,-18,2,0,0,0,0,0
364,1764701364570,9,-12,0,0,0,0,0,0
365,1764701364670,7,-18,1,0,0,0,0,0
366,1764701364888,3,4,-1,0,0,0,0,0
367,1764701365138,1,-5,-1,0,0,0,0,0
368,1764701365254,5,-7,1,0,0,0,0,0
369,1764701365471,9,-19,1,0,0,0,0,0
370,1764701365739,3,-11,0,0,0,0,0,0
371,1764701365840,4,-6,-2,0,0,0,0,0
372,1764701366037,6,-9,1,0,0,0,0,0
373,1764701366320,6,-10,-2,0,0,0,0,0
374,1764701366487,5,-9,-1,0,0,0,0,0
375,1764701366687,6,-11,-1,0,0,0,0,0
376,1764701366937,6,-8,-1,0,0,0,0,0
377,1764701366986,4,-9,0,0,0,0,0,0
378,1764701367279,5,-9,1,0,0,0,0,0
379,1764701367521,5,-9,0,0,0,0,0,0
380,1764701367587,3,-8,-1,0,0,0,0,0
381,1764701367820,6,-10,0,0,0,0,0,0
382,1764701367906,5,-9,0,0,0,0,0,0
383,1764701368106,4,-8,0,0,0,0,0,0
384,1764701368204,4,-9,0,0,0,0,0,0
385,1764701368604,4,-10,0,0,0,0,0,0
386,1764701368754,5,-9,-1,0,0,0,0,0
387,1764701368920,5,-9,0,0,0,0,0,0
388,1764701369071,4,-9,0,0,0,0,0,0
389,1764701369170,5,-10,0,0,0,0,0,0
390,1764701369320,5,-9,-2,0,0,0,0,0
391,1764701369521,5,-9,-1,0,0,0,0,0
392,1764701369654,4,-8,-1,0,0,0,0,0
393,1764701369787,1,-8,-1,0,0,0,0,0
394,1764701369904,6,-9,-1,0,0,0,0,0
395,1764701370071,5,-11,-1,0,0,0,0,0
396,1764701370371,3,-12,-1,0,0,0,0,0
397,1764701370569,6,-14,-1,0,0,0,0,0
398,1764701370804,3,-12,1,0,0,0,0,0
399,1764701371054,-13,25,1,0,0,0,0,0
400,1764701371137,-10,-4,-6,0,0,0,0,0
401,1764701371387,27,-37,3,0,0,0,0,0
402,1764701371671,30,-25,3,0,0,0,0,0
403,1764701371721,8,-240,-5,0,0,0,0,0
404,1764701371988,-38,40,-6,0,0,0,0,0
405,1764701372220,-13,-3,-3,0,0,0,0,0
406,1764701372336,-16,-28,-3,0,0,0,0,0
407,1764701372621,-26,3,-1,0,0,0,0,0
408,1764701372854,46,43,3,0,0,0,0,0
409,1764701372937,48,65,4,0,0,0,0,0
410,1764701373137,32,31,3,0,0,0,0,0
411,1764701373187,-60,25,6,0,0,0,0,0
412,1764701373371,-241,41,5,0,0,0,0,0
413,1764701373521,230,27,0,0,0,0,0,0
414,1764701373687,-50,34,1,0,0,0,0,0
415,1764701373788,49,-9,3,0,0,0,0,0
416,1764701373970,67,-54,-4,0,0,0,0,0
417,1764701374104,209,-27,-2,0,0,0,0,0
418,1764701374620,3,-26,-1,0,0,0,0,0
419,1764701374737,-7,58,4,0,0,0,0,0
420,1764701375004,40,-78,-10,0,0,0,0,0
421,1764701375187,23,39,1,0,0,0,0,0
422,1764701375304,25,19,5,0,0,0,0,0
423,1764701375570,7,61,9,0,0,0,0,0
424,1764701375804,-41,-36,2,0,0,0,0,0
425,1764701375904,12,12,4,0,0,0,0,0
426,1764701376154,14,-36,0,0,0,0,0,0
427,1764701376337,3,-2,0,0,0,0,0,0
428,1764701376537,5,-7,0,0,0,0,0,0
429,1764701376804,0,-10,-5,0,0,0,0,0
430,1764701377021,-1,-2,-4,0,0,0,0,0
431,1764701377104,10,-18,2,0,0,0,0,0
432,1764701377354,3,-31,-3,0,0,0,0,0
433,1764701377554,-14,5,-5,0,0,0,0,0
434,1764701377688,14,-28,4,0,0,0,0,0
435,1764701377937,5,-4,-1,0,0,0,0,0
436,1764701378137,6,-11,-1,0,0,0,0,0
437,1764701378237,8,-26,4,0,0,0,0,0
438,1764701378504,7,-16,1,0,0,0,0,0
439,1764701378820,3,2,-2,0,0,0,0,0
440,1764701378887,4,-4,-2,0,0,0,0,0
441,1764701379054,7,-19,-2,0,0,0,0,0
442,1764701379154,2,-1,-2,0,0,0,0,0
443,1764701379370,7,-16,-1,0,0,0,0,0
444,1764701379488,7,-12,-1,0,0,0,0,0
445,1764701379737,5,-11,0,0,0,0,0,0
446,1764701379920,3,-4,-1,0,0,0,0,0
447,1764701380057,3,-9,-1,0,0,0,0,0
448,1764701380304,6,-7,-2,0,0,0,0,0
449,1764701380437,6,-10,-1,0,0,0,0,0
450,1764701380687,4,-6,-1,0,0,0,0,0
451,1764701380954,5,-11,0,0,0,0,0,0
452,1764701381171,7,-8,0,0,0,0,0,0
453,1764701381254,6,-10,0,0,0,0,0,0
