index,date,GYRO_X,GYRO_Y,GYRO_Z
0,1782569779525,0.28000000000000003,-0.48999999999999999,0
1,1782569779575,0.28000000000000003,-0.48999999999999999,0
2,1782569779641,0.28000000000000003,-0.48999999999999999,0
3,1782569779692,0.28000000000000003,-0.48999999999999999,0
4,1782569779741,0.28000000000000003,-0.56000000000000005,0
5,1782569779791,0.28000000000000003,-0.56000000000000005,0
6,1782569779841,0.28000000000000003,-0.56000000000000005,0
7,1782569779841,0.28000000000000003,-0.41999999999999998,-0.070000000000000007
8,1782569779858,0.28000000000000003,-0.41999999999999998,-0.070000000000000007
9,1782569779891,0.28000000000000003,-0.41999999999999998,-0.070000000000000007
10,1782569779907,0.28000000000000003,-0.91000000000000003,0
11,1782569779925,0.20999999999999999,-0.34999999999999998,0
12,1782569779958,0.28000000000000003,-0.83999999999999997,0
13,1782569780024,0.28000000000000003,-0.83999999999999997,0
14,1782569780057,0.28000000000000003,-0.56000000000000005,0
15,1782569780124,0.28000000000000003,-0.56000000000000005,0
16,1782569780157,0.28000000000000003,-0.69999999999999996,-0.070000000000000007
17,1782569780224,0.34999999999999998,-0.56000000000000005,0
18,1782569780274,0.20999999999999999,-0.56000000000000005,-0.070000000000000007
19,1782569780341,0.20999999999999999,-0.56000000000000005,-0.070000000000000007
20,1782569780374,0.20999999999999999,-0.48999999999999999,-0.070000000000000007
21,1782569780407,0.28000000000000003,-0.56000000000000005,-0.070000000000000007
22,1782569780440,0.28000000000000003,-0.56000000000000005,-0.070000000000000007
23,1782569780457,0.28000000000000003,-0.56000000000000005,-0.070000000000000007
24,1782569780473,0.28000000000000003,-0.56000000000000005,0
25,1782569780508,0.20999999999999999,-0.56000000000000005,0
26,1782569780541,0.20999999999999999,-0.56000000000000005,0
27,1782569780590,0.20999999999999999,-0.56000000000000005,0
28,1782569780624,0.20999999999999999,-0.63,0.070000000000000007
29,1782569780673,0.20999999999999999,-0.63,0.070000000000000007
30,1782569780723,0.20999999999999999,-0.63,0.070000000000000007
31,1782569780774,0.20999999999999999,-0.63,0
32,1782569780840,0.20999999999999999,-0.48999999999999999,0
33,1782569780890,0.20999999999999999,-0.48999999999999999,0
34,1782569780924,0.20999999999999999,-0.48999999999999999,0
35,1782569780973,0.14000000000000001,-0.56000000000000005,-0.070000000000000007
36,1782569781023,0.20999999999999999,-0.56000000000000005,-0.14000000000000001
37,1782569781056,0.28000000000000003,-0.56000000000000005,-0.070000000000000007
38,1782569781089,0.28000000000000003,-0.56000000000000005,-0.070000000000000007
39,1782569781106,0.28000000000000003,-0.56000000000000005,-0.070000000000000007
40,1782569781123,0.28000000000000003,-0.56000000000000005,-0.070000000000000007
41,1782569781157,0.28000000000000003,-0.56000000000000005,-0.070000000000000007
42,1782569781223,0.28000000000000003,-0.56000000000000005,-0.070000000000000007
43,1782569781256,0.28000000000000003,-0.48999999999999999,-0.070000000000000007
44,1782569781323,0.14000000000000001,-0.48999999999999999,-0.070000000000000007
45,1782569781390,0.20999999999999999,-0.56000000000000005,0
46,1782569781423,0.20999999999999999,-0.56000000000000005,0
47,1782569781489,0.20999999999999999,-0.56000000000000005,0
48,1782569781539,0.20999999999999999,-0.56000000000000005,0
49,1782569781606,0.20999999999999999,-0.48999999999999999,-0.070000000000000007
50,1782569781639,0.28000000000000003,-0.48999999999999999,-0.070000000000000007
51,1782569781672,0.28000000000000003,-0.48999999999999999,-0.070000000000000007
52,1782569781689,0.34999999999999998,-0.56000000000000005,-0.070000000000000007
53,1782569781705,0.28000000000000003,-0.48999999999999999,-0.070000000000000007
54,1782569781739,0.28000000000000003,-0.48999999999999999,-0.070000000000000007
55,1782569781756,0.20999999999999999,-0.48999999999999999,-0.070000000000000007
56,1782569781806,0.20999999999999999,-0.48999999999999999,-0.070000000000000007
57,1782569781872,0.14000000000000001,-0.48999999999999999,-0.070000000000000007
58,1782569781956,0.20999999999999999,-0.48999999999999999,0
59,1782569782006,0.20999999999999999,-0.48999999999999999,0
60,1782569782072,0.28000000000000003,-0.56000000000000005,-0.070000000000000007
61,1782569782105,0.28000000000000003,-0.56000000000000005,-0.070000000000000007
62,1782569782155,0.28000000000000003,-0.56000000000000005,-0.070000000000000007
63,1782569782238,0.28000000000000003,-0.56000000000000005,0
64,1782569782289,0.28000000000000003,-0.56000000000000005,0
65,1782569782322,0.28000000000000003,-0.56000000000000005,0
66,1782569782338,0.28000000000000003,-0.56000000000000005,-0.070000000000000007
67,1782569782355,0.28000000000000003,-0.56000000000000005,-0.070000000000000007
68,1782569782389,0.28000000000000003,-0.56000000000000005,-0.070000000000000007
69,1782569782405,0.20999999999999999,-0.48999999999999999,-0.070000000000000007
70,1782569782422,0.20999999999999999,-0.48999999999999999,-0.070000000000000007
71,1782569782455,0.28000000000000003,-0.48999999999999999,-0.070000000000000007
72,1782569782473,0.28000000000000003,-0.56000000000000005,-0.070000000000000007
73,1782569782488,0.20999999999999999,-0.56000000000000005,-0.070000000000000007
74,1782569782556,0.28000000000000003,-0.56000000000000005,0
75,1782569782623,0.20999999999999999,-0.56000000000000005,-0.070000000000000007
76,1782569782656,0.20999999999999999,-0.56000000000000005,-0.070000000000000007
77,1782569782722,0.20999999999999999,-0.56000000000000005,0
78,1782569782805,0.97999999999999998,0.20999999999999999,-0.48999999999999999
79,1782569782871,-0.48999999999999999,0,-0.41999999999999998
80,1782569782922,-0.63,-0.83999999999999997,-0.28000000000000003
81,1782569782971,-0.63,-0.83999999999999997,-0.20999999999999999
82,1782569783021,-0.63,-0.83999999999999997,-0.20999999999999999
83,1782569783089,0.48999999999999999,-0.97999999999999998,0.070000000000000007
84,1782569783138,0.48999999999999999,-0.97999999999999998,0.070000000000000007
85,1782569783188,0.48999999999999999,-0.97999999999999998,0
86,1782569783254,0.56000000000000005,-0.97999999999999998,-0.14000000000000001
87,1782569783355,0,-0.28000000000000003,-0.28000000000000003
88,1782569783388,-0.14000000000000001,-0.20999999999999999,-0.28000000000000003
89,1782569783487,-0.28000000000000003,-0.20999999999999999,-0.070000000000000007
90,1782569783587,-0.28000000000000003,-0.070000000000000007,-0.070000000000000007
91,1782569783620,0.69999999999999996,-0.63,-0.070000000000000007
92,1782569783687,0.41999999999999998,-0.56000000000000005,-0.070000000000000007
93,1782569783720,0.28000000000000003,-0.63,-0.070000000000000007
94,1782569783787,0.14000000000000001,-0.63,-0.070000000000000007
95,1782569783838,0.14000000000000001,-0.63,-0.070000000000000007
96,1782569783921,0,0.070000000000000007,0
97,1782569783970,0,-0.28000000000000003,-0.070000000000000007
98,1782569784020,-0.070000000000000007,-0.41999999999999998,-0.070000000000000007
99,1782569784088,-0.070000000000000007,-0.41999999999999998,0
100,1782569784137,-0.070000000000000007,-0.77000000000000002,0
101,1782569784170,0.69999999999999996,-0.77000000000000002,0
102,1782569784203,0.69999999999999996,-0.77000000000000002,0
103,1782569784370,0.48999999999999999,-0.77000000000000002,0
104,1782569784404,0.41999999999999998,-0.83999999999999997,0
105,1782569784504,0.28000000000000003,-0.56000000000000005,0
106,1782569784553,0.28000000000000003,-0.56000000000000005,0
107,1782569784603,0.28000000000000003,-0.48999999999999999,0
108,1782569784653,0.28000000000000003,-0.48999999999999999,0
109,1782569784720,0.28000000000000003,-0.48999999999999999,-0.070000000000000007
110,1782569784737,0.14000000000000001,-0.56000000000000005,-0.070000000000000007
111,1782569784803,0.20999999999999999,-0.56000000000000005,0
112,1782569784852,0.20999999999999999,-0.56000000000000005,0
113,1782569784969,0.20999999999999999,-0.56000000000000005,0
114,1782569785020,0.20999999999999999,-0.48999999999999999,0
115,1782569785086,0.20999999999999999,-0.48999999999999999,0
116,1782569785120,0.20999999999999999,-0.48999999999999999,0
117,1782569785170,0.20999999999999999,-0.48999999999999999,0
118,1782569785220,0.20999999999999999,-0.48999999999999999,0
119,1782569785286,0.20999999999999999,-0.56000000000000005,0
120,1782569785335,0.28000000000000003,-0.56000000000000005,0
121,1782569785469,0.28000000000000003,-0.56000000000000005,0
122,1782569785502,0.28000000000000003,-0.48999999999999999,0
123,1782569785569,0.28000000000000003,-0.48999999999999999,0
124,1782569785602,0.28000000000000003,-0.48999999999999999,0
125,1782569785652,0.28000000000000003,-0.48999999999999999,0
126,1782569785703,0.20999999999999999,-0.48999999999999999,0
127,1782569785752,0.20999999999999999,-0.56000000000000005,0
128,1782569785802,0.20999999999999999,-0.56000000000000005,0
129,1782569785852,0.20999999999999999,-0.56000000000000005,-0.070000000000000007
130,1782569785918,0.28000000000000003,-0.56000000000000005,0
131,1782569785968,0.28000000000000003,-0.56000000000000005,-0.070000000000000007
132,1782569786151,0.28000000000000003,-0.56000000000000005,-0.070000000000000007
133,1782569786201,0.28000000000000003,-0.48999999999999999,-0.070000000000000007
134,1782569786251,0.28000000000000003,-0.48999999999999999,-0.070000000000000007
135,1782569786301,0.28000000000000003,-0.48999999999999999,-0.070000000000000007
136,1782569786418,0.28000000000000003,-0.48999999999999999,-0.070000000000000007
137,1782569786451,0.28000000000000003,-0.56000000000000005,0
138,1782569786517,0.28000000000000003,-0.56000000000000005,0
139,1782569786569,0.28000000000000003,-0.56000000000000005,0
140,1782569786634,0.28000000000000003,-0.56000000000000005,-0.070000000000000007
141,1782569786768,0.34999999999999998,-0.48999999999999999,0
142,1782569786851,0.20999999999999999,-0.48999999999999999,0
143,1782569786901,0.20999999999999999,-0.48999999999999999,-0.070000000000000007
144,1782569786967,0.20999999999999999,-0.48999999999999999,-0.070000000000000007
145,1782569787017,0.20999999999999999,-0.48999999999999999,-0.070000000000000007
146,1782569787067,0.20999999999999999,-0.48999999999999999,-0.070000000000000007
147,1782569787167,0.20999999999999999,-0.48999999999999999,0
148,1782569787250,0.20999999999999999,-0.48999999999999999,0
149,1782569787301,0.20999999999999999,-0.48999999999999999,-0.070000000000000007
150,1782569787334,0.28000000000000003,-0.56000000000000005,0
151,1782569787383,0.28000000000000003,-0.56000000000000005,-0.070000000000000007
152,1782569787450,0.28000000000000003,-0.56000000000000005,0
153,1782569787534,0.28000000000000003,-0.48999999999999999,0
154,1782569787650,0.14000000000000001,-1.1200000000000001,-0.070000000000000007
155,1782569787700,0.14000000000000001,-1.1200000000000001,-0.070000000000000007
156,1782569787766,0.14000000000000001,-0.83999999999999997,0.070000000000000007
157,1782569787784,0.69999999999999996,-0.83999999999999997,0.14000000000000001
158,1782569787800,0.69999999999999996,-0.63,0.28000000000000003
159,1782569787833,0.69999999999999996,-0.56000000000000005,0.34999999999999998
160,1782569787850,0,-0.56000000000000005,0.34999999999999998
161,1782569787899,0,-0.34999999999999998,0.34999999999999998
162,1782569787950,0.56000000000000005,-0.56000000000000005,-0.20999999999999999
163,1782569788066,0.56000000000000005,-0.56000000000000005,-0.28000000000000003
164,1782569788099,0.56000000000000005,-0.69999999999999996,-0.41999999999999998
165,1782569788132,0.070000000000000007,-0.56000000000000005,-0.41999999999999998
166,1782569788149,-0.14000000000000001,-0.69999999999999996,-0.41999999999999998
167,1782569788183,0.20999999999999999,-0.48999999999999999,-0.34999999999999998
168,1782569788249,0.20999999999999999,-0.48999999999999999,-0.070000000000000007
169,1782569788299,0.20999999999999999,-0.56000000000000005,-0.070000000000000007
170,1782569788349,0.20999999999999999,-0.56000000000000005,0.14000000000000001
171,1782569788383,0.20999999999999999,-0.56000000000000005,0.20999999999999999
172,1782569788415,0.20999999999999999,-0.48999999999999999,0.28000000000000003
173,1782569788433,0.070000000000000007,-0.48999999999999999,0.28000000000000003
174,1782569788483,0.14000000000000001,-0.63,-0.070000000000000007
175,1782569788549,0.14000000000000001,-0.63,-0.14000000000000001
176,1782569788582,0.20999999999999999,-0.63,-0.20999999999999999
177,1782569788649,0.20999999999999999,-0.63,-0.20999999999999999
178,1782569788683,0.20999999999999999,-0.56000000000000005,-0.14000000000000001
179,1782569788699,0.14000000000000001,-0.56000000000000005,-0.14000000000000001
180,1782569788732,0.14000000000000001,-0.56000000000000005,-0.070000000000000007
181,1782569788799,0.070000000000000007,-0.56000000000000005,0.14000000000000001
182,1782569788899,0.14000000000000001,-0.48999999999999999,0.070000000000000007
183,1782569789015,0.34999999999999998,-0.48999999999999999,0.070000000000000007
184,1782569789049,0.28000000000000003,-0.48999999999999999,-0.14000000000000001
185,1782569789099,0.28000000000000003,-0.48999999999999999,-0.14000000000000001
186,1782569789150,0.28000000000000003,-0.48999999999999999,-0.14000000000000001
187,1782569789198,0.28000000000000003,-0.56000000000000005,-0.070000000000000007
188,1782569789248,0.34999999999999998,-0.56000000000000005,0
189,1782569789265,0.20999999999999999,-0.56000000000000005,0
190,1782569789299,0.28000000000000003,-0.41999999999999998,0
191,1782569789365,0.20999999999999999,-0.56000000000000005,0
192,1782569789548,0.28000000000000003,-0.48999999999999999,0
193,1782569789581,0.28000000000000003,-0.56000000000000005,-0.070000000000000007
194,1782569789632,0.20999999999999999,-0.48999999999999999,0.070000000000000007
195,1782569789681,0.20999999999999999,-0.48999999999999999,0.070000000000000007
196,1782569789815,0.20999999999999999,-0.48999999999999999,0
197,1782569789848,0.28000000000000003,-0.48999999999999999,0
198,1782569789899,0.20999999999999999,-0.56000000000000005,-0.070000000000000007
199,1782569789948,0.28000000000000003,-0.56000000000000005,-0.070000000000000007
200,1782569789997,0.28000000000000003,-0.56000000000000005,-0.070000000000000007
201,1782569790064,0.28000000000000003,-0.56000000000000005,-0.070000000000000007
202,1782569790114,0.28000000000000003,-0.48999999999999999,-0.070000000000000007
203,1782569790164,0.28000000000000003,-0.48999999999999999,0
204,1782569790181,0.28000000000000003,-0.41999999999999998,0
205,1782569790197,0.20999999999999999,-0.48999999999999999,0
206,1782569790330,0.20999999999999999,-0.56000000000000005,-0.070000000000000007
207,1782569790364,0.20999999999999999,-0.56000000000000005,0
208,1782569790464,0.20999999999999999,-0.56000000000000005,0
209,1782569790531,0.20999999999999999,-0.56000000000000005,-0.070000000000000007
210,1782569790548,0.20999999999999999,-0.56000000000000005,-0.070000000000000007
211,1782569790580,0.20999999999999999,-0.56000000000000005,-0.070000000000000007
212,1782569790614,0.28000000000000003,-0.56000000000000005,-0.070000000000000007
213,1782569790664,0.28000000000000003,-0.56000000000000005,-0.070000000000000007
214,1782569790714,0.28000000000000003,-0.56000000000000005,-0.070000000000000007
215,1782569790763,0.28000000000000003,-0.56000000000000005,-0.070000000000000007
216,1782569790780,0.20999999999999999,-0.56000000000000005,-0.070000000000000007
217,1782569790913,0.20999999999999999,-0.56000000000000005,-0.070000000000000007
218,1782569790946,0.20999999999999999,-0.56000000000000005,-0.070000000000000007
219,1782569790964,0.28000000000000003,-0.56000000000000005,0
220,1782569791013,0.28000000000000003,-0.41999999999999998,0
221,1782569791064,0.28000000000000003,-0.56000000000000005,0
222,1782569791097,0.28000000000000003,-0.56000000000000005,0
223,1782569791147,0.28000000000000003,-0.56000000000000005,0
224,1782569791231,0.20999999999999999,-0.56000000000000005,0
225,1782569791264,0.20999999999999999,-0.56000000000000005,0
226,1782569791280,0.28000000000000003,-0.56000000000000005,0
227,1782569791330,0.20999999999999999,-0.56000000000000005,-0.070000000000000007
228,1782569791397,0.20999999999999999,-0.48999999999999999,0
229,1782569791447,0.28000000000000003,-0.56000000000000005,0
230,1782569791463,0.20999999999999999,-0.56000000000000005,0
231,1782569791496,0.20999999999999999,-0.56000000000000005,0
232,1782569791513,0.28000000000000003,-0.56000000000000005,0
233,1782569791564,0.28000000000000003,-0.56000000000000005,0
234,1782569791696,0.20999999999999999,-0.56000000000000005,-0.070000000000000007
235,1782569791730,0.20999999999999999,-0.56000000000000005,0
236,1782569791746,0.28000000000000003,-0.56000000000000005,0
237,1782569791763,0.28000000000000003,-0.56000000000000005,0
238,1782569791796,0.20999999999999999,-0.56000000000000005,0
239,1782569791813,0.20999999999999999,-0.56000000000000005,0
240,1782569791879,0.20999999999999999,-0.48999999999999999,0
241,1782569791929,0.28000000000000003,-0.56000000000000005,-0.070000000000000007
242,1782569791979,0.28000000000000003,-0.56000000000000005,0
243,1782569792079,0.28000000000000003,-0.48999999999999999,0
244,1782569792112,0.20999999999999999,-0.48999999999999999,0
245,1782569792146,0.20999999999999999,-0.48999999999999999,0
246,1782569792246,0.20999999999999999,-0.48999999999999999,0
247,1782569792295,0.14000000000000001,-0.48999999999999999,0
248,1782569792312,0.14000000000000001,-0.48999999999999999,-0.070000000000000007
249,1782569792329,0.14000000000000001,-0.48999999999999999,0
250,1782569792362,0.14000000000000001,-0.56000000000000005,-0.070000000000000007
251,1782569792379,0.14000000000000001,-0.56000000000000005,-0.070000000000000007
252,1782569792429,0.14000000000000001,-0.56000000000000005,0
253,1782569792512,0.14000000000000001,-0.56000000000000005,0
254,1782569792528,0.28000000000000003,-0.56000000000000005,0
255,1782569792595,0.28000000000000003,-0.56000000000000005,0
256,1782569792645,0.28000000000000003,-0.56000000000000005,0
257,1782569792695,0.28000000000000003,-0.56000000000000005,0
258,1782569792762,0.20999999999999999,-0.56000000000000005,0
259,1782569792812,0.20999999999999999,-0.48999999999999999,-0.070000000000000007
260,1782569792878,0.28000000000000003,-0.48999999999999999,-0.070000000000000007
261,1782569792929,0.28000000000000003,-0.56000000000000005,-0.070000000000000007
262,1782569792995,0.20999999999999999,-0.56000000000000005,-0.070000000000000007
263,1782569793029,0.28000000000000003,-0.56000000000000005,-0.070000000000000007
264,1782569793111,0.20999999999999999,-0.48999999999999999,-0.14000000000000001
265,1782569793145,0.20999999999999999,-0.48999999999999999,-0.070000000000000007
266,1782569793328,0.20999999999999999,-0.41999999999999998,0
267,1782569793345,0.34999999999999998,-0.41999999999999998,0.070000000000000007
268,1782569793411,0.34999999999999998,-0.41999999999999998,0.070000000000000007
269,1782569793444,0.34999999999999998,-0.34999999999999998,0
270,1782569793462,0.28000000000000003,-0.34999999999999998,-0.070000000000000007
271,1782569793494,0.28000000000000003,-0.34999999999999998,-0.070000000000000007
272,1782569793545,0.28000000000000003,-0.41999999999999998,-0.14000000000000001
273,1782569793594,0.28000000000000003,-0.41999999999999998,-0.14000000000000001
274,1782569793661,0.28000000000000003,-0.41999999999999998,-0.070000000000000007
275,1782569793694,0.28000000000000003,-0.41999999999999998,-0.070000000000000007
276,1782569793712,0.28000000000000003,-0.41999999999999998,-0.070000000000000007
277,1782569793727,0.28000000000000003,-0.41999999999999998,-0.070000000000000007
278,1782569793760,0.28000000000000003,-0.56000000000000005,0
279,1782569793795,0.28000000000000003,-0.56000000000000005,0.070000000000000007
280,1782569793861,0.28000000000000003,-0.56000000000000005,0.070000000000000007
281,1782569793977,0.20999999999999999,-0.48999999999999999,0
282,1782569794010,0.20999999999999999,-0.56000000000000005,0
283,1782569794060,0.20999999999999999,-0.56000000000000005,0
284,1782569794093,0.20999999999999999,-0.48999999999999999,0
285,1782569794127,0.20999999999999999,-0.48999999999999999,0
286,1782569794194,0.28000000000000003,-0.56000000000000005,-0.070000000000000007
287,1782569794243,0.28000000000000003,-0.56000000000000005,0
288,1782569794277,0.28000000000000003,-0.56000000000000005,0
289,1782569794293,0.28000000000000003,-0.48999999999999999,0
290,1782569794311,0.20999999999999999,-0.48999999999999999,0
291,1782569794343,0.20999999999999999,-0.48999999999999999,0
292,1782569794360,0.20999999999999999,-0.48999999999999999,0
293,1782569794427,0.20999999999999999,-0.56000000000000005,0
294,1782569794494,0.28000000000000003,-0.48999999999999999,-0.070000000000000007
295,1782569794543,0.28000000000000003,-0.48999999999999999,-0.070000000000000007
296,1782569794576,0.28000000000000003,-0.56000000000000005,-0.070000000000000007
297,1782569794593,0.28000000000000003,-0.56000000000000005,0
298,1782569794643,0.28000000000000003,-0.56000000000000005,0
299,1782569794743,0.28000000000000003,-0.56000000000000005,0
300,1782569794826,0.28000000000000003,-0.56000000000000005,0
301,1782569794877,0.20999999999999999,-0.56000000000000005,0
302,1782569794893,0.20999999999999999,-0.56000000000000005,0.070000000000000007
303,1782569794926,0.20999999999999999,-0.56000000000000005,0.070000000000000007
304,1782569794943,0.20999999999999999,-0.56000000000000005,0.070000000000000007
305,1782569794959,0.20999999999999999,-0.48999999999999999,0
306,1782569794992,0.20999999999999999,-0.48999999999999999,0
307,1782569795059,0.20999999999999999,-0.48999999999999999,0
308,1782569795109,0.20999999999999999,-0.56000000000000005,0
309,1782569795176,0.20999999999999999,-0.56000000000000005,0
310,1782569795259,0.20999999999999999,-0.56000000000000005,0
311,1782569795309,0.20999999999999999,-0.56000000000000005,0
312,1782569795376,0.14000000000000001,-0.48999999999999999,0
313,1782569795409,0.20999999999999999,-0.48999999999999999,0
314,1782569795459,0.20999999999999999,-0.48999999999999999,0
315,1782569795509,0.14000000000000001,-0.48999999999999999,0
316,1782569795576,0.20999999999999999,-0.48999999999999999,0
317,1782569795642,0.28000000000000003,-0.48999999999999999,0
318,1782569795709,0.28000000000000003,-0.48999999999999999,0
319,1782569795759,0.28000000000000003,-0.48999999999999999,-0.070000000000000007
320,1782569795808,0.20999999999999999,-0.48999999999999999,-0.070000000000000007
321,1782569795859,0.20999999999999999,-0.48999999999999999,-0.070000000000000007
322,1782569795891,0.28000000000000003,-0.56000000000000005,-0.070000000000000007
323,1782569795925,0.28000000000000003,-0.56000000000000005,-0.070000000000000007
324,1782569795975,0.28000000000000003,-0.48999999999999999,0
325,1782569795993,0.28000000000000003,-0.56000000000000005,0
326,1782569796025,0.28000000000000003,-0.56000000000000005,0
327,1782569796076,0.28000000000000003,-0.56000000000000005,0
328,1782569796208,0.20999999999999999,-0.41999999999999998,-0.070000000000000007
329,1782569796225,0.20999999999999999,-0.48999999999999999,-0.070000000000000007
330,1782569796258,0.20999999999999999,-0.48999999999999999,-0.070000000000000007
331,1782569796291,0.20999999999999999,-0.48999999999999999,0
332,1782569796308,0.28000000000000003,-0.48999999999999999,0
333,1782569796342,0.28000000000000003,-0.48999999999999999,0
334,1782569796391,0.28000000000000003,-0.48999999999999999,0
335,1782569796441,0.28000000000000003,-0.48999999999999999,0
336,1782569796474,0.20999999999999999,-0.56000000000000005,0
337,1782569796491,0.20999999999999999,-0.48999999999999999,0
338,1782569796524,0.14000000000000001,-0.56000000000000005,0
339,1782569796592,0.20999999999999999,-0.56000000000000005,0
340,1782569796641,0.20999999999999999,-0.56000000000000005,0
341,1782569796707,0.20999999999999999,-0.48999999999999999,0
342,1782569796774,0.20999999999999999,-0.48999999999999999,0
343,1782569796774,0.28000000000000003,-0.48999999999999999,-0.070000000000000007
344,1782569796875,0.28000000000000003,-0.48999999999999999,-0.070000000000000007
345,1782569796974,0.28000000000000003,-0.48999999999999999,-0.070000000000000007
346,1782569797007,0.28000000000000003,-0.48999999999999999,-0.070000000000000007
347,1782569797075,0.28000000000000003,-0.56000000000000005,0
348,1782569797091,0.28000000000000003,-0.56000000000000005,-0.070000000000000007
349,1782569797141,0.20999999999999999,-0.56000000000000005,-0.070000000000000007
350,1782569797174,0.20999999999999999,-0.48999999999999999,-0.070000000000000007
351,1782569797257,0.20999999999999999,-0.48999999999999999,-0.070000000000000007
352,1782569797324,0.28000000000000003,-0.48999999999999999,-0.070000000000000007
353,1782569797390,0.28000000000000003,-0.56000000000000005,-0.070000000000000007
354,1782569797423,0.28000000000000003,-0.56000000000000005,-0.070000000000000007
355,1782569797473,0.28000000000000003,-0.48999999999999999,0
356,1782569797540,0.28000000000000003,-0.48999999999999999,0
357,1782569797606,0.28000000000000003,-0.56000000000000005,0
358,1782569797656,0.28000000000000003,-0.48999999999999999,0
359,1782569797723,0.20999999999999999,-0.56000000000000005,0
360,1782569797790,0.28000000000000003,-0.56000000000000005,0
361,1782569797840,0.28000000000000003,-0.56000000000000005,0
362,1782569797923,0.20999999999999999,-0.56000000000000005,0
363,1782569798006,0.28000000000000003,-0.56000000000000005,0
364,1782569798106,0.28000000000000003,-0.48999999999999999,-0.070000000000000007
365,1782569798173,0.28000000000000003,-0.48999999999999999,-0.070000000000000007
366,1782569798206,0.28000000000000003,-0.48999999999999999,-0.070000000000000007
367,1782569798290,0.28000000000000003,-0.56000000000000005,0
368,1782569798339,0.28000000000000003,-0.48999999999999999,-0.070000000000000007
369,1782569798372,0.28000000000000003,-0.48999999999999999,-0.070000000000000007
370,1782569798489,0.28000000000000003,-0.48999999999999999,-0.070000000000000007
371,1782569798539,0.28000000000000003,-0.56000000000000005,0
372,1782569798589,0.28000000000000003,-0.48999999999999999,0
373,1782569798655,0.20999999999999999,-0.63,0
374,1782569798722,0.20999999999999999,-0.63,0
375,1782569798789,0.28000000000000003,-0.56000000000000005,0
376,1782569798839,0.28000000000000003,-0.56000000000000005,-0.070000000000000007
377,1782569798890,0.20999999999999999,-0.56000000000000005,0
378,1782569798939,0.20999999999999999,-0.48999999999999999,0
379,1782569798973,0.20999999999999999,-0.48999999999999999,0
380,1782569799056,0.28000000000000003,-0.48999999999999999,0
381,1782569799088,0.20999999999999999,-0.48999999999999999,0
382,1782569799172,0.20999999999999999,-0.48999999999999999,0
383,1782569799205,0.28000000000000003,-0.48999999999999999,0
384,1782569799272,0.20999999999999999,-0.48999999999999999,-0.070000000000000007
385,1782569799338,0.20999999999999999,-0.48999999999999999,-0.070000000000000007
386,1782569799371,0.20999999999999999,-0.48999999999999999,0
387,1782569799455,0.20999999999999999,-0.56000000000000005,0
388,1782569799521,0.20999999999999999,-0.56000000000000005,-0.070000000000000007
389,1782569799604,0.20999999999999999,-0.56000000000000005,0
390,1782569799654,0.20999999999999999,-0.56000000000000005,0
391,1782569799688,0.20999999999999999,-0.56000000000000005,0
392,1782569799738,0.20999999999999999,-0.56000000000000005,0
393,1782569799804,0.20999999999999999,-0.56000000000000005,-0.070000000000000007
394,1782569799871,0.34999999999999998,-0.48999999999999999,-0.070000000000000007
395,1782569799888,0.34999999999999998,-0.48999999999999999,-0.070000000000000007
396,1782569799921,0.34999999999999998,-0.48999999999999999,-0.070000000000000007
397,1782569799938,0.34999999999999998,-0.48999999999999999,-0.070000000000000007
398,1782569799954,0.20999999999999999,-0.48999999999999999,-0.070000000000000007
399,1782569799988,0.20999999999999999,-0.48999999999999999,-0.070000000000000007
400,1782569800004,0.20999999999999999,-0.48999999999999999,0
401,1782569800021,0.20999999999999999,-0.48999999999999999,0
402,1782569800038,0.28000000000000003,-0.48999999999999999,-0.070000000000000007
403,1782569800071,0.28000000000000003,-0.48999999999999999,-0.070000000000000007
404,1782569800087,0.34999999999999998,-0.56000000000000005,0
405,1782569800121,0.28000000000000003,-0.48999999999999999,0
406,1782569800171,0.28000000000000003,-0.56000000000000005,0
407,1782569800287,0.28000000000000003,-0.48999999999999999,0
408,1782569800337,0.20999999999999999,-0.56000000000000005,0
409,1782569800405,0.20999999999999999,-0.56000000000000005,0
410,1782569800504,0.20999999999999999,-0.56000000000000005,-0.070000000000000007
411,1782569800554,0.20999999999999999,-0.56000000000000005,-0.070000000000000007
412,1782569800588,0.20999999999999999,-0.48999999999999999,0
413,1782569800653,0.20999999999999999,-0.48999999999999999,0
414,1782569800720,0.20999999999999999,-0.48999999999999999,0
415,1782569800753,0.20999999999999999,-0.48999999999999999,0
416,1782569800787,0.28000000000000003,-0.56000000000000005,0
417,1782569800854,0.28000000000000003,-0.56000000000000005,-0.070000000000000007
418,1782569800854,0.20999999999999999,-0.56000000000000005,-0.070000000000000007
419,1782569800937,0.20999999999999999,-0.56000000000000005,-0.070000000000000007
420,1782569800953,0.20999999999999999,-0.56000000000000005,0
421,1782569801003,0.20999999999999999,-0.56000000000000005,0
422,1782569801053,0.20999999999999999,-0.56000000000000005,-0.070000000000000007
423,1782569801103,0.20999999999999999,-0.56000000000000005,-0.070000000000000007
424,1782569801153,0.20999999999999999,-0.56000000000000005,0
425,1782569801186,0.28000000000000003,-0.56000000000000005,-0.070000000000000007
426,1782569801203,0.28000000000000003,-0.56000000000000005,-0.070000000000000007
427,1782569801219,0.28000000000000003,-0.48999999999999999,-0.070000000000000007
428,1782569801253,0.28000000000000003,-0.48999999999999999,-0.070000000000000007
429,1782569801303,0.28000000000000003,-0.56000000000000005,-0.070000000000000007
430,1782569801436,0.20999999999999999,-0.48999999999999999,0
431,1782569801469,0.20999999999999999,-0.48999999999999999,0
432,1782569801536,0.28000000000000003,-0.48999999999999999,-0.070000000000000007
433,1782569801570,0.28000000000000003,-0.48999999999999999,-0.070000000000000007
434,1782569801586,0.28000000000000003,-0.56000000000000005,-0.070000000000000007
435,1782569801620,0.20999999999999999,-0.56000000000000005,-0.070000000000000007
436,1782569801686,0.20999999999999999,-0.48999999999999999,0
437,1782569801769,0.20999999999999999,-0.48999999999999999,0
438,1782569801835,6.9299999999999997,-0.48999999999999999,0
439,1782569801852,0.20999999999999999,-0.48999999999999999,0
440,1782569801869,0.20999999999999999,-0.56000000000000005,-0.070000000000000007
441,1782569801902,0.28000000000000003,-0.56000000000000005,-0.070000000000000007
442,1782569801936,0.28000000000000003,-0.56000000000000005,-0.070000000000000007
443,1782569801969,0.28000000000000003,-0.48999999999999999,-0.070000000000000007
444,1782569802002,0.28000000000000003,-0.56000000000000005,-0.070000000000000007
445,1782569802035,0.28000000000000003,-0.56000000000000005,0
446,1782569802086,0.28000000000000003,-0.56000000000000005,0
447,1782569802152,0.28000000000000003,-0.56000000000000005,0
448,1782569802169,0.20999999999999999,-0.56000000000000005,0
449,1782569802186,0.20999999999999999,-0.56000000000000005,0
450,1782569802235,0.20999999999999999,-0.56000000000000005,0
451,1782569802302,0.20999999999999999,-0.56000000000000005,0
452,1782569802336,0.20999999999999999,-0.48999999999999999,-0.070000000000000007
453,1782569802385,0.20999999999999999,-0.48999999999999999,0
454,1782569802435,0.20999999999999999,-0.48999999999999999,0
455,1782569802485,0.20999999999999999,-0.56000000000000005,0
456,1782569802552,0.20999999999999999,-0.56000000000000005,0
457,1782569802585,0.28000000000000003,-0.56000000000000005,0
458,1782569802618,0.14000000000000001,-0.56000000000000005,0
459,1782569802668,0.20999999999999999,-0.56000000000000005,0
460,1782569802735,0.14000000000000001,-0.48999999999999999,0
461,1782569802768,0.20999999999999999,-0.48999999999999999,0
462,1782569802868,0.20999999999999999,-0.48999999999999999,0
463,1782569802951,0.20999999999999999,-0.48999999999999999,-0.070000000000000007
464,1782569803051,0.20999999999999999,-0.48999999999999999,0
465,1782569803101,0.20999999999999999,-0.48999999999999999,0
466,1782569803151,0.20999999999999999,-0.56000000000000005,0
467,1782569803201,0.20999999999999999,-0.48999999999999999,-0.070000000000000007
468,1782569803301,0.28000000000000003,-0.48999999999999999,-0.070000000000000007
469,1782569803384,0.28000000000000003,-0.48999999999999999,-0.070000000000000007
470,1782569803451,0.28000000000000003,-0.56000000000000005,-0.070000000000000007
471,1782569803484,0.20999999999999999,-0.56000000000000005,-0.070000000000000007
472,1782569803517,0.20999999999999999,-0.56000000000000005,-0.070000000000000007
473,1782569803584,0.20999999999999999,-0.56000000000000005,-0.070000000000000007
474,1782569803650,0.20999999999999999,-0.56000000000000005,-0.070000000000000007
475,1782569803734,0.20999999999999999,-0.56000000000000005,-0.070000000000000007
476,1782569803800,0.14000000000000001,-0.48999999999999999,-0.070000000000000007
477,1782569803833,0.14000000000000001,-0.48999999999999999,-0.070000000000000007
478,1782569803900,0.14000000000000001,-0.48999999999999999,-0.070000000000000007
479,1782569803950,0.20999999999999999,-0.48999999999999999,0
480,1782569804000,0.20999999999999999,-0.48999999999999999,-0.070000000000000007
481,1782569804083,0.34999999999999998,-0.48999999999999999,0
482,1782569804133,0.34999999999999998,-0.48999999999999999,0
483,1782569804200,0.20999999999999999,-0.48999999999999999,0
484,1782569804266,0.20999999999999999,-0.48999999999999999,0
485,1782569804350,0.28000000000000003,-0.48999999999999999,0
486,1782569804400,0.28000000000000003,-0.48999999999999999,0
487,1782569804483,0.28000000000000003,-0.48999999999999999,-0.070000000000000007
488,1782569804566,0.20999999999999999,-0.48999999999999999,-0.070000000000000007
489,1782569804616,0.28000000000000003,-0.56000000000000005,0
490,1782569804649,0.20999999999999999,-0.56000000000000005,-0.070000000000000007
491,1782569804717,0.20999999999999999,-0.56000000000000005,0
492,1782569804750,0.14000000000000001,-0.48999999999999999,0
493,1782569804816,0.28000000000000003,-0.48999999999999999,0
494,1782569804882,0.20999999999999999,-0.48999999999999999,0
495,1782569804916,0.28000000000000003,-0.48999999999999999,0
496,1782569804949,0.20999999999999999,-0.48999999999999999,0
497,1782569804966,0.20999999999999999,-0.48999999999999999,0
498,1782569805015,0.20999999999999999,-0.48999999999999999,0
499,1782569805049,0.20999999999999999,-0.56000000000000005,0
500,1782569805066,0.20999999999999999,-0.56000000000000005,0
501,1782569805099,0.20999999999999999,-0.56000000000000005,0
502,1782569805115,0.20999999999999999,-0.56000000000000005,-0.070000000000000007
503,1782569805132,0.20999999999999999,-0.56000000000000005,-0.070000000000000007
504,1782569805199,0.20999999999999999,-0.56000000000000005,-0.070000000000000007
505,1782569805299,0.28000000000000003,-0.48999999999999999,0
506,1782569805332,0.28000000000000003,-0.48999999999999999,0
507,1782569805365,0.20999999999999999,-0.48999999999999999,0
508,1782569805399,0.28000000000000003,-0.48999999999999999,0
509,1782569805432,0.28000000000000003,-0.48999999999999999,0
510,1782569805465,0.28000000000000003,-0.48999999999999999,0
511,1782569805526,0.28000000000000003,-0.48999999999999999,0
512,1782569805577,0.28000000000000003,-0.56000000000000005,0
513,1782569805583,0.28000000000000003,-0.56000000000000005,0
514,1782569805615,0.28000000000000003,-0.56000000000000005,0
515,1782569805632,0.28000000000000003,-0.56000000000000005,0
516,1782569805732,0.28000000000000003,-0.56000000000000005,0
517,1782569805815,0.28000000000000003,-0.56000000000000005,0
518,1782569805865,0.28000000000000003,-0.48999999999999999,0
519,1782569805932,0.28000000000000003,-0.48999999999999999,0
520,1782569805949,0.28000000000000003,-0.56000000000000005,-0.070000000000000007
521,1782569805982,0.20999999999999999,-0.56000000000000005,-0.070000000000000007
522,1782569806048,0.20999999999999999,-0.56000000000000005,-0.070000000000000007
523,1782569806115,0.20999999999999999,-0.56000000000000005,-0.070000000000000007
524,1782569806198,0.20999999999999999,-0.56000000000000005,-0.070000000000000007
525,1782569806215,0.20999999999999999,-0.56000000000000005,-0.070000000000000007
526,1782569806232,0.20999999999999999,-0.56000000000000005,-0.070000000000000007
527,1782569806265,0.20999999999999999,-0.56000000000000005,0
528,1782569806282,0.20999999999999999,-0.56000000000000005,0
529,1782569806315,0.28000000000000003,-0.56000000000000005,0
530,1782569806381,0.28000000000000003,-0.56000000000000005,0
531,1782569806431,0.28000000000000003,-0.56000000000000005,0
532,1782569806465,0.28000000000000003,-0.48999999999999999,-0.070000000000000007
533,1782569806500,0.28000000000000003,-0.56000000000000005,0
534,1782569806514,0.28000000000000003,-0.48999999999999999,0
535,1782569806534,0.28000000000000003,-0.48999999999999999,-0.070000000000000007
536,1782569806565,0.28000000000000003,-0.48999999999999999,-0.070000000000000007
537,1782569806598,0.28000000000000003,-0.48999999999999999,0
538,1782569806666,0.28000000000000003,-0.48999999999999999,-0.070000000000000007
539,1782569806682,0.20999999999999999,-0.56000000000000005,0
540,1782569806716,0.20999999999999999,-0.56000000000000005,0
541,1782569806766,0.20999999999999999,-0.56000000000000005,0
542,1782569806816,0.20999999999999999,-0.56000000000000005,0
543,1782569806881,0.20999999999999999,-0.56000000000000005,0
544,1782569806898,0.20999999999999999,-0.56000000000000005,0
545,1782569806947,0.20999999999999999,-0.56000000000000005,0
546,1782569806981,0.28000000000000003,-0.48999999999999999,0
547,1782569806999,0.28000000000000003,-0.48999999999999999,0
548,1782569807015,0.28000000000000003,-0.48999999999999999,0
549,1782569807116,0.28000000000000003,-0.48999999999999999,-0.070000000000000007
550,1782569807132,0.28000000000000003,-0.48999999999999999,0
551,1782569807181,0.28000000000000003,-0.48999999999999999,-0.070000000000000007
552,1782569807232,0.20999999999999999,-0.56000000000000005,-0.070000000000000007
553,1782569807281,0.20999999999999999,-0.56000000000000005,0
554,1782569807347,0.20999999999999999,-0.56000000000000005,-0.070000000000000007
555,1782569807397,0.28000000000000003,-0.56000000000000005,-0.070000000000000007
556,1782569807431,0.28000000000000003,-0.48999999999999999,-0.070000000000000007
557,1782569807497,0.20999999999999999,-0.48999999999999999,0
558,1782569807531,0.28000000000000003,-0.48999999999999999,-0.070000000000000007
559,1782569807598,0.20999999999999999,-0.48999999999999999,0
560,1782569807614,0.20999999999999999,-0.48999999999999999,0
561,1782569807630,0.20999999999999999,-0.48999999999999999,-0.070000000000000007
562,1782569807764,0.20999999999999999,-0.56000000000000005,-0.070000000000000007
563,1782569807814,0.20999999999999999,-0.48999999999999999,0
564,1782569807863,0.20999999999999999,-0.48999999999999999,-0.070000000000000007
565,1782569807947,0.20999999999999999,-0.56000000000000005,0
566,1782569807996,0.28000000000000003,-0.48999999999999999,0
567,1782569808047,0.28000000000000003,-0.48999999999999999,0
568,1782569808096,0.28000000000000003,-0.48999999999999999,-0.070000000000000007
569,1782569808147,0.28000000000000003,-0.56000000000000005,-0.070000000000000007
570,1782569808213,0.20999999999999999,-0.56000000000000005,0
571,1782569808263,0.28000000000000003,-0.56000000000000005,0
572,1782569808397,0.20999999999999999,-0.48999999999999999,0
573,1782569808430,0.20999999999999999,-0.48999999999999999,0
574,1782569808446,0.20999999999999999,-0.48999999999999999,0
575,1782569808480,0.28000000000000003,-0.48999999999999999,0
576,1782569808530,0.28000000000000003,-0.48999999999999999,0
577,1782569808580,0.28000000000000003,-0.48999999999999999,0
578,1782569808630,0.28000000000000003,-0.48999999999999999,0
579,1782569808679,0.28000000000000003,-0.56000000000000005,0
580,1782569808712,0.28000000000000003,-0.56000000000000005,0
581,1782569808746,0.28000000000000003,-0.56000000000000005,0
582,1782569808862,0.28000000000000003,-0.48999999999999999,0
583,1782569808912,0.20999999999999999,-0.56000000000000005,0
584,1782569808962,0.20999999999999999,-0.56000000000000005,-0.070000000000000007
585,1782569808996,0.20999999999999999,-0.56000000000000005,0
586,1782569809012,0.20999999999999999,-0.56000000000000005,0
587,1782569809029,0.28000000000000003,-0.56000000000000005,0
588,1782569809145,0.28000000000000003,-0.48999999999999999,-0.070000000000000007
589,1782569809228,0.28000000000000003,-0.48999999999999999,0
590,1782569809279,0.28000000000000003,-0.48999999999999999,0
591,1782569809295,0.28000000000000003,-0.48999999999999999,0
592,1782569809346,0.20999999999999999,-0.56000000000000005,0
593,1782569809395,0.20999999999999999,-0.48999999999999999,0.070000000000000007
594,1782569809446,0.28000000000000003,-0.48999999999999999,0
595,1782569809512,0.20999999999999999,-0.48999999999999999,0
596,1782569809547,0.28000000000000003,-0.48999999999999999,0
597,1782569809579,0.20999999999999999,-0.48999999999999999,0
598,1782569809711,0.20999999999999999,-0.56000000000000005,0
599,1782569809744,0.28000000000000003,-0.56000000000000005,0
600,1782569809777,0.20999999999999999,-0.56000000000000005,0
601,1782569809794,0.20999999999999999,-0.56000000000000005,0
602,1782569809811,0.20999999999999999,-0.48999999999999999,0
603,1782569809861,0.20999999999999999,-0.48999999999999999,0
604,1782569809911,0.20999999999999999,-0.48999999999999999,0
605,1782569809961,0.28000000000000003,-0.63,0
606,1782569809977,0.20999999999999999,-0.56000000000000005,0
607,1782569810011,0.20999999999999999,-0.56000000000000005,0
608,1782569810028,0.20999999999999999,-0.63,0
609,1782569810094,0.20999999999999999,-0.56000000000000005,0
610,1782569810128,0.20999999999999999,-0.56000000000000005,0
611,1782569810195,0.28000000000000003,-0.56000000000000005,0
612,1782569810244,0.20999999999999999,-0.56000000000000005,0
613,1782569810277,0.20999999999999999,-0.56000000000000005,0
614,1782569810327,0.20999999999999999,-0.56000000000000005,0
615,1782569810361,0.20999999999999999,-0.56000000000000005,0
616,1782569810428,0.20999999999999999,-0.48999999999999999,0
617,1782569810477,0.20999999999999999,-0.48999999999999999,0
618,1782569810543,0.28000000000000003,-0.48999999999999999,0
619,1782569810560,0.28000000000000003,-0.48999999999999999,0
620,1782569810610,0.28000000000000003,-0.48999999999999999,-0.070000000000000007
621,1782569810643,0.28000000000000003,-0.48999999999999999,-0.070000000000000007
622,1782569810660,0.28000000000000003,-0.48999999999999999,-0.070000000000000007
623,1782569810693,0.20999999999999999,-0.48999999999999999,-0.070000000000000007
624,1782569810744,0.28000000000000003,-0.48999999999999999,-0.070000000000000007
625,1782569810810,0.20999999999999999,-0.48999999999999999,-0.070000000000000007
626,1782569810910,0.20999999999999999,-0.48999999999999999,-0.070000000000000007
627,1782569810926,0.20999999999999999,-0.48999999999999999,-0.070000000000000007
628,1782569810943,0.20999999999999999,-0.56000000000000005,-0.070000000000000007
629,1782569810976,0.20999999999999999,-0.48999999999999999,0
630,1782569810994,0.20999999999999999,-0.56000000000000005,0
631,1782569811093,0.28000000000000003,-0.56000000000000005,-0.070000000000000007
632,1782569811126,0.28000000000000003,-0.56000000000000005,-0.070000000000000007
633,1782569811193,0.28000000000000003,-0.56000000000000005,-0.070000000000000007
634,1782569811293,0.28000000000000003,-0.48999999999999999,0
635,1782569811326,0.28000000000000003,-0.48999999999999999,0
636,1782569811359,0.20999999999999999,-0.56000000000000005,0
637,1782569811393,0.20999999999999999,-0.56000000000000005,0
638,1782569811426,0.20999999999999999,-0.48999999999999999,0
639,1782569811443,0.20999999999999999,-0.48999999999999999,0
640,1782569811459,0.20999999999999999,-0.48999999999999999,0
641,1782569811493,0.14000000000000001,-0.48999999999999999,0
642,1782569811542,0.20999999999999999,-0.48999999999999999,0
643,1782569811626,0.20999999999999999,-0.56000000000000005,0
644,1782569811659,0.20999999999999999,-0.48999999999999999,0
645,1782569811725,0.20999999999999999,-0.48999999999999999,0
646,1782569811759,0.20999999999999999,-0.56000000000000005,0
647,1782569811826,0.20999999999999999,-0.56000000000000005,0
648,1782569811860,0.20999999999999999,-0.56000000000000005,0
649,1782569811909,0.28000000000000003,-0.56000000000000005,0
650,1782569811959,0.28000000000000003,-0.56000000000000005,0
651,1782569811992,0.20999999999999999,-0.48999999999999999,0
652,1782569812043,0.20999999999999999,-0.56000000000000005,0
653,1782569812109,0.20999999999999999,-0.56000000000000005,0
654,1782569812143,0.20999999999999999,-0.56000000000000005,0
655,1782569812209,0.20999999999999999,-0.56000000000000005,0
656,1782569812259,0.20999999999999999,-0.56000000000000005,0
657,1782569812309,0.28000000000000003,-0.56000000000000005,0
658,1782569812375,0.28000000000000003,-0.56000000000000005,0
659,1782569812425,0.20999999999999999,-0.56000000000000005,0
660,1782569812492,0.20999999999999999,-0.56000000000000005,0
661,1782569812591,0.28000000000000003,-0.48999999999999999,-0.070000000000000007
662,1782569812625,0.28000000000000003,-0.56000000000000005,-0.070000000000000007
663,1782569812692,0.20999999999999999,-0.56000000000000005,0
664,1782569812758,0.20999999999999999,-0.56000000000000005,0
665,1782569812875,0.28000000000000003,-0.56000000000000005,0
666,1782569812974,0.20999999999999999,-0.56000000000000005,0
667,1782569813025,0.20999999999999999,-0.56000000000000005,0
668,1782569813141,0.28000000000000003,-0.48999999999999999,0
669,1782569813357,0.28000000000000003,-0.48999999999999999,-0.070000000000000007
670,1782569813424,0.28000000000000003,-0.48999999999999999,0
671,1782569813458,0.28000000000000003,-0.48999999999999999,0
672,1782569813524,0.28000000000000003,-0.56000000000000005,0
673,1782569813574,0.28000000000000003,-0.56000000000000005,0
674,1782569813657,0.28000000000000003,-0.56000000000000005,-0.070000000000000007
675,1782569813690,-0.34999999999999998,-1.1200000000000001,-12.529999999999999
676,1782569813757,0.28000000000000003,-1.05,-14.630000000000001
677,1782569813791,0.28000000000000003,-0.28000000000000003,-15.75
678,1782569813857,0.34999999999999998,0,-17.57
679,1782569813907,0.34999999999999998,0.28000000000000003,-17.57
680,1782569813957,0.34999999999999998,0.28000000000000003,-17.57
681,1782569814007,0.48999999999999999,-0.28000000000000003,-0.69999999999999996
682,1782569814074,0.14000000000000001,-0.48999999999999999,-1.1200000000000001
683,1782569814107,-0.56000000000000005,-0.77000000000000002,-2.52
684,1782569814173,-3.0800000000000001,-0.97999999999999998,-5.25
685,1782569814207,-3.0800000000000001,-0.97999999999999998,-7.9100000000000001
686,1782569814306,-2.7999999999999998,-1.54,-5.8799999999999999
687,1782569814391,-2.3799999999999999,-1.3999999999999999,-10.08
688,1782569814439,-2.3799999999999999,-1.3300000000000001,-10.08
689,1782569814506,-1.96,-0.97999999999999998,-10.08
690,1782569814556,0.41999999999999998,-0.97999999999999998,-8.9600000000000009
691,1782569814607,2.4500000000000002,2.0299999999999998,-0.28000000000000003
692,1782569814672,0.070000000000000007,2.0299999999999998,-0.28000000000000003
693,1782569814723,2.2400000000000002,2.0299999999999998,0
694,1782569814773,2.2400000000000002,0,0
695,1782569814806,0.070000000000000007,-0.56000000000000005,0
696,1782569814857,-0.34999999999999998,-0.56000000000000005,0
697,1782569814923,6.9299999999999997,4.2000000000000002,19.460000000000001
698,1782569814990,4.1299999999999999,-0.91000000000000003,19.739999999999998
699,1782569815056,-0.48999999999999999,-0.91000000000000003,20.370000000000001
700,1782569815106,-2.5899999999999999,-1.26,22.120000000000001
701,1782569815173,5.8099999999999996,1.8899999999999999,14.07
702,1782569815207,6.1600000000000001,1.8899999999999999,17.43
703,1782569815273,6.1600000000000001,1.3999999999999999,18.899999999999999
704,1782569815323,5.8099999999999996,1.3999999999999999,21.07
705,1782569815372,5.5300000000000002,1.3999999999999999,24.149999999999999
706,1782569815406,3.6400000000000001,1.8899999999999999,25.690000000000001
707,1782569815423,3.5699999999999998,1.3999999999999999,29.68
708,1782569815472,5.3200000000000003,0.28000000000000003,-57.259999999999998
709,1782569815539,7.21,1.3300000000000001,-34.859999999999999
710,1782569815605,7.21,6.0199999999999996,-13.369999999999999
711,1782569815639,7.21,6.0199999999999996,6.0199999999999996
712,1782569815705,3.6400000000000001,1.3300000000000001,9.4499999999999993
713,1782569815705,-0.77000000000000002,-2.2400000000000002,-30.100000000000001
714,1782569815739,-0.77000000000000002,-2.2400000000000002,-44.869999999999997
715,1782569815806,-0.77000000000000002,-2.2400000000000002,-52.009999999999998
716,1782569815905,1.6100000000000001,-0.97999999999999998,-56.420000000000002
717,1782569815955,1.6100000000000001,0,-56.420000000000002
718,1782569816039,-0.97999999999999998,-0.97999999999999998,-31.289999999999999
719,1782569816105,-0.97999999999999998,-0.97999999999999998,-37.590000000000003
720,1782569816155,-0.20999999999999999,-1.54,-40.039999999999999
721,1782569816205,1.54,-0.97999999999999998,-40.039999999999999
722,1782569816288,-2.7999999999999998,-1.54,-48.090000000000003
723,1782569816355,-0.070000000000000007,0.77000000000000002,-48.090000000000003
724,1782569816388,2.4500000000000002,2.6600000000000001,-48.090000000000003
725,1782569816438,2.4500000000000002,2.6600000000000001,-29.82
726,1782569816489,2.4500000000000002,2.6600000000000001,-1.54
727,1782569816572,-0.97999999999999998,-1.6799999999999999,-45.780000000000001
728,1782569816772,-0.91000000000000003,-2.2400000000000002,-60.829999999999998
729,1782569816838,-0.91000000000000003,-1.3999999999999999,-68.390000000000001
730,1782569816871,6.2300000000000004,1.26,-9.5199999999999996
731,1782569816939,6.2300000000000004,1.26,-16.59
732,1782569816988,3.1499999999999999,-1.47,-30.73
733,1782569817038,-1.8899999999999999,-2.73,-39.759999999999998
734,1782569817087,-1.8899999999999999,-2.73,-47.039999999999999
735,1782569817137,-1.8899999999999999,-2.73,-51.240000000000002
736,1782569817188,0.41999999999999998,-0.56000000000000005,0
737,1782569817322,0.14000000000000001,-0.56000000000000005,0
738,1782569817355,0.14000000000000001,-0.69999999999999996,0
739,1782569817371,0.20999999999999999,-0.56000000000000005,0
740,1782569817389,0.20999999999999999,-0.48999999999999999,-0.070000000000000007
741,1782569817421,0.14000000000000001,-0.56000000000000005,-0.070000000000000007
742,1782569817487,0.20999999999999999,-0.48999999999999999,0
743,1782569817553,0.20999999999999999,-0.56000000000000005,0.070000000000000007
744,1782569817604,0.28000000000000003,-0.56000000000000005,0.070000000000000007
745,1782569817637,0.28000000000000003,-0.56000000000000005,0
746,1782569817671,0.28000000000000003,-0.56000000000000005,0
747,1782569817688,0.28000000000000003,-0.56000000000000005,0
748,1782569817705,0.20999999999999999,-0.63,0
749,1782569817770,0.28000000000000003,-0.56000000000000005,0
750,1782569817820,0.28000000000000003,-0.56000000000000005,0
751,1782569817870,0.20999999999999999,-0.56000000000000005,0
752,1782569817920,0.28000000000000003,-0.56000000000000005,0
753,1782569817953,0.28000000000000003,-0.56000000000000005,0
754,1782569817970,0.20999999999999999,-0.56000000000000005,0
755,1782569818003,0.28000000000000003,-0.48999999999999999,0
756,1782569818054,0.28000000000000003,-0.56000000000000005,0
757,1782569818103,0.20999999999999999,-0.56000000000000005,0
758,1782569818136,0.28000000000000003,-0.56000000000000005,0
759,1782569818220,0.28000000000000003,-0.56000000000000005,0
760,1782569818254,0.28000000000000003,-0.56000000000000005,0
761,1782569818287,0.34999999999999998,-0.48999999999999999,0
762,1782569818353,0.28000000000000003,-0.56000000000000005,0
763,1782569818453,0.20999999999999999,-0.56000000000000005,0
764,1782569818552,0.20999999999999999,-0.48999999999999999,0
765,1782569818604,0.20999999999999999,-0.48999999999999999,0
766,1782569818652,0.20999999999999999,-0.48999999999999999,0
767,1782569818702,0.20999999999999999,-0.48999999999999999,0
768,1782569818753,0.20999999999999999,-0.56000000000000005,0
769,1782569818802,0.20999999999999999,-0.56000000000000005,0
770,1782569818836,0.20999999999999999,-0.56000000000000005,0
771,1782569818836,0.20999999999999999,-0.56000000000000005,0
772,1782569818903,0.28000000000000003,-0.56000000000000005,0
773,1782569818952,0.20999999999999999,-0.56000000000000005,0
774,1782569819003,0.28000000000000003,-0.56000000000000005,0
775,1782569819069,0.28000000000000003,-0.56000000000000005,0
776,1782569819102,0.28000000000000003,-0.56000000000000005,0
777,1782569819168,0.28000000000000003,-0.48999999999999999,0
778,1782569819252,0.28000000000000003,-0.48999999999999999,0
779,1782569819302,0.28000000000000003,-0.48999999999999999,0
780,1782569819353,0.28000000000000003,-0.56000000000000005,0
781,1782569819403,0.28000000000000003,-0.56000000000000005,0
782,1782569819453,0.28000000000000003,-0.48999999999999999,-0.070000000000000007
783,1782569819519,0.28000000000000003,-0.56000000000000005,-0.070000000000000007
784,1782569819536,0.28000000000000003,-0.56000000000000005,0
785,1782569819553,0.28000000000000003,-0.56000000000000005,0
786,1782569819585,0.28000000000000003,-0.56000000000000005,0
787,1782569819604,0.20999999999999999,-0.56000000000000005,0
788,1782569819636,0.28000000000000003,-0.56000000000000005,0
789,1782569819685,0.28000000000000003,-0.56000000000000005,0
790,1782569819785,0.14000000000000001,-0.48999999999999999,0
791,1782569819818,0.20999999999999999,-0.48999999999999999,0
792,1782569819851,0.28000000000000003,-0.48999999999999999,0
793,1782569819884,0.20999999999999999,-0.48999999999999999,0
794,1782569819902,0.28000000000000003,-0.48999999999999999,0
795,1782569819917,0.28000000000000003,-0.48999999999999999,0
796,1782569819951,0.28000000000000003,-0.48999999999999999,0
797,1782569820068,0.28000000000000003,-0.56000000000000005,0
798,1782569820117,0.28000000000000003,-0.56000000000000005,0
799,1782569820168,0.28000000000000003,-0.56000000000000005,0
800,1782569820235,0.28000000000000003,-0.56000000000000005,0
801,1782569820417,0.20999999999999999,-0.56000000000000005,0
802,1782569820450,0.20999999999999999,-0.56000000000000005,0
803,1782569820500,0.20999999999999999,-0.56000000000000005,0
804,1782569820517,0.20999999999999999,-0.48999999999999999,0
805,1782569820534,0.20999999999999999,-0.48999999999999999,0
806,1782569820568,0.20999999999999999,-0.48999999999999999,0
807,1782569820600,0.20999999999999999,-0.56000000000000005,0
808,1782569820667,0.20999999999999999,-0.56000000000000005,0
809,1782569820700,0.20999999999999999,-0.56000000000000005,0
810,1782569820834,0.20999999999999999,-0.48999999999999999,0
811,1782569820866,0.28000000000000003,-0.56000000000000005,-0.070000000000000007
812,1782569820916,0.28000000000000003,-0.48999999999999999,-0.070000000000000007
813,1782569820967,0.20999999999999999,-0.48999999999999999,0
814,1782569821066,0.28000000000000003,-0.48999999999999999,0
815,1782569821100,0.20999999999999999,-0.48999999999999999,0
816,1782569821150,0.34999999999999998,-0.48999999999999999,0
817,1782569821183,0.20999999999999999,-0.48999999999999999,0
818,1782569821234,0.20999999999999999,-0.48999999999999999,0
819,1782569821299,0.20999999999999999,-0.48999999999999999,0
820,1782569821334,0.20999999999999999,-0.48999999999999999,0
821,1782569821400,0.28000000000000003,-0.48999999999999999,0
822,1782569821432,0.28000000000000003,-0.48999999999999999,0
823,1782569821532,0.28000000000000003,-0.48999999999999999,-0.070000000000000007
824,1782569821666,0.28000000000000003,-0.56000000000000005,-0.070000000000000007
825,1782569821733,0.20999999999999999,-0.48999999999999999,0
826,1782569821782,0.20999999999999999,-0.48999999999999999,0
827,1782569821832,0.20999999999999999,-0.48999999999999999,-0.070000000000000007
828,1782569821883,0.20999999999999999,-0.48999999999999999,-0.070000000000000007
829,1782569821932,0.20999999999999999,-0.56000000000000005,-0.070000000000000007
830,1782569821950,0.20999999999999999,-0.56000000000000005,-0.070000000000000007
831,1782569821982,0.20999999999999999,-0.56000000000000005,-0.070000000000000007
832,1782569821999,0.28000000000000003,-0.56000000000000005,0
833,1782569822049,0.28000000000000003,-0.56000000000000005,0
834,1782569822132,0.28000000000000003,-0.56000000000000005,0
835,1782569822182,0.28000000000000003,-0.48999999999999999,0
836,1782569822249,0.28000000000000003,-0.48999999999999999,0
837,1782569822301,0.28000000000000003,-0.48999999999999999,-0.070000000000000007
838,1782569822349,0.28000000000000003,-0.48999999999999999,-0.070000000000000007
839,1782569822383,0.28000000000000003,-0.48999999999999999,-0.070000000000000007
840,1782569822433,0.28000000000000003,-0.48999999999999999,-0.070000000000000007
841,1782569822450,0.28000000000000003,-0.48999999999999999,-0.070000000000000007
842,1782569822483,0.28000000000000003,-0.48999999999999999,-0.070000000000000007
843,1782569822599,0.34999999999999998,-0.48999999999999999,0
844,1782569822665,0.28000000000000003,-0.48999999999999999,0
845,1782569822682,0.28000000000000003,-0.48999999999999999,0
846,1782569822749,0.28000000000000003,-0.48999999999999999,0
847,1782569822849,0.28000000000000003,-0.56000000000000005,-0.070000000000000007
848,1782569822915,0.28000000000000003,-0.56000000000000005,-0.070000000000000007
849,1782569822949,0.28000000000000003,-0.56000000000000005,0
850,1782569823015,0.28000000000000003,-0.56000000000000005,0
851,1782569823115,0.28000000000000003,-0.56000000000000005,0
852,1782569823131,0.28000000000000003,-0.56000000000000005,0
853,1782569823198,0.28000000000000003,-0.48999999999999999,0
854,1782569823249,0.34999999999999998,-0.48999999999999999,0
855,1782569823281,0.28000000000000003,-0.48999999999999999,0
856,1782569823314,0.28000000000000003,-0.48999999999999999,0
857,1782569823398,0.20999999999999999,-0.56000000000000005,0
858,1782569823448,0.20999999999999999,-0.56000000000000005,0
859,1782569823532,0.20999999999999999,-0.56000000000000005,0
860,1782569823597,0.20999999999999999,-0.56000000000000005,0
861,1782569823631,0.20999999999999999,-0.56000000000000005,0
862,1782569823664,0.20999999999999999,-0.56000000000000005,0
863,1782569823714,0.20999999999999999,-0.56000000000000005,0
864,1782569823765,0.28000000000000003,-0.56000000000000005,0
865,1782569823814,0.28000000000000003,-0.56000000000000005,0
866,1782569823898,0.28000000000000003,-0.56000000000000005,-0.070000000000000007
867,1782569823948,0.20999999999999999,-0.48999999999999999,-0.070000000000000007
868,1782569823997,0.20999999999999999,-0.48999999999999999,-0.070000000000000007
869,1782569824047,0.20999999999999999,-0.48999999999999999,0
870,1782569824113,0.28000000000000003,-0.48999999999999999,0
871,1782569824163,0.28000000000000003,-0.48999999999999999,0
872,1782569824214,0.28000000000000003,-0.48999999999999999,-0.070000000000000007
873,1782569824280,0.28000000000000003,-0.56000000000000005,-0.070000000000000007
874,1782569824313,0.28000000000000003,-0.48999999999999999,-0.070000000000000007
875,1782569824381,0.20999999999999999,-0.48999999999999999,-0.070000000000000007
876,1782569824413,0.20999999999999999,-0.48999999999999999,-0.070000000000000007
877,1782569824447,0.20999999999999999,-0.48999999999999999,-0.070000000000000007
878,1782569824463,0.20999999999999999,-0.48999999999999999,-0.070000000000000007
879,1782569824480,0.20999999999999999,-0.48999999999999999,0
880,1782569824514,0.20999999999999999,-0.48999999999999999,0
881,1782569824630,0.20999999999999999,-0.48999999999999999,0
882,1782569824648,0.20999999999999999,-0.48999999999999999,0
883,1782569824681,0.20999999999999999,-0.48999999999999999,-0.070000000000000007
884,1782569824697,0.20999999999999999,-0.56000000000000005,-0.070000000000000007
885,1782569824747,0.20999999999999999,-0.56000000000000005,-0.070000000000000007
886,1782569824797,0.20999999999999999,-0.56000000000000005,-0.070000000000000007
887,1782569824881,0.28000000000000003,-0.48999999999999999,0
888,1782569824962,0.28000000000000003,-0.48999999999999999,0
889,1782569824996,0.28000000000000003,-0.48999999999999999,0
890,1782569825012,0.28000000000000003,-0.48999999999999999,-0.070000000000000007
891,1782569825029,0.28000000000000003,-0.48999999999999999,-0.070000000000000007
892,1782569825062,0.28000000000000003,-0.48999999999999999,-0.070000000000000007
893,1782569825095,0.28000000000000003,-0.48999999999999999,-0.070000000000000007
894,1782569825146,0.28000000000000003,-0.56000000000000005,0
895,1782569825195,0.20999999999999999,-0.48999999999999999,0
896,1782569825279,0.20999999999999999,-0.48999999999999999,0
897,1782569825295,0.28000000000000003,-0.48999999999999999,-0.070000000000000007
898,1782569825329,0.28000000000000003,-0.56000000000000005,0
899,1782569825346,0.28000000000000003,-0.56000000000000005,0
900,1782569825396,0.28000000000000003,-0.56000000000000005,0
901,1782569825462,0.28000000000000003,-0.56000000000000005,-0.070000000000000007
902,1782569825529,0.20999999999999999,-0.56000000000000005,0
903,1782569825612,0.20999999999999999,-0.56000000000000005,0
904,1782569825645,0.20999999999999999,-0.63,0
905,1782569825662,0.20999999999999999,-0.56000000000000005,0
906,1782569825712,0.20999999999999999,-0.48999999999999999,0
907,1782569825829,0.20999999999999999,-0.48999999999999999,0
908,1782569825878,0.20999999999999999,-0.48999999999999999,-0.070000000000000007
909,1782569825911,0.20999999999999999,-0.48999999999999999,-0.070000000000000007
910,1782569825928,0.20999999999999999,-0.56000000000000005,-0.070000000000000007
911,1782569825944,0.20999999999999999,-0.56000000000000005,-0.070000000000000007
912,1782569825978,0.28000000000000003,-0.48999999999999999,0
913,1782569826028,0.28000000000000003,-0.48999999999999999,0
914,1782569826062,0.20999999999999999,-0.48999999999999999,0
915,1782569826095,0.20999999999999999,-0.56000000000000005,0
916,1782569826212,0.20999999999999999,-0.56000000000000005,0
917,1782569826244,0.20999999999999999,-0.48999999999999999,0
918,1782569826411,0.20999999999999999,-0.56000000000000005,0
919,1782569826428,0.20999999999999999,-0.48999999999999999,0
920,1782569826461,0.20999999999999999,-0.48999999999999999,0
921,1782569826478,0.20999999999999999,-0.48999999999999999,0
922,1782569826495,0.20999999999999999,-0.48999999999999999,-0.070000000000000007
923,1782569826561,0.20999999999999999,-0.56000000000000005,0
924,1782569826612,0.20999999999999999,-0.56000000000000005,0
925,1782569826628,0.20999999999999999,-0.56000000000000005,0
926,1782569826645,0.34999999999999998,-0.56000000000000005,0
927,1782569826677,0.34999999999999998,-0.56000000000000005,0
928,1782569826711,0.34999999999999998,-0.56000000000000005,0
929,1782569826761,0.28000000000000003,-0.48999999999999999,0
930,1782569826827,0.28000000000000003,-0.48999999999999999,0
931,1782569826894,0.28000000000000003,-0.48999999999999999,0
932,1782569826944,0.48999999999999999,-0.41999999999999998,7.21
933,1782569826993,1.47,-0.28000000000000003,9.8699999999999992
934,1782569827077,1.47,-0.28000000000000003,14.35
935,1782569827211,-1.6100000000000001,0.77000000000000002,1.1200000000000001
936,1782569827294,-1.6100000000000001,-1.47,1.1200000000000001
937,1782569827360,0.69999999999999996,-1.47,1.47
938,1782569827427,1.3999999999999999,0.28000000000000003,3.6400000000000001
939,1782569827461,1.3999999999999999,0.28000000000000003,4.6200000000000001
940,1782569827476,1.6799999999999999,-0.070000000000000007,-61.18
941,1782569827560,1.6799999999999999,0.56000000000000005,-61.18
942,1782569827627,2.8700000000000001,1.3300000000000001,-61.18
943,1782569827660,4.0599999999999996,2.5899999999999999,-39.340000000000003
944,1782569827727,4.0599999999999996,2.5899999999999999,-14.210000000000001
945,1782569827793,0.97999999999999998,-1.05,-34.789999999999999
946,1782569827911,1.1899999999999999,-1.05,-34.789999999999999
947,1782569827959,2.2400000000000002,2.8700000000000001,-34.789999999999999
948,1782569828159,-1.75,0.28000000000000003,-23.66
949,1782569828193,2.0299999999999998,1.3300000000000001,-23.66
950,1782569828242,2.0299999999999998,1.3300000000000001,-18.48
951,1782569828292,2.0299999999999998,1.3300000000000001,-4.4800000000000004
952,1782569828309,-0.34999999999999998,0.69999999999999996,-21.210000000000001
953,1782569828375,-0.34999999999999998,0.69999999999999996,-8.6099999999999994
954,1782569828409,-1.1200000000000001,0.56000000000000005,0.83999999999999997
955,1782569828475,-1.1200000000000001,-1.8899999999999999,0.97999999999999998
956,1782569828525,-1.1200000000000001,-1.8899999999999999,0.97999999999999998
957,1782569828575,-0.14000000000000001,-1.75,0.83999999999999997
958,1782569828626,0.14000000000000001,-0.48999999999999999,0.070000000000000007
959,1782569828677,0.070000000000000007,-0.56000000000000005,0
960,1782569828725,0.070000000000000007,-0.56000000000000005,0
961,1782569828758,0.14000000000000001,-0.56000000000000005,0
962,1782569828925,0.20999999999999999,-0.56000000000000005,0
963,1782569828975,0.20999999999999999,-0.56000000000000005,0
964,1782569829042,0.20999999999999999,-0.56000000000000005,0
965,1782569829109,0.28000000000000003,-0.56000000000000005,0
966,1782569829209,0.28000000000000003,-0.56000000000000005,0
967,1782569829241,0.28000000000000003,-0.56000000000000005,0
968,1782569829308,0.20999999999999999,-0.56000000000000005,0
969,1782569829358,0.20999999999999999,-0.56000000000000005,0
970,1782569829408,0.20999999999999999,-0.56000000000000005,0
971,1782569829426,0.20999999999999999,-0.56000000000000005,0
972,1782569829441,0.20999999999999999,-0.56000000000000005,0
973,1782569829475,0.20999999999999999,-0.56000000000000005,0
974,1782569829492,0.20999999999999999,-0.56000000000000005,0
975,1782569829524,0.20999999999999999,-0.48999999999999999,0
976,1782569829691,0.20999999999999999,-0.56000000000000005,0
977,1782569829708,0.28000000000000003,-0.48999999999999999,0
978,1782569829725,0.28000000000000003,-0.56000000000000005,0
979,1782569829758,0.28000000000000003,-0.56000000000000005,0
980,1782569829775,0.28000000000000003,-0.56000000000000005,0
981,1782569829874,0.28000000000000003,-0.48999999999999999,0
982,1782569829940,0.28000000000000003,-0.48999999999999999,0
983,1782569829975,0.28000000000000003,-0.48999999999999999,0
984,1782569830008,0.28000000000000003,-0.48999999999999999,0
985,1782569830024,0.28000000000000003,-0.48999999999999999,0
986,1782569830057,0.28000000000000003,-0.48999999999999999,-0.070000000000000007
987,1782569830074,0.28000000000000003,-0.48999999999999999,0
988,1782569830107,0.34999999999999998,-0.48999999999999999,0
989,1782569830141,0.34999999999999998,-0.48999999999999999,0
990,1782569830158,0.28000000000000003,-0.56000000000000005,0
991,1782569830190,0.28000000000000003,-0.56000000000000005,-0.070000000000000007
992,1782569830241,0.20999999999999999,-0.48999999999999999,-0.070000000000000007
993,1782569830307,0.20999999999999999,-0.56000000000000005,-0.070000000000000007
994,1782569830374,0.20999999999999999,-0.48999999999999999,-0.070000000000000007
995,1782569830490,0.20999999999999999,-0.48999999999999999,0
996,1782569830524,0.20999999999999999,-0.48999999999999999,0
997,1782569830541,0.20999999999999999,-0.48999999999999999,0
998,1782569830573,0.20999999999999999,-0.48999999999999999,0
999,1782569830641,0.28000000000000003,-0.56000000000000005,0
1000,1782569830674,0.28000000000000003,-0.56000000000000005,0
1001,1782569830740,0.28000000000000003,-0.56000000000000005,0
1002,1782569830774,0.28000000000000003,-0.48999999999999999,0
1003,1782569830790,0.28000000000000003,-0.48999999999999999,0
1004,1782569830856,0.28000000000000003,-0.48999999999999999,0
1005,1782569830890,0.28000000000000003,-0.56000000000000005,-0.070000000000000007
1006,1782569830940,0.28000000000000003,-0.56000000000000005,-0.070000000000000007
1007,1782569830973,0.28000000000000003,-0.48999999999999999,-0.070000000000000007
1008,1782569831056,0.28000000000000003,-0.48999999999999999,-0.070000000000000007
1009,1782569831106,0.20999999999999999,-0.48999999999999999,-0.070000000000000007
1010,1782569831140,0.20999999999999999,-0.48999999999999999,0
1011,1782569831189,0.20999999999999999,-0.56000000000000005,0
1012,1782569831239,0.20999999999999999,-0.56000000000000005,0
1013,1782569831257,0.20999999999999999,-0.56000000000000005,-0.070000000000000007
1014,1782569831389,0.20999999999999999,-0.56000000000000005,0
1015,1782569831406,0.20999999999999999,-0.56000000000000005,0
1016,1782569831440,0.14000000000000001,-0.56000000000000005,0
1017,1782569831506,0.20999999999999999,-0.56000000000000005,0
1018,1782569831556,0.20999999999999999,-0.56000000000000005,0
1019,1782569831622,0.28000000000000003,-0.48999999999999999,-0.070000000000000007
1020,1782569831672,0.28000000000000003,-0.48999999999999999,-0.070000000000000007
1021,1782569831739,0.28000000000000003,-0.56000000000000005,-0.070000000000000007
1022,1782569831772,0.28000000000000003,-0.56000000000000005,-0.070000000000000007
1023,1782569831839,0.20999999999999999,-0.56000000000000005,0
1024,1782569831872,0.20999999999999999,-0.48999999999999999,0
1025,1782569831938,0.20999999999999999,-0.48999999999999999,0
1026,1782569831972,0.20999999999999999,-0.48999999999999999,0
1027,1782569832039,0.20999999999999999,-0.56000000000000005,0
1028,1782569832122,0.20999999999999999,-0.56000000000000005,0
1029,1782569832188,0.14000000000000001,-0.48999999999999999,-0.070000000000000007
1030,1782569832255,0.14000000000000001,-0.48999999999999999,0
1031,1782569832289,0.20999999999999999,-0.48999999999999999,-0.070000000000000007
1032,1782569832372,0.20999999999999999,-0.48999999999999999,0
1033,1782569832455,0.20999999999999999,-0.48999999999999999,0
1034,1782569832472,0.20999999999999999,-0.48999999999999999,0
1035,1782569832489,0.28000000000000003,-0.48999999999999999,0
1036,1782569832538,0.28000000000000003,-0.48999999999999999,0
1037,1782569832588,0.28000000000000003,-0.48999999999999999,0
1038,1782569832638,0.28000000000000003,-0.48999999999999999,0
1039,1782569832654,0.28000000000000003,-0.48999999999999999,0
1040,1782569832738,0.28000000000000003,-0.56000000000000005,0
1041,1782569832755,0.28000000000000003,-0.56000000000000005,0
1042,1782569832805,0.28000000000000003,-0.56000000000000005,-0.070000000000000007
1043,1782569832888,0.28000000000000003,-0.56000000000000005,0
1044,1782569832938,0.28000000000000003,-0.56000000000000005,0
1045,1782569833004,0.28000000000000003,-0.56000000000000005,0
1046,1782569833054,0.28000000000000003,-0.48999999999999999,0
1047,1782569833104,0.28000000000000003,-0.48999999999999999,0
1048,1782569833154,0.28000000000000003,-0.48999999999999999,0
1049,1782569833204,0.14000000000000001,-0.48999999999999999,0
1050,1782569833254,0.20999999999999999,-0.56000000000000005,0
1051,1782569833288,0.20999999999999999,-0.56000000000000005,0
1052,1782569833304,0.20999999999999999,-0.56000000000000005,0
1053,1782569833354,0.20999999999999999,-0.48999999999999999,-0.070000000000000007
1054,1782569833404,0.20999999999999999,-0.48999999999999999,0
1055,1782569833454,0.20999999999999999,-0.48999999999999999,0
1056,1782569833504,0.20999999999999999,-0.48999999999999999,0
1057,1782569833554,0.20999999999999999,-0.48999999999999999,0
1058,1782569833620,0.28000000000000003,-0.56000000000000005,0
1059,1782569833671,0.28000000000000003,-0.48999999999999999,0
1060,1782569833720,0.20999999999999999,-0.48999999999999999,0
1061,1782569833787,0.20999999999999999,-0.48999999999999999,0
1062,1782569833821,0.20999999999999999,-0.56000000000000005,0
1063,1782569833838,0.20999999999999999,-0.56000000000000005,0
1064,1782569833940,0.28000000000000003,-0.48999999999999999,-0.070000000000000007
1065,1782569833987,0.28000000000000003,-0.48999999999999999,-0.070000000000000007
1066,1782569834020,0.28000000000000003,-0.48999999999999999,-0.070000000000000007
1067,1782569834038,0.28000000000000003,-0.56000000000000005,0
1068,1782569834064,0.28000000000000003,-0.56000000000000005,0
1069,1782569834104,0.20999999999999999,-0.56000000000000005,0
1070,1782569834154,0.28000000000000003,-0.56000000000000005,-0.070000000000000007
1071,1782569834221,0.20999999999999999,-0.56000000000000005,-0.070000000000000007
1072,1782569834287,0.28000000000000003,-0.56000000000000005,0
1073,1782569834337,0.28000000000000003,-0.56000000000000005,0
1074,1782569834387,0.28000000000000003,-0.56000000000000005,0
1075,1782569834421,0.28000000000000003,-0.48999999999999999,0
1076,1782569834487,0.28000000000000003,-0.56000000000000005,0
1077,1782569834571,0.20999999999999999,-0.48999999999999999,0
1078,1782569834620,0.20999999999999999,-0.48999999999999999,0
1079,1782569834704,0.28000000000000003,-0.48999999999999999,0
1080,1782569834754,0.28000000000000003,-0.48999999999999999,0
1081,1782569834823,0.20999999999999999,-0.48999999999999999,0
1082,1782569834858,0.20999999999999999,-0.48999999999999999,0
1083,1782569834906,0.20999999999999999,-0.56000000000000005,-0.070000000000000007
1084,1782569835006,0.20999999999999999,-0.56000000000000005,-0.070000000000000007
1085,1782569835054,0.20999999999999999,-0.56000000000000005,-0.070000000000000007
1086,1782569835104,0.20999999999999999,-0.56000000000000005,-0.070000000000000007
1087,1782569835153,0.20999999999999999,-0.56000000000000005,0
1088,1782569835187,0.14000000000000001,-0.48999999999999999,-0.070000000000000007
1089,1782569835268,0.14000000000000001,-0.48999999999999999,-0.070000000000000007
1090,1782569835386,0.20999999999999999,-0.48999999999999999,-0.070000000000000007
1091,1782569835468,0.28000000000000003,-0.48999999999999999,0
1092,1782569835519,0.28000000000000003,-0.48999999999999999,0
1093,1782569835618,0.20999999999999999,-0.48999999999999999,0
1094,1782569835684,0.28000000000000003,-0.56000000000000005,0
1095,1782569835751,0.28000000000000003,-0.48999999999999999,-0.070000000000000007
1096,1782569835801,0.20999999999999999,-0.48999999999999999,-0.070000000000000007
1097,1782569835851,0.20999999999999999,-0.48999999999999999,-0.070000000000000007
1098,1782569835918,0.20999999999999999,-0.48999999999999999,-0.070000000000000007
1099,1782569835984,0.20999999999999999,-0.48999999999999999,-0.070000000000000007
1100,1782569836067,0.20999999999999999,-0.48999999999999999,0
1101,1782569836186,0.28000000000000003,-0.48999999999999999,0
1102,1782569836234,0.28000000000000003,-0.48999999999999999,0
1103,1782569836284,0.20999999999999999,-0.56000000000000005,0
1104,1782569836317,0.28000000000000003,-0.48999999999999999,0
1105,1782569836367,0.28000000000000003,-0.48999999999999999,0
1106,1782569836417,0.20999999999999999,-0.48999999999999999,0
1107,1782569836468,0.20999999999999999,-0.48999999999999999,0
1108,1782569836516,0.20999999999999999,-0.48999999999999999,-0.070000000000000007
1109,1782569836550,0.20999999999999999,-0.56000000000000005,-0.070000000000000007
1110,1782569836584,0.28000000000000003,-0.56000000000000005,-0.070000000000000007
1111,1782569836633,0.28000000000000003,-0.56000000000000005,0
1112,1782569836633,0.28000000000000003,-0.56000000000000005,0
1113,1782569836667,0.28000000000000003,-0.48999999999999999,0
1114,1782569836783,0.28000000000000003,-0.56000000000000005,0
1115,1782569836800,0.28000000000000003,-0.56000000000000005,0
1116,1782569836833,0.28000000000000003,-0.56000000000000005,0
1117,1782569836900,0.20999999999999999,-0.48999999999999999,0
1118,1782569836934,0.20999999999999999,-0.56000000000000005,0
1119,1782569836966,0.20999999999999999,-0.56000000000000005,-0.070000000000000007
1120,1782569836983,0.20999999999999999,-0.56000000000000005,-0.070000000000000007
1121,1782569837016,0.28000000000000003,-0.56000000000000005,0
1122,1782569837033,0.20999999999999999,-0.56000000000000005,-0.070000000000000007
1123,1782569837083,0.20999999999999999,-0.56000000000000005,0
1124,1782569837199,0.20999999999999999,-0.56000000000000005,0
1125,1782569837267,0.20999999999999999,-0.56000000000000005,0
1126,1782569837350,0.20999999999999999,-0.56000000000000005,0
1127,1782569837383,0.28000000000000003,-0.56000000000000005,0
1128,1782569837416,0.28000000000000003,-0.48999999999999999,0
1129,1782569837449,0.28000000000000003,-0.48999999999999999,0
1130,1782569837516,0.28000000000000003,-0.56000000000000005,-0.070000000000000007
1131,1782569837550,0.28000000000000003,-0.56000000000000005,-0.070000000000000007
1132,1782569837585,0.28000000000000003,-0.48999999999999999,-0.070000000000000007
1133,1782569837600,0.20999999999999999,-0.48999999999999999,-0.070000000000000007
1134,1782569837616,0.20999999999999999,-0.48999999999999999,-0.070000000000000007
1135,1782569837633,0.20999999999999999,-0.48999999999999999,-0.070000000000000007
1136,1782569837699,0.28000000000000003,-0.48999999999999999,-0.070000000000000007
1137,1782569837766,0.20999999999999999,-0.48999999999999999,-0.070000000000000007
1138,1782569837833,0.28000000000000003,-0.48999999999999999,-0.070000000000000007
1139,1782569837899,0.34999999999999998,-0.48999999999999999,-0.070000000000000007
1140,1782569837933,0.34999999999999998,-0.48999999999999999,0
1141,1782569837965,0.34999999999999998,-0.48999999999999999,0
1142,1782569838049,0.28000000000000003,-0.56000000000000005,-0.070000000000000007
1143,1782569838165,0.20999999999999999,-0.56000000000000005,-0.070000000000000007
1144,1782569838182,0.14000000000000001,-0.48999999999999999,0
1145,1782569838232,0.14000000000000001,-0.48999999999999999,-0.070000000000000007
1146,1782569838248,0.14000000000000001,-0.48999999999999999,-0.070000000000000007
1147,1782569838282,0.20999999999999999,-0.48999999999999999,-0.070000000000000007
1148,1782569838382,0.20999999999999999,-0.56000000000000005,0
1149,1782569838415,0.28000000000000003,-0.56000000000000005,0
1150,1782569838466,0.34999999999999998,-0.56000000000000005,0
1151,1782569838498,0.28000000000000003,-0.48999999999999999,0
1152,1782569838531,0.28000000000000003,-0.48999999999999999,0
1153,1782569838598,0.20999999999999999,-0.48999999999999999,0
1154,1782569838648,0.20999999999999999,-0.48999999999999999,-0.070000000000000007
1155,1782569838698,0.20999999999999999,-0.48999999999999999,0
1156,1782569838764,0.28000000000000003,-0.48999999999999999,0
1157,1782569838798,0.20999999999999999,-0.48999999999999999,0
1158,1782569838831,0.20999999999999999,-0.48999999999999999,0
1159,1782569838881,0.20999999999999999,-0.48999999999999999,0
1160,1782569838899,0.28000000000000003,-0.56000000000000005,-0.070000000000000007
1161,1782569838948,0.28000000000000003,-0.48999999999999999,-0.070000000000000007
1162,1782569838964,0.28000000000000003,-0.48999999999999999,-0.070000000000000007
1163,1782569838998,0.20999999999999999,-0.48999999999999999,-0.070000000000000007
1164,1782569839014,0.20999999999999999,-0.48999999999999999,-0.070000000000000007
1165,1782569839031,0.20999999999999999,-0.48999999999999999,0
1166,1782569839098,0.20999999999999999,-0.48999999999999999,0
1167,1782569839198,0.28000000000000003,-0.56000000000000005,-0.070000000000000007
1168,1782569839230,0.28000000000000003,-0.48999999999999999,-0.070000000000000007
1169,1782569839247,0.28000000000000003,-0.48999999999999999,-0.070000000000000007
1170,1782569839265,0.28000000000000003,-0.48999999999999999,-0.070000000000000007
1171,1782569839297,0.28000000000000003,-0.48999999999999999,-0.070000000000000007
1172,1782569839347,0.20999999999999999,-0.48999999999999999,0
1173,1782569839397,0.20999999999999999,-0.48999999999999999,0
1174,1782569839447,0.20999999999999999,-0.48999999999999999,0
1175,1782569839480,0.28000000000000003,-0.56000000000000005,-0.070000000000000007
1176,1782569839514,0.28000000000000003,-0.56000000000000005,0
1177,1782569839547,0.28000000000000003,-0.56000000000000005,0
1178,1782569839563,0.20999999999999999,-0.56000000000000005,0
1179,1782569839615,0.20999999999999999,-0.56000000000000005,0
1180,1782569839663,0.20999999999999999,-0.56000000000000005,0
1181,1782569839748,0.20999999999999999,-0.56000000000000005,-0.070000000000000007
1182,1782569839797,0.20999999999999999,-0.56000000000000005,0
1183,1782569839864,0.20999999999999999,-0.48999999999999999,0
1184,1782569839880,0.20999999999999999,-0.48999999999999999,0
1185,1782569839931,0.28000000000000003,-0.48999999999999999,-0.070000000000000007
1186,1782569839980,0.20999999999999999,-0.48999999999999999,-0.070000000000000007
1187,1782569840030,0.20999999999999999,-0.48999999999999999,0
1188,1782569840080,0.20999999999999999,-0.56000000000000005,0
1189,1782569840097,0.14000000000000001,-0.48999999999999999,-0.070000000000000007
1190,1782569840164,0.28000000000000003,-0.48999999999999999,-0.070000000000000007
1191,1782569840263,0.28000000000000003,-0.48999999999999999,-0.070000000000000007
1192,1782569840363,0.28000000000000003,-0.48999999999999999,-0.070000000000000007
1193,1782569840396,0.28000000000000003,-0.48999999999999999,0
1194,1782569840429,0.28000000000000003,-0.56000000000000005,0
1195,1782569840481,0.28000000000000003,-0.56000000000000005,0
1196,1782569840597,0.28000000000000003,-0.56000000000000005,0
1197,1782569840680,0.34999999999999998,-0.48999999999999999,0
1198,1782569840713,0.28000000000000003,-0.48999999999999999,0
1199,1782569840746,0.28000000000000003,-0.48999999999999999,0
1200,1782569840813,0.28000000000000003,-0.48999999999999999,0
1201,1782569840846,0.28000000000000003,-0.48999999999999999,0
1202,1782569840912,0.28000000000000003,-0.56000000000000005,0
1203,1782569840946,0.28000000000000003,-0.56000000000000005,0
1204,1782569840962,0.28000000000000003,-0.56000000000000005,0
1205,1782569840995,0.28000000000000003,-0.56000000000000005,0
1206,1782569841046,0.28000000000000003,-0.56000000000000005,0
1207,1782569841145,0.28000000000000003,-0.56000000000000005,0
1208,1782569841212,0.20999999999999999,-0.56000000000000005,0
1209,1782569841246,0.28000000000000003,-0.56000000000000005,0
1210,1782569841295,0.28000000000000003,-0.56000000000000005,0
1211,1782569841362,0.28000000000000003,-0.56000000000000005,0
1212,1782569841412,0.28000000000000003,-0.56000000000000005,0
1213,1782569841462,0.34999999999999998,-0.56000000000000005,0
1214,1782569841528,0.34999999999999998,-0.41999999999999998,0
1215,1782569841578,0.28000000000000003,-0.48999999999999999,0
1216,1782569841662,0.28000000000000003,-0.48999999999999999,0
1217,1782569841729,0.28000000000000003,-0.48999999999999999,0
1218,1782569841795,0.20999999999999999,-0.56000000000000005,0
1219,1782569841862,0.28000000000000003,-0.56000000000000005,0
1220,1782569841911,0.28000000000000003,-0.56000000000000005,-0.070000000000000007
1221,1782569841978,0.28000000000000003,-0.56000000000000005,-0.070000000000000007
1222,1782569842028,0.28000000000000003,-0.56000000000000005,-0.070000000000000007
1223,1782569842080,0.28000000000000003,-0.56000000000000005,-0.070000000000000007
1224,1782569842111,0.28000000000000003,-0.56000000000000005,0
1225,1782569842178,0.28000000000000003,-0.56000000000000005,0
1226,1782569842244,0.20999999999999999,-0.48999999999999999,0
1227,1782569842277,0.20999999999999999,-0.48999999999999999,0
1228,1782569842345,0.20999999999999999,-0.48999999999999999,0
1229,1782569842394,0.28000000000000003,-0.56000000000000005,0
1230,1782569842545,0.28000000000000003,-0.56000000000000005,0
1231,1782569842577,0.28000000000000003,-0.56000000000000005,0
1232,1782569842627,0.28000000000000003,-0.48999999999999999,0
1233,1782569842678,0.20999999999999999,-0.41999999999999998,0
1234,1782569842727,0.20999999999999999,-0.41999999999999998,0
1235,1782569842794,0.28000000000000003,-0.48999999999999999,0
1236,1782569842844,0.28000000000000003,-0.48999999999999999,0
1237,1782569842894,0.28000000000000003,-0.48999999999999999,0
1238,1782569842994,0.20999999999999999,-0.48999999999999999,-0.070000000000000007
1239,1782569843060,0.20999999999999999,-0.48999999999999999,0
1240,1782569843243,0.28000000000000003,-0.48999999999999999,0
1241,1782569843276,0.28000000000000003,-0.48999999999999999,0
1242,1782569843344,0.28000000000000003,-0.56000000000000005,0
1243,1782569843410,0.28000000000000003,-0.56000000000000005,0
1244,1782569843510,0.28000000000000003,-0.56000000000000005,0
1245,1782569843543,0.28000000000000003,-0.56000000000000005,0
1246,1782569843594,0.28000000000000003,-0.56000000000000005,0
1247,1782569843643,0.34999999999999998,-0.56000000000000005,0
1248,1782569843709,0.34999999999999998,-0.56000000000000005,0
1249,1782569843793,0.34999999999999998,-0.56000000000000005,0
1250,1782569843860,0.28000000000000003,-0.48999999999999999,0
1251,1782569843893,0.28000000000000003,-0.48999999999999999,0
1252,1782569843959,0.28000000000000003,-0.56000000000000005,0
1253,1782569843992,0.28000000000000003,-0.56000000000000005,0
1254,1782569844026,0.28000000000000003,-0.56000000000000005,0
1255,1782569844059,0.20999999999999999,-0.48999999999999999,0
1256,1782569844126,0.20999999999999999,-0.56000000000000005,0
1257,1782569844192,0.20999999999999999,-0.56000000000000005,0
1258,1782569844276,0.20999999999999999,-0.56000000000000005,0
1259,1782569844376,0.20999999999999999,-0.56000000000000005,0
1260,1782569844442,0.20999999999999999,-0.48999999999999999,-0.070000000000000007
1261,1782569844475,0.20999999999999999,-0.48999999999999999,-0.070000000000000007
1262,1782569844542,0.20999999999999999,-0.48999999999999999,-0.070000000000000007
1263,1782569844608,0.20999999999999999,-0.48999999999999999,-0.070000000000000007
1264,1782569844642,0.28000000000000003,-0.48999999999999999,0
1265,1782569844708,0.20999999999999999,-0.56000000000000005,0
1266,1782569844775,0.20999999999999999,-0.48999999999999999,0
1267,1782569844825,0.28000000000000003,-0.48999999999999999,0
1268,1782569844875,0.28000000000000003,-0.48999999999999999,0
1269,1782569844909,0.28000000000000003,-0.48999999999999999,0
1270,1782569844958,0.28000000000000003,-0.48999999999999999,0
1271,1782569845008,0.48999999999999999,-0.14000000000000001,0.070000000000000007
1272,1782569845058,0.48999999999999999,-0.14000000000000001,0.20999999999999999
1273,1782569845091,0.20999999999999999,-0.20999999999999999,0.20999999999999999
1274,1782569845158,-0.20999999999999999,-0.91000000000000003,0.20999999999999999
1275,1782569845175,-0.20999999999999999,-1.05,0.14000000000000001
1276,1782569845191,-0.20999999999999999,-1.05,-0.14000000000000001
1277,1782569845225,0.28000000000000003,-1.05,-0.34999999999999998
1278,1782569845258,0.56000000000000005,-0.69999999999999996,-0.34999999999999998
1279,1782569845291,0.20999999999999999,-0.69999999999999996,0.070000000000000007
1280,1782569845342,0.20999999999999999,-0.69999999999999996,0.14000000000000001
1281,1782569845408,0.28000000000000003,-0.56000000000000005,0.14000000000000001
1282,1782569845508,0.28000000000000003,-0.48999999999999999,0.20999999999999999
1283,1782569845524,0.28000000000000003,-0.41999999999999998,0.20999999999999999
1284,1782569845541,0.14000000000000001,-0.56000000000000005,-0.14000000000000001
1285,1782569845658,0.14000000000000001,-0.56000000000000005,-0.20999999999999999
1286,1782569845707,0.28000000000000003,-0.56000000000000005,-0.20999999999999999
1287,1782569845757,0.28000000000000003,-0.56000000000000005,-0.20999999999999999
1288,1782569845774,0.28000000000000003,-0.56000000000000005,-0.14000000000000001
1289,1782569845807,0.28000000000000003,-0.56000000000000005,-0.14000000000000001
1290,1782569845857,0.34999999999999998,-0.48999999999999999,0.070000000000000007
1291,1782569845924,0.34999999999999998,-0.48999999999999999,0.070000000000000007
1292,1782569845974,0.28000000000000003,-0.48999999999999999,0
1293,1782569846024,0.28000000000000003,-0.48999999999999999,0
1294,1782569846107,0.28000000000000003,-0.56000000000000005,-0.14000000000000001
1295,1782569846157,0.28000000000000003,-0.56000000000000005,-0.070000000000000007
1296,1782569846224,0.28000000000000003,-0.56000000000000005,0
1297,1782569846290,0.20999999999999999,-0.56000000000000005,0
1298,1782569846323,0.20999999999999999,-0.56000000000000005,0.070000000000000007
1299,1782569846357,0.20999999999999999,-0.48999999999999999,0.070000000000000007
1300,1782569846373,0.20999999999999999,-0.41999999999999998,0.070000000000000007
1301,1782569846407,0.20999999999999999,-0.41999999999999998,0.070000000000000007
1302,1782569846507,0.20999999999999999,-0.41999999999999998,-0.070000000000000007
1303,1782569846541,0.20999999999999999,-0.41999999999999998,-0.070000000000000007
1304,1782569846558,0.28000000000000003,-0.48999999999999999,-0.070000000000000007
1305,1782569846577,0.28000000000000003,-0.48999999999999999,0
1306,1782569846608,0.28000000000000003,-0.48999999999999999,0
1307,1782569846643,0.28000000000000003,-0.48999999999999999,0
1308,1782569846707,0.41999999999999998,-0.41999999999999998,0
1309,1782569846744,0.41999999999999998,-0.48999999999999999,0
1310,1782569846761,0.41999999999999998,-0.56000000000000005,-0.070000000000000007
1311,1782569846810,0.20999999999999999,-0.56000000000000005,-0.070000000000000007
1312,1782569846856,0.20999999999999999,-0.56000000000000005,-0.070000000000000007
1313,1782569846873,0.20999999999999999,-0.56000000000000005,-0.070000000000000007
1314,1782569846973,0.20999999999999999,-0.56000000000000005,-0.070000000000000007
1315,1782569847008,0.28000000000000003,-0.48999999999999999,0
1316,1782569847040,0.28000000000000003,-0.48999999999999999,0.070000000000000007
1317,1782569847073,0.20999999999999999,-0.48999999999999999,0.070000000000000007
1318,1782569847091,0.20999999999999999,-0.48999999999999999,0
1319,1782569847173,0.20999999999999999,-0.48999999999999999,0
1320,1782569847222,0.20999999999999999,-0.48999999999999999,-0.070000000000000007
1321,1782569847289,0.20999999999999999,-0.56000000000000005,-0.070000000000000007
1322,1782569847323,0.20999999999999999,-0.56000000000000005,-0.070000000000000007
1323,1782569847424,0.20999999999999999,-0.56000000000000005,0
1324,1782569847456,0.20999999999999999,-0.56000000000000005,0
1325,1782569847491,0.20999999999999999,-0.48999999999999999,0
1326,1782569847582,0.28000000000000003,-0.56000000000000005,0
1327,1782569847607,0.28000000000000003,-0.56000000000000005,0
1328,1782569847641,0.28000000000000003,-0.56000000000000005,0
1329,1782569847658,0.20999999999999999,-0.56000000000000005,0
1330,1782569847674,0.28000000000000003,-0.56000000000000005,0
1331,1782569847707,0.20999999999999999,-0.48999999999999999,0
1332,1782569847773,0.20999999999999999,-0.48999999999999999,0
1333,1782569847889,0.14000000000000001,-0.56000000000000005,0
1334,1782569847907,0.14000000000000001,-0.56000000000000005,0
1335,1782569847939,0.14000000000000001,-0.48999999999999999,0
1336,1782569848008,0.20999999999999999,-0.48999999999999999,0
1337,1782569848039,0.20999999999999999,-0.48999999999999999,0
1338,1782569848090,0.20999999999999999,-0.56000000000000005,0
1339,1782569848205,0.20999999999999999,-0.56000000000000005,0
1340,1782569848271,0.20999999999999999,-0.56000000000000005,0
1341,1782569848289,0.20999999999999999,-0.48999999999999999,0
1342,1782569848305,0.20999999999999999,-0.56000000000000005,0
1343,1782569848338,0.20999999999999999,-0.56000000000000005,0
1344,1782569848355,0.20999999999999999,-0.48999999999999999,0
1345,1782569848422,0.28000000000000003,-0.48999999999999999,0
1346,1782569848455,0.28000000000000003,-0.48999999999999999,0
1347,1782569848489,0.28000000000000003,-0.48999999999999999,0
1348,1782569848522,0.28000000000000003,-0.48999999999999999,-0.070000000000000007
1349,1782569848605,0.28000000000000003,-0.48999999999999999,-0.070000000000000007
1350,1782569848622,0.28000000000000003,-0.48999999999999999,-0.070000000000000007
1351,1782569848673,0.28000000000000003,-0.48999999999999999,-0.070000000000000007
1352,1782569848722,0.28000000000000003,-0.48999999999999999,-0.070000000000000007
1353,1782569848771,0.14000000000000001,-0.56000000000000005,0
1354,1782569848839,0.28000000000000003,-0.56000000000000005,0
1355,1782569848872,0.28000000000000003,-0.56000000000000005,0
1356,1782569848938,0.28000000000000003,-0.56000000000000005,0
1357,1782569848971,0.28000000000000003,-0.56000000000000005,-0.070000000000000007
1358,1782569849038,0.20999999999999999,-0.48999999999999999,0
1359,1782569849071,0.20999999999999999,-0.48999999999999999,0
1360,1782569849104,0.20999999999999999,-0.56000000000000005,0
1361,1782569849171,0.20999999999999999,-0.56000000000000005,0
1362,1782569849221,0.20999999999999999,-0.48999999999999999,0
1363,1782569849288,0.20999999999999999,-0.56000000000000005,0
1364,1782569849305,0.28000000000000003,-0.48999999999999999,-0.070000000000000007
1365,1782569849339,0.28000000000000003,-0.48999999999999999,0
1366,1782569849371,0.20999999999999999,-0.48999999999999999,0
1367,1782569849438,0.20999999999999999,-0.56000000000000005,0
1368,1782569849520,0.20999999999999999,-0.56000000000000005,0
1369,1782569849555,0.20999999999999999,-0.56000000000000005,0
1370,1782569849588,0.20999999999999999,-0.56000000000000005,0
1371,1782569849621,0.20999999999999999,-0.48999999999999999,0
1372,1782569849654,0.20999999999999999,-0.48999999999999999,0
1373,1782569849705,0.20999999999999999,-0.48999999999999999,0
1374,1782569849755,0.20999999999999999,-0.48999999999999999,0
1375,1782569849807,0.20999999999999999,-0.48999999999999999,0
1376,1782569849871,0.20999999999999999,-0.48999999999999999,0
1377,1782569849888,0.20999999999999999,-0.56000000000000005,-0.070000000000000007
1378,1782569849938,0.20999999999999999,-0.56000000000000005,0
1379,1782569850138,0.28000000000000003,-0.56000000000000005,0
1380,1782569850154,0.20999999999999999,-0.56000000000000005,-0.070000000000000007
1381,1782569850170,0.20999999999999999,-0.56000000000000005,-0.070000000000000007
1382,1782569850203,0.20999999999999999,-0.56000000000000005,-0.070000000000000007
1383,1782569850270,0.20999999999999999,-0.48999999999999999,-0.070000000000000007
1384,1782569850336,0.20999999999999999,-0.48999999999999999,-0.070000000000000007
1385,1782569850403,0.20999999999999999,-0.48999999999999999,0
1386,1782569850436,0.28000000000000003,-0.48999999999999999,0
1387,1782569850453,0.28000000000000003,-0.48999999999999999,0
1388,1782569850469,0.28000000000000003,-0.56000000000000005,0
1389,1782569850503,0.28000000000000003,-0.56000000000000005,0
1390,1782569850552,0.28000000000000003,-0.56000000000000005,0
1391,1782569850602,0.28000000000000003,-0.56000000000000005,0
1392,1782569850702,0.28000000000000003,-0.56000000000000005,0
1393,1782569850719,0.28000000000000003,-0.56000000000000005,0
1394,1782569850769,0.28000000000000003,-0.56000000000000005,0
1395,1782569850802,0.20999999999999999,-0.56000000000000005,0
1396,1782569850836,0.20999999999999999,-0.56000000000000005,0.070000000000000007
1397,1782569850902,0.14000000000000001,-0.48999999999999999,0
1398,1782569850952,0.14000000000000001,-0.48999999999999999,0
1399,1782569851002,0.20999999999999999,-0.48999999999999999,0
1400,1782569851052,0.28000000000000003,-0.56000000000000005,0
1401,1782569851102,0.28000000000000003,-0.56000000000000005,0
1402,1782569851152,0.28000000000000003,-0.56000000000000005,0
1403,1782569851218,0.28000000000000003,-0.56000000000000005,0
1404,1782569851252,0.28000000000000003,-0.56000000000000005,0
1405,1782569851303,0.28000000000000003,-0.56000000000000005,0
1406,1782569851385,0.28000000000000003,-0.56000000000000005,0
1407,1782569851435,0.28000000000000003,-0.56000000000000005,0
1408,1782569851485,0.28000000000000003,-0.56000000000000005,0
1409,1782569851551,0.28000000000000003,-0.56000000000000005,0
1410,1782569851601,0.28000000000000003,-0.56000000000000005,0
1411,1782569851618,0.20999999999999999,-0.56000000000000005,0
1412,1782569851735,0.20999999999999999,-0.56000000000000005,0
1413,1782569851818,0.20999999999999999,-0.56000000000000005,0
1414,1782569851884,0.20999999999999999,-0.56000000000000005,0
1415,1782569851935,0.28000000000000003,-0.48999999999999999,0
1416,1782569852018,0.28000000000000003,-0.56000000000000005,0
1417,1782569852084,0.28000000000000003,-0.56000000000000005,0
1418,1782569852185,0.28000000000000003,-0.48999999999999999,-0.070000000000000007
1419,1782569852284,0.20999999999999999,-0.48999999999999999,-0.070000000000000007
1420,1782569852351,0.20999999999999999,-0.56000000000000005,-0.070000000000000007
1421,1782569852384,0.20999999999999999,-0.56000000000000005,-0.070000000000000007
1422,1782569852417,0.20999999999999999,-0.56000000000000005,0
1423,1782569852450,0.20999999999999999,-0.56000000000000005,0
1424,1782569852483,0.28000000000000003,-0.56000000000000005,0
1425,1782569852517,0.20999999999999999,-0.48999999999999999,0
1426,1782569852600,0.20999999999999999,-0.56000000000000005,0
1427,1782569852634,0.20999999999999999,-0.56000000000000005,0
1428,1782569852701,0.20999999999999999,-0.56000000000000005,0
1429,1782569852768,0.28000000000000003,-0.48999999999999999,-0.070000000000000007
1430,1782569852867,0.20999999999999999,-0.48999999999999999,-0.070000000000000007
1431,1782569852950,0.20999999999999999,-0.48999999999999999,-0.070000000000000007
1432,1782569853033,0.28000000000000003,-0.56000000000000005,0
1433,1782569853084,0.28000000000000003,-0.56000000000000005,0
1434,1782569853150,0.28000000000000003,-0.56000000000000005,0
1435,1782569853200,0.28000000000000003,-0.56000000000000005,0
1436,1782569853249,0.28000000000000003,-0.56000000000000005,0
1437,1782569853334,0.28000000000000003,-0.48999999999999999,-0.070000000000000007
1438,1782569853400,0.28000000000000003,-0.56000000000000005,0
1439,1782569853466,0.28000000000000003,-0.56000000000000005,0
1440,1782569853517,0.28000000000000003,-0.56000000000000005,0
1441,1782569853582,0.28000000000000003,-0.56000000000000005,0
1442,1782569853649,0.28000000000000003,-0.56000000000000005,0
1443,1782569853683,0.28000000000000003,-0.56000000000000005,0
1444,1782569853749,0.28000000000000003,-0.48999999999999999,-0.070000000000000007
1445,1782569853816,0.20999999999999999,-0.48999999999999999,-0.070000000000000007
1446,1782569853833,0.20999999999999999,-0.48999999999999999,0
1447,1782569853849,0.20999999999999999,-0.48999999999999999,0
1448,1782569853882,0.20999999999999999,-0.48999999999999999,-0.070000000000000007
1449,1782569853966,0.28000000000000003,-0.48999999999999999,0
1450,1782569854015,0.28000000000000003,-0.48999999999999999,0
1451,1782569854065,0.28000000000000003,-0.48999999999999999,0
1452,1782569854132,0.28000000000000003,-0.48999999999999999,0
1453,1782569854199,0.28000000000000003,-0.56000000000000005,0
1454,1782569854249,0.28000000000000003,-0.56000000000000005,0
1455,1782569854316,0.28000000000000003,-0.56000000000000005,0
1456,1782569854365,0.20999999999999999,-0.56000000000000005,0
1457,1782569854415,0.20999999999999999,-0.48999999999999999,0
1458,1782569854432,0.20999999999999999,-0.48999999999999999,0
1459,1782569854449,0.20999999999999999,-0.48999999999999999,0
1460,1782569854515,0.28000000000000003,-0.48999999999999999,0
1461,1782569854631,0.28000000000000003,-0.56000000000000005,0
1462,1782569854798,0.20999999999999999,-0.56000000000000005,0
1463,1782569854848,0.20999999999999999,-0.56000000000000005,0
1464,1782569854898,0.28000000000000003,-0.48999999999999999,-0.070000000000000007
1465,1782569854948,0.28000000000000003,-0.48999999999999999,-0.070000000000000007
1466,1782569854981,0.28000000000000003,-0.48999999999999999,-0.070000000000000007
1467,1782569855015,0.28000000000000003,-0.48999999999999999,0
1468,1782569855064,0.20999999999999999,-0.56000000000000005,0
1469,1782569855114,0.28000000000000003,-0.48999999999999999,0
1470,1782569855165,0.20999999999999999,-0.48999999999999999,0
1471,1782569855231,0.20999999999999999,-0.48999999999999999,-0.070000000000000007
1472,1782569855264,0.20999999999999999,-0.48999999999999999,-0.070000000000000007
1473,1782569855297,0.20999999999999999,-0.48999999999999999,-0.070000000000000007
1474,1782569855364,0.20999999999999999,-0.48999999999999999,0
1475,1782569855414,0.20999999999999999,-0.48999999999999999,-0.070000000000000007
1476,1782569855481,0.28000000000000003,-0.48999999999999999,0
1477,1782569855531,0.28000000000000003,-0.56000000000000005,0
1478,1782569855581,0.28000000000000003,-0.56000000000000005,-0.070000000000000007
1479,1782569855632,0.28000000000000003,-0.48999999999999999,-0.070000000000000007
1480,1782569855680,0.28000000000000003,-0.48999999999999999,-0.070000000000000007
1481,1782569855730,0.28000000000000003,-0.56000000000000005,-0.070000000000000007
1482,1782569855781,0.28000000000000003,-0.56000000000000005,-0.070000000000000007
1483,1782569855914,0.28000000000000003,-0.56000000000000005,-0.070000000000000007
1484,1782569855980,0.28000000000000003,-0.56000000000000005,-0.070000000000000007
1485,1782569856047,0.20999999999999999,-0.56000000000000005,-0.070000000000000007
1486,1782569856097,0.14000000000000001,-0.56000000000000005,-0.070000000000000007
1487,1782569856147,0.14000000000000001,-0.48999999999999999,-0.070000000000000007
1488,1782569856164,0.14000000000000001,-0.48999999999999999,-0.070000000000000007
1489,1782569856196,0.14000000000000001,-0.48999999999999999,-0.070000000000000007
1490,1782569856264,0.34999999999999998,-0.56000000000000005,0
1491,1782569856297,0.34999999999999998,-0.56000000000000005,0
1492,1782569856330,0.34999999999999998,-0.56000000000000005,0
1493,1782569856363,0.48999999999999999,-0.56000000000000005,0
1494,1782569856379,0.56000000000000005,-0.63,0
1495,1782569856397,0.56000000000000005,-0.69999999999999996,0
1496,1782569856430,0.56000000000000005,-0.69999999999999996,0
1497,1782569856496,0.41999999999999998,-0.63,0
1498,1782569856513,0.41999999999999998,-0.63,0
1499,1782569856563,0.48999999999999999,-0.63,0
1500,1782569856596,0.48999999999999999,-0.63,-0.070000000000000007
1501,1782569856613,0.48999999999999999,-0.63,-0.070000000000000007
1502,1782569856663,0.48999999999999999,-0.63,-0.14000000000000001
1503,1782569856729,0.48999999999999999,-0.63,-0.14000000000000001
1504,1782569856830,0.28000000000000003,-0.48999999999999999,0
1505,1782569856863,0.28000000000000003,-0.48999999999999999,0.070000000000000007
1506,1782569856879,0.28000000000000003,-0.48999999999999999,0.070000000000000007
1507,1782569856896,0.20999999999999999,-0.48999999999999999,0.070000000000000007
1508,1782569856913,0.28000000000000003,-0.48999999999999999,0.070000000000000007
1509,1782569856946,0.20999999999999999,-0.48999999999999999,0.070000000000000007
1510,1782569857013,0.20999999999999999,-0.48999999999999999,0
1511,1782569857046,0.20999999999999999,-0.48999999999999999,0
1512,1782569857129,0.14000000000000001,-0.56000000000000005,0
1513,1782569857162,0.14000000000000001,-0.63,0
1514,1782569857213,0.14000000000000001,-0.63,0
1515,1782569857279,0.14000000000000001,-0.63,0
1516,1782569857346,0.14000000000000001,-0.56000000000000005,0
1517,1782569857446,0.28000000000000003,-0.56000000000000005,0.070000000000000007
1518,1782569857478,0.20999999999999999,-0.56000000000000005,0
1519,1782569857495,0.20999999999999999,-0.56000000000000005,0
1520,1782569857512,0.20999999999999999,-0.56000000000000005,0
1521,1782569857545,0.20999999999999999,-0.48999999999999999,-0.070000000000000007
1522,1782569857579,0.14000000000000001,-0.41999999999999998,-0.14000000000000001
1523,1782569857628,0.14000000000000001,-0.41999999999999998,-0.14000000000000001
1524,1782569857645,0.63,-0.77000000000000002,0
1525,1782569857679,0.63,-0.83999999999999997,-0.070000000000000007
1526,1782569857762,0.56000000000000005,-0.83999999999999997,-0.14000000000000001
1527,1782569857778,0.28000000000000003,-0.83999999999999997,-0.14000000000000001
1528,1782569857795,0.20999999999999999,-0.63,-0.20999999999999999
1529,1782569857895,0,-0.48999999999999999,-0.20999999999999999
1530,1782569857962,0.34999999999999998,-0.48999999999999999,-0.28000000000000003
1531,1782569857995,0.28000000000000003,-0.48999999999999999,-0.28000000000000003
1532,1782569858028,0.28000000000000003,-0.56000000000000005,-0.28000000000000003
1533,1782569858045,0.14000000000000001,-0.56000000000000005,-0.28000000000000003
1534,1782569858061,0.14000000000000001,-0.56000000000000005,-0.20999999999999999
1535,1782569858144,0,-0.56000000000000005,-0.14000000000000001
1536,1782569858228,0.20999999999999999,-0.63,0.070000000000000007
1537,1782569858278,0.070000000000000007,-0.63,0.070000000000000007
1538,1782569858295,0.070000000000000007,-0.63,0.070000000000000007
1539,1782569858311,0.070000000000000007,-0.63,0.070000000000000007
1540,1782569858344,0.070000000000000007,-0.56000000000000005,0.070000000000000007
1541,1782569858361,0.20999999999999999,-0.48999999999999999,0.070000000000000007
1542,1782569858411,0.20999999999999999,-0.48999999999999999,0
1543,1782569858478,0.20999999999999999,-0.48999999999999999,0
1544,1782569858544,0.20999999999999999,-0.48999999999999999,0
1545,1782569858744,0.28000000000000003,-0.41999999999999998,0
1546,1782569858811,0.28000000000000003,-0.48999999999999999,0
1547,1782569858861,0.28000000000000003,-0.48999999999999999,0
1548,1782569858911,0.20999999999999999,-0.69999999999999996,-0.070000000000000007
1549,1782569858977,0.20999999999999999,-0.63,0
1550,1782569859027,0.20999999999999999,-0.48999999999999999,0.070000000000000007
1551,1782569859111,0.20999999999999999,-0.48999999999999999,0.070000000000000007
1552,1782569859160,0.14000000000000001,-0.56000000000000005,0
1553,1782569859211,0.14000000000000001,-0.56000000000000005,0
1554,1782569859260,0.14000000000000001,-0.56000000000000005,0
1555,1782569859343,0.20999999999999999,-0.56000000000000005,-0.070000000000000007
1556,1782569859410,0.14000000000000001,-0.56000000000000005,-0.070000000000000007
1557,1782569859477,0.20999999999999999,-0.48999999999999999,-0.070000000000000007
1558,1782569859510,0.28000000000000003,-0.48999999999999999,-0.070000000000000007
1559,1782569859576,0.28000000000000003,-0.41999999999999998,-0.070000000000000007
1560,1782569859626,0.28000000000000003,-0.34999999999999998,-0.14000000000000001
1561,1782569859676,0.34999999999999998,-0.34999999999999998,-0.14000000000000001
1562,1782569859810,0.28000000000000003,-0.48999999999999999,0
1563,1782569859843,0.28000000000000003,-0.56000000000000005,0
1564,1782569859909,0.28000000000000003,-0.48999999999999999,-0.070000000000000007
1565,1782569859943,0.20999999999999999,-0.48999999999999999,-0.070000000000000007
1566,1782569859993,0.28000000000000003,-0.48999999999999999,0
1567,1782569860060,0.28000000000000003,-0.48999999999999999,0
1568,1782569860110,0.28000000000000003,-0.56000000000000005,0
1569,1782569860159,0.28000000000000003,-0.56000000000000005,0
1570,1782569860209,0.28000000000000003,-0.56000000000000005,0
1571,1782569860309,0.28000000000000003,-0.56000000000000005,0
1572,1782569860393,0.28000000000000003,-0.56000000000000005,-0.070000000000000007
1573,1782569860425,0.28000000000000003,-0.56000000000000005,-0.070000000000000007
1574,1782569860476,0.28000000000000003,-0.48999999999999999,-0.070000000000000007
1575,1782569860526,0.28000000000000003,-0.56000000000000005,-0.070000000000000007
1576,1782569860576,0.28000000000000003,-0.48999999999999999,-0.070000000000000007
1577,1782569860609,0.28000000000000003,-0.56000000000000005,-0.070000000000000007
1578,1782569860659,0.28000000000000003,-0.56000000000000005,-0.070000000000000007
1579,1782569860725,0.34999999999999998,-0.56000000000000005,-0.070000000000000007
1580,1782569860825,0.20999999999999999,-0.56000000000000005,-0.070000000000000007
1581,1782569860842,0.20999999999999999,-0.56000000000000005,-0.070000000000000007
1582,1782569860875,0.14000000000000001,-0.56000000000000005,-0.070000000000000007
1583,1782569860892,0.20999999999999999,-0.56000000000000005,-0.070000000000000007
1584,1782569860908,0.20999999999999999,-0.56000000000000005,-0.070000000000000007
1585,1782569860942,0.28000000000000003,-0.56000000000000005,0.070000000000000007
1586,1782569860975,0.28000000000000003,-0.56000000000000005,0.070000000000000007
1587,1782569861025,0.20999999999999999,-0.48999999999999999,0.070000000000000007
1588,1782569861059,0.28000000000000003,-0.48999999999999999,0.070000000000000007
1589,1782569861126,0.20999999999999999,-0.48999999999999999,0
1590,1782569861176,0.20999999999999999,-0.48999999999999999,0
1591,1782569861225,0.20999999999999999,-0.48999999999999999,0
1592,1782569861392,0.28000000000000003,-0.48999999999999999,0
1593,1782569861458,0.28000000000000003,-0.48999999999999999,0
1594,1782569861508,0.20999999999999999,-0.63,-0.070000000000000007
1595,1782569861541,0.20999999999999999,-0.48999999999999999,-0.070000000000000007
1596,1782569861574,0.20999999999999999,-0.48999999999999999,-0.070000000000000007
1597,1782569861625,0.20999999999999999,-0.48999999999999999,-0.070000000000000007
1598,1782569861675,0.20999999999999999,-0.48999999999999999,-0.14000000000000001
1599,1782569861725,0.20999999999999999,-0.48999999999999999,-0.14000000000000001
1600,1782569861808,0.20999999999999999,-0.48999999999999999,-0.14000000000000001
1601,1782569861907,0.20999999999999999,-0.56000000000000005,0
1602,1782569861974,0.20999999999999999,-0.56000000000000005,-0.070000000000000007
1603,1782569862024,0.20999999999999999,-0.56000000000000005,-0.14000000000000001
1604,1782569862074,0.20999999999999999,-0.56000000000000005,-0.14000000000000001
1605,1782569862141,0.28000000000000003,-0.48999999999999999,0
1606,1782569862208,0.28000000000000003,-0.48999999999999999,0
1607,1782569862241,0.28000000000000003,-0.48999999999999999,-0.070000000000000007
1608,1782569862291,0.28000000000000003,-0.48999999999999999,-0.070000000000000007
1609,1782569862342,0.28000000000000003,-0.48999999999999999,-0.070000000000000007
1610,1782569862391,0.28000000000000003,-0.48999999999999999,-0.070000000000000007
1611,1782569862492,0.28000000000000003,-0.56000000000000005,0
1612,1782569862526,0.28000000000000003,-0.56000000000000005,0
1613,1782569862591,0.28000000000000003,-0.56000000000000005,0
1614,1782569862642,0.28000000000000003,-0.56000000000000005,0
1615,1782569862725,0.28000000000000003,-0.48999999999999999,0
1616,1782569862775,0.28000000000000003,-0.48999999999999999,0
1617,1782569862808,0.28000000000000003,-0.48999999999999999,0
1618,1782569862874,0.28000000000000003,-0.48999999999999999,0
1619,1782569862907,0.20999999999999999,-0.48999999999999999,0
1620,1782569862974,0.20999999999999999,-0.56000000000000005,0
1621,1782569863023,0.28000000000000003,-0.56000000000000005,-0.070000000000000007
1622,1782569863074,0.20999999999999999,-0.48999999999999999,-0.070000000000000007
1623,1782569863124,0.20999999999999999,-0.48999999999999999,0
1624,1782569863173,0.28000000000000003,-0.56000000000000005,0
1625,1782569863257,0.34999999999999998,-0.48999999999999999,0
1626,1782569863307,0.34999999999999998,-0.48999999999999999,0.070000000000000007
1627,1782569863340,0.28000000000000003,-0.56000000000000005,-0.070000000000000007
1628,1782569863373,0.28000000000000003,-0.48999999999999999,-0.070000000000000007
1629,1782569863390,0.28000000000000003,-0.48999999999999999,-0.070000000000000007
1630,1782569863407,0.34999999999999998,-0.48999999999999999,-0.070000000000000007
1631,1782569863440,0.20999999999999999,-0.48999999999999999,-0.070000000000000007
1632,1782569863473,0.20999999999999999,-0.48999999999999999,-0.070000000000000007
1633,1782569863523,0.20999999999999999,-0.48999999999999999,-0.070000000000000007
1634,1782569863573,0.20999999999999999,-0.48999999999999999,-0.070000000000000007
1635,1782569863656,0.28000000000000003,-0.48999999999999999,-0.070000000000000007
1636,1782569863690,0.20999999999999999,-0.48999999999999999,-0.070000000000000007
1637,1782569863706,0.20999999999999999,-0.48999999999999999,0
1638,1782569863740,0.20999999999999999,-0.48999999999999999,0
1639,1782569863823,0.28000000000000003,-0.48999999999999999,0
1640,1782569863890,0.28000000000000003,-0.48999999999999999,0
1641,1782569863957,0.28000000000000003,-0.48999999999999999,-0.070000000000000007
1642,1782569864006,0.20999999999999999,-0.56000000000000005,-0.070000000000000007
1643,1782569864106,0.28000000000000003,-0.48999999999999999,-0.070000000000000007
1644,1782569864206,0.28000000000000003,-0.48999999999999999,-0.070000000000000007
1645,1782569864240,0.28000000000000003,-0.56000000000000005,0
1646,1782569864306,0.20999999999999999,-0.56000000000000005,0
1647,1782569864355,0.20999999999999999,-0.48999999999999999,0
1648,1782569864406,0.20999999999999999,-0.48999999999999999,0
1649,1782569864456,0.20999999999999999,-0.48999999999999999,0
1650,1782569864522,0.20999999999999999,-0.56000000000000005,0.070000000000000007
1651,1782569864572,0.20999999999999999,-0.56000000000000005,0.070000000000000007
1652,1782569864639,0.20999999999999999,-0.56000000000000005,0.070000000000000007
1653,1782569864755,0.20999999999999999,-0.56000000000000005,0.070000000000000007
1654,1782569864863,0.28000000000000003,-0.56000000000000005,-0.14000000000000001
1655,1782569864922,0.28000000000000003,-0.56000000000000005,-0.14000000000000001
1656,1782569864969,0.28000000000000003,-0.48999999999999999,-0.14000000000000001
1657,1782569865009,0.28000000000000003,-0.56000000000000005,-0.070000000000000007
1658,1782569865056,0.28000000000000003,-0.56000000000000005,-0.070000000000000007
1659,1782569865140,0.34999999999999998,-0.48999999999999999,-0.14000000000000001
1660,1782569865189,0.34999999999999998,-0.48999999999999999,-0.14000000000000001
1661,1782569865222,0.34999999999999998,-0.48999999999999999,-0.14000000000000001
1662,1782569865289,0.34999999999999998,-0.48999999999999999,-0.14000000000000001
1663,1782569865338,0.34999999999999998,-0.56000000000000005,0
1664,1782569865388,0.34999999999999998,-0.56000000000000005,0
1665,1782569865421,0.34999999999999998,-0.56000000000000005,0
1666,1782569865472,0.20999999999999999,-0.56000000000000005,0
1667,1782569865539,0.14000000000000001,-0.48999999999999999,0
1668,1782569865589,0.14000000000000001,-0.48999999999999999,0
1669,1782569865641,0.20999999999999999,-0.48999999999999999,0
1670,1782569865672,0.28000000000000003,-0.56000000000000005,0.14000000000000001
1671,1782569865738,0.28000000000000003,-0.63,0.14000000000000001
1672,1782569865805,0.20999999999999999,-0.63,0.14000000000000001
1673,1782569865855,0.20999999999999999,-0.56000000000000005,0.14000000000000001
1674,1782569865888,0.20999999999999999,-0.56000000000000005,0.14000000000000001
1675,1782569865955,0.20999999999999999,-0.48999999999999999,0.14000000000000001
1676,1782569865988,0.28000000000000003,-0.56000000000000005,-0.20999999999999999
1677,1782569866088,0.20999999999999999,-0.48999999999999999,-0.20999999999999999
1678,1782569866170,0.20999999999999999,-0.48999999999999999,-0.28000000000000003
1679,1782569866220,0.14000000000000001,-0.41999999999999998,-0.28000000000000003
1680,1782569866253,0.070000000000000007,-0.41999999999999998,-0.28000000000000003
1681,1782569866253,0.34999999999999998,-0.48999999999999999,0.070000000000000007
1682,1782569866337,0.20999999999999999,-0.48999999999999999,0.14000000000000001
1683,1782569866405,0.14000000000000001,-0.48999999999999999,0.14000000000000001
1684,1782569866438,0.14000000000000001,-0.48999999999999999,0.14000000000000001
1685,1782569866504,0.14000000000000001,-0.48999999999999999,0.14000000000000001
1686,1782569866537,0.20999999999999999,-0.48999999999999999,0.14000000000000001
1687,1782569866587,0.14000000000000001,-0.56000000000000005,-0.20999999999999999
1688,1782569866637,0.14000000000000001,-0.56000000000000005,-0.28000000000000003
1689,1782569866703,0.14000000000000001,-0.56000000000000005,-0.28000000000000003
1690,1782569866737,0.14000000000000001,-0.48999999999999999,-0.28000000000000003
1691,1782569866870,0.41999999999999998,-0.56000000000000005,0.34999999999999998
1692,1782569866920,0.41999999999999998,-0.48999999999999999,0.34999999999999998
1693,1782569866970,0.41999999999999998,-0.48999999999999999,0.34999999999999998
1694,1782569867070,0.41999999999999998,-0.48999999999999999,0.34999999999999998
1695,1782569867103,0.34999999999999998,-0.48999999999999999,0.28000000000000003
1696,1782569867136,0.20999999999999999,-0.56000000000000005,-0.34999999999999998
1697,1782569867186,0.28000000000000003,-0.56000000000000005,-0.28000000000000003
1698,1782569867237,0.28000000000000003,-0.56000000000000005,-0.20999999999999999
1699,1782569867286,0.28000000000000003,-0.56000000000000005,-0.20999999999999999
1700,1782569867354,0.20999999999999999,-0.56000000000000005,0
1701,1782569867436,0.14000000000000001,-0.56000000000000005,0.070000000000000007
1702,1782569867553,0.14000000000000001,-0.56000000000000005,0
1703,1782569867603,0.14000000000000001,-0.56000000000000005,0
1704,1782569867653,0.14000000000000001,-0.56000000000000005,0
1705,1782569867735,0.20999999999999999,-0.48999999999999999,-0.14000000000000001
1706,1782569867802,0.28000000000000003,-0.48999999999999999,-0.14000000000000001
1707,1782569867902,0.34999999999999998,-0.48999999999999999,-0.20999999999999999
1708,1782569867952,0.34999999999999998,-0.48999999999999999,-0.20999999999999999
1709,1782569867969,0.34999999999999998,-0.48999999999999999,0.14000000000000001
1710,1782569868002,0.34999999999999998,-0.48999999999999999,0.14000000000000001
1711,1782569868069,0.28000000000000003,-0.48999999999999999,0.14000000000000001
1712,1782569868135,0.28000000000000003,-0.48999999999999999,0.070000000000000007
1713,1782569868185,0.20999999999999999,-0.48999999999999999,0.070000000000000007
1714,1782569868201,0.20999999999999999,-0.48999999999999999,0.070000000000000007
1715,1782569868218,0.20999999999999999,-0.56000000000000005,0.070000000000000007
1716,1782569868252,0.20999999999999999,-0.56000000000000005,0.070000000000000007
1717,1782569868268,0.20999999999999999,-0.56000000000000005,0.14000000000000001
1718,1782569868301,0.28000000000000003,-0.48999999999999999,-0.14000000000000001
1719,1782569868318,0.28000000000000003,-0.48999999999999999,-0.20999999999999999
