index,date,ACCEL_X,ACCEL_Y,ACCEL_Z
0,1782569779508,0.040000000000000001,-0.059999999999999998,1.01
1,1782569779575,0.040000000000000001,-0.059999999999999998,1.01
2,1782569779641,0.040000000000000001,-0.059999999999999998,1.01
3,1782569779675,0.040000000000000001,-0.059999999999999998,1.01
4,1782569779724,0.040000000000000001,-0.070000000000000007,1.01
5,1782569779774,0.040000000000000001,-0.070000000000000007,1.01
6,1782569779858,0.040000000000000001,-0.070000000000000007,1.01
7,1782569779874,0.040000000000000001,-0.070000000000000007,1.01
8,1782569779891,0.040000000000000001,-0.059999999999999998,1.01
9,1782569779925,0.040000000000000001,-0.059999999999999998,1.01
10,1782569779975,0.040000000000000001,-0.059999999999999998,1.01
11,1782569780007,0.040000000000000001,-0.059999999999999998,1.01
12,1782569780057,0.040000000000000001,-0.059999999999999998,1.01
13,1782569780108,0.040000000000000001,-0.059999999999999998,1.01
14,1782569780174,0.040000000000000001,-0.059999999999999998,1.01
15,1782569780208,0.040000000000000001,-0.059999999999999998,1.01
16,1782569780257,0.040000000000000001,-0.059999999999999998,1.01
17,1782569780324,0.040000000000000001,-0.059999999999999998,1.01
18,1782569780374,0.040000000000000001,-0.059999999999999998,1.01
19,1782569780407,0.040000000000000001,-0.059999999999999998,1.01
20,1782569780424,0.040000000000000001,-0.059999999999999998,1.01
21,1782569780440,0.040000000000000001,-0.059999999999999998,1.01
22,1782569780473,0.040000000000000001,-0.059999999999999998,1.01
23,1782569780491,0.040000000000000001,-0.059999999999999998,1.01
24,1782569780540,0.040000000000000001,-0.059999999999999998,1.01
25,1782569780573,0.040000000000000001,-0.059999999999999998,1.01
26,1782569780607,0.040000000000000001,-0.059999999999999998,1.01
27,1782569780673,0.040000000000000001,-0.059999999999999998,1.01
28,1782569780707,0.050000000000000003,-0.059999999999999998,1.01
29,1782569780757,0.050000000000000003,-0.059999999999999998,1.01
30,1782569780823,0.050000000000000003,-0.059999999999999998,1.01
31,1782569780874,0.050000000000000003,-0.059999999999999998,1
32,1782569780924,0.050000000000000003,-0.059999999999999998,1
33,1782569780957,0.029999999999999999,-0.070000000000000007,1.01
34,1782569781040,0.029999999999999999,-0.070000000000000007,1.01
35,1782569781056,0.029999999999999999,-0.070000000000000007,1.01
36,1782569781073,0.029999999999999999,-0.070000000000000007,1.01
37,1782569781090,0.029999999999999999,-0.059999999999999998,1.01
38,1782569781123,0.029999999999999999,-0.059999999999999998,1.01
39,1782569781157,0.029999999999999999,-0.059999999999999998,1.01
40,1782569781207,0.029999999999999999,-0.059999999999999998,1.01
41,1782569781256,0.029999999999999999,-0.059999999999999998,1.01
42,1782569781306,0.029999999999999999,-0.059999999999999998,1.01
43,1782569781373,0.040000000000000001,-0.070000000000000007,1.01
44,1782569781457,0.040000000000000001,-0.070000000000000007,1.01
45,1782569781489,0.040000000000000001,-0.070000000000000007,1.01
46,1782569781539,0.040000000000000001,-0.070000000000000007,1.01
47,1782569781606,0.040000000000000001,-0.070000000000000007,1.01
48,1782569781639,0.040000000000000001,-0.070000000000000007,1.01
49,1782569781656,0.040000000000000001,-0.070000000000000007,1.01
50,1782569781673,0.040000000000000001,-0.059999999999999998,1.01
51,1782569781705,0.040000000000000001,-0.059999999999999998,1.01
52,1782569781723,0.040000000000000001,-0.059999999999999998,1.01
53,1782569781739,0.040000000000000001,-0.059999999999999998,1.01
54,1782569781789,0.040000000000000001,-0.059999999999999998,1.01
55,1782569781872,0.040000000000000001,-0.059999999999999998,1.01
56,1782569781939,0.040000000000000001,-0.059999999999999998,1.01
57,1782569782006,0.040000000000000001,-0.059999999999999998,1.01
58,1782569782056,0.040000000000000001,-0.059999999999999998,1.01
59,1782569782122,0.040000000000000001,-0.070000000000000007,1.01
60,1782569782172,0.040000000000000001,-0.059999999999999998,1.01
61,1782569782222,0.040000000000000001,-0.059999999999999998,1.01
62,1782569782272,0.040000000000000001,-0.059999999999999998,1.01
63,1782569782305,0.040000000000000001,-0.059999999999999998,1.01
64,1782569782322,0.040000000000000001,-0.059999999999999998,1.01
65,1782569782355,0.040000000000000001,-0.059999999999999998,1.01
66,1782569782422,0.040000000000000001,-0.059999999999999998,1.01
67,1782569782438,0.040000000000000001,-0.059999999999999998,1.01
68,1782569782455,0.040000000000000001,-0.059999999999999998,1.01
69,1782569782505,0.040000000000000001,-0.059999999999999998,1.01
70,1782569782556,0.040000000000000001,-0.059999999999999998,1.01
71,1782569782589,0.040000000000000001,-0.059999999999999998,1.01
72,1782569782656,0.040000000000000001,-0.070000000000000007,1.01
73,1782569782705,0.040000000000000001,-0.070000000000000007,1.01
74,1782569782822,0.029999999999999999,-0.050000000000000003,0.95999999999999996
75,1782569782855,0.029999999999999999,-0.050000000000000003,0.95999999999999996
76,1782569782905,0.029999999999999999,-0.050000000000000003,0.98999999999999999
77,1782569782971,0.029999999999999999,-0.059999999999999998,1.05
78,1782569783071,0.029999999999999999,-0.059999999999999998,1.02
79,1782569783138,0.040000000000000001,-0.059999999999999998,1.02
80,1782569783204,0.040000000000000001,-0.059999999999999998,1.01
81,1782569783237,0.040000000000000001,-0.059999999999999998,1.01
82,1782569783338,0.040000000000000001,-0.059999999999999998,0.97999999999999998
83,1782569783422,0.040000000000000001,-0.059999999999999998,0.97999999999999998
84,1782569783455,0.040000000000000001,-0.059999999999999998,0.97999999999999998
85,1782569783571,0.029999999999999999,-0.059999999999999998,0.98999999999999999
86,1782569783620,0.040000000000000001,-0.050000000000000003,1.01
87,1782569783654,0.040000000000000001,-0.050000000000000003,1.02
88,1782569783720,0.040000000000000001,-0.050000000000000003,1.02
89,1782569783787,0.040000000000000001,-0.059999999999999998,1.02
90,1782569783838,0.040000000000000001,-0.059999999999999998,1.02
91,1782569783904,0.029999999999999999,-0.070000000000000007,1.03
92,1782569783970,0.029999999999999999,-0.070000000000000007,1.03
93,1782569784037,0.029999999999999999,-0.070000000000000007,1.03
94,1782569784070,0.029999999999999999,-0.070000000000000007,1.03
95,1782569784121,0.029999999999999999,-0.070000000000000007,1.04
96,1782569784220,0.040000000000000001,-0.070000000000000007,1.01
97,1782569784304,0.040000000000000001,-0.059999999999999998,1
98,1782569784404,0.040000000000000001,-0.059999999999999998,1
99,1782569784470,0.040000000000000001,-0.059999999999999998,1
100,1782569784537,0.040000000000000001,-0.059999999999999998,1
101,1782569784586,0.040000000000000001,-0.059999999999999998,1.01
102,1782569784653,0.040000000000000001,-0.059999999999999998,1.02
103,1782569784686,0.040000000000000001,-0.059999999999999998,1.02
104,1782569784720,0.040000000000000001,-0.059999999999999998,1.02
105,1782569784786,0.040000000000000001,-0.059999999999999998,1.02
106,1782569784920,0.040000000000000001,-0.059999999999999998,1.01
107,1782569784953,0.040000000000000001,-0.059999999999999998,1.01
108,1782569785020,0.040000000000000001,-0.059999999999999998,1.01
109,1782569785052,0.040000000000000001,-0.059999999999999998,1.01
110,1782569785120,0.040000000000000001,-0.059999999999999998,1.02
111,1782569785170,0.040000000000000001,-0.059999999999999998,1.02
112,1782569785236,0.040000000000000001,-0.059999999999999998,1.02
113,1782569785269,0.040000000000000001,-0.070000000000000007,1.02
114,1782569785335,0.040000000000000001,-0.070000000000000007,1.02
115,1782569785419,0.040000000000000001,-0.070000000000000007,1.01
116,1782569785435,0.040000000000000001,-0.059999999999999998,1.01
117,1782569785519,0.040000000000000001,-0.059999999999999998,1.01
118,1782569785552,0.040000000000000001,-0.059999999999999998,1.01
119,1782569785602,0.040000000000000001,-0.059999999999999998,1.01
120,1782569785620,0.040000000000000001,-0.059999999999999998,1.01
121,1782569785635,0.040000000000000001,-0.059999999999999998,1.01
122,1782569785703,0.040000000000000001,-0.059999999999999998,1.01
123,1782569785735,0.040000000000000001,-0.059999999999999998,1.01
124,1782569785785,0.040000000000000001,-0.059999999999999998,1.01
125,1782569785852,0.040000000000000001,-0.059999999999999998,1.01
126,1782569785902,0.040000000000000001,-0.059999999999999998,1.01
127,1782569785952,0.040000000000000001,-0.059999999999999998,1.01
128,1782569786051,0.040000000000000001,-0.059999999999999998,1.01
129,1782569786185,0.040000000000000001,-0.059999999999999998,1.01
130,1782569786251,0.040000000000000001,-0.059999999999999998,1.01
131,1782569786318,0.040000000000000001,-0.059999999999999998,1.01
132,1782569786368,0.040000000000000001,-0.059999999999999998,1.01
133,1782569786501,0.040000000000000001,-0.059999999999999998,1.01
134,1782569786584,0.040000000000000001,-0.059999999999999998,1.01
135,1782569786617,0.040000000000000001,-0.059999999999999998,1.01
136,1782569786717,0.040000000000000001,-0.059999999999999998,1.01
137,1782569786768,0.040000000000000001,-0.059999999999999998,1.01
138,1782569786834,0.040000000000000001,-0.059999999999999998,1.01
139,1782569786934,0.040000000000000001,-0.059999999999999998,1.01
140,1782569786952,0.040000000000000001,-0.059999999999999998,1.01
141,1782569787051,0.040000000000000001,-0.059999999999999998,1.01
142,1782569787234,0.040000000000000001,-0.059999999999999998,1.01
143,1782569787283,0.040000000000000001,-0.059999999999999998,1.01
144,1782569787317,0.040000000000000001,-0.059999999999999998,1.01
145,1782569787367,0.040000000000000001,-0.059999999999999998,1.01
146,1782569787433,0.040000000000000001,-0.059999999999999998,1.01
147,1782569787600,0.040000000000000001,-0.059999999999999998,1.01
148,1782569787634,0.029999999999999999,-0.070000000000000007,1.04
149,1782569787700,0.040000000000000001,-0.080000000000000002,1.05
150,1782569787750,0.029999999999999999,-0.080000000000000002,1.05
151,1782569787766,0.029999999999999999,-0.080000000000000002,1.02
152,1782569787800,0.029999999999999999,-0.059999999999999998,1.02
153,1782569787816,0.040000000000000001,-0.059999999999999998,0.98999999999999999
154,1782569787833,0.040000000000000001,-0.050000000000000003,0.98999999999999999
155,1782569787883,0.040000000000000001,-0.050000000000000003,1.01
156,1782569788034,0.040000000000000001,-0.050000000000000003,1.01
157,1782569788083,0.040000000000000001,-0.050000000000000003,1.01
158,1782569788116,0.040000000000000001,-0.050000000000000003,1.01
159,1782569788132,0.040000000000000001,-0.050000000000000003,1.01
160,1782569788199,0.040000000000000001,-0.050000000000000003,1.01
161,1782569788233,0.040000000000000001,-0.050000000000000003,1.01
162,1782569788283,0.040000000000000001,-0.050000000000000003,1.01
163,1782569788349,0.040000000000000001,-0.050000000000000003,1.01
164,1782569788382,0.040000000000000001,-0.059999999999999998,1.01
165,1782569788399,0.040000000000000001,-0.059999999999999998,1.01
166,1782569788416,0.040000000000000001,-0.059999999999999998,1.01
167,1782569788466,0.029999999999999999,-0.070000000000000007,1.01
168,1782569788533,0.029999999999999999,-0.070000000000000007,1.01
169,1782569788599,0.029999999999999999,-0.070000000000000007,1.01
170,1782569788632,0.029999999999999999,-0.070000000000000007,1.01
171,1782569788666,0.029999999999999999,-0.070000000000000007,1.01
172,1782569788683,0.029999999999999999,-0.070000000000000007,1.01
173,1782569788749,0.029999999999999999,-0.070000000000000007,1.01
174,1782569788782,0.040000000000000001,-0.070000000000000007,1.01
175,1782569788849,0.040000000000000001,-0.070000000000000007,1.01
176,1782569788998,0.040000000000000001,-0.059999999999999998,1.01
177,1782569789032,0.040000000000000001,-0.059999999999999998,1.01
178,1782569789082,0.029999999999999999,-0.059999999999999998,1.01
179,1782569789132,0.029999999999999999,-0.059999999999999998,1.01
180,1782569789198,0.029999999999999999,-0.059999999999999998,1.01
181,1782569789231,0.029999999999999999,-0.059999999999999998,1.01
182,1782569789265,0.029999999999999999,-0.059999999999999998,1.01
183,1782569789299,0.029999999999999999,-0.059999999999999998,1.01
184,1782569789315,0.029999999999999999,-0.059999999999999998,1.01
185,1782569789348,0.040000000000000001,-0.059999999999999998,1.01
186,1782569789482,0.040000000000000001,-0.059999999999999998,1.01
187,1782569789532,0.040000000000000001,-0.059999999999999998,1.02
188,1782569789581,0.040000000000000001,-0.059999999999999998,1.02
189,1782569789614,0.040000000000000001,-0.070000000000000007,1.01
190,1782569789681,0.040000000000000001,-0.070000000000000007,1.01
191,1782569789781,0.040000000000000001,-0.070000000000000007,1.01
192,1782569789865,0.040000000000000001,-0.070000000000000007,1.01
193,1782569789881,0.040000000000000001,-0.070000000000000007,1.01
194,1782569789948,0.040000000000000001,-0.070000000000000007,1.01
195,1782569789981,0.040000000000000001,-0.070000000000000007,1.01
196,1782569790047,0.040000000000000001,-0.059999999999999998,1.01
197,1782569790098,0.040000000000000001,-0.059999999999999998,1.01
198,1782569790147,0.040000000000000001,-0.059999999999999998,1.01
199,1782569790164,0.040000000000000001,-0.059999999999999998,1.01
200,1782569790197,0.040000000000000001,-0.059999999999999998,1.01
201,1782569790215,0.040000000000000001,-0.059999999999999998,1.01
202,1782569790280,0.040000000000000001,-0.059999999999999998,1.01
203,1782569790347,0.040000000000000001,-0.059999999999999998,1.01
204,1782569790415,0.040000000000000001,-0.070000000000000007,1.01
205,1782569790514,0.040000000000000001,-0.059999999999999998,1.01
206,1782569790548,0.040000000000000001,-0.070000000000000007,1.01
207,1782569790563,0.040000000000000001,-0.070000000000000007,1.01
208,1782569790597,0.040000000000000001,-0.070000000000000007,1.01
209,1782569790647,0.040000000000000001,-0.070000000000000007,1.01
210,1782569790697,0.040000000000000001,-0.070000000000000007,1.01
211,1782569790747,0.040000000000000001,-0.070000000000000007,1.01
212,1782569790814,0.040000000000000001,-0.070000000000000007,1.01
213,1782569790913,0.040000000000000001,-0.059999999999999998,1.01
214,1782569790930,0.040000000000000001,-0.059999999999999998,1.01
215,1782569790946,0.040000000000000001,-0.059999999999999998,1.01
216,1782569790997,0.040000000000000001,-0.059999999999999998,1.01
217,1782569791080,0.040000000000000001,-0.059999999999999998,1.01
218,1782569791114,0.040000000000000001,-0.059999999999999998,1.01
219,1782569791213,0.040000000000000001,-0.059999999999999998,1.01
220,1782569791246,0.040000000000000001,-0.059999999999999998,1.01
221,1782569791264,0.040000000000000001,-0.059999999999999998,1.01
222,1782569791313,0.040000000000000001,-0.059999999999999998,1.01
223,1782569791430,0.040000000000000001,-0.059999999999999998,1.01
224,1782569791463,0.040000000000000001,-0.059999999999999998,1.01
225,1782569791480,0.040000000000000001,-0.059999999999999998,1.01
226,1782569791496,0.040000000000000001,-0.059999999999999998,1.01
227,1782569791564,0.040000000000000001,-0.059999999999999998,1.01
228,1782569791629,0.040000000000000001,-0.059999999999999998,1.01
229,1782569791680,0.040000000000000001,-0.059999999999999998,1.01
230,1782569791713,0.040000000000000001,-0.059999999999999998,1.01
231,1782569791730,0.040000000000000001,-0.059999999999999998,1.01
232,1782569791763,0.040000000000000001,-0.059999999999999998,1.01
233,1782569791779,0.040000000000000001,-0.059999999999999998,1.01
234,1782569791813,0.040000000000000001,-0.059999999999999998,1.01
235,1782569791862,0.040000000000000001,-0.059999999999999998,1.01
236,1782569791963,0.040000000000000001,-0.059999999999999998,1.01
237,1782569792112,0.040000000000000001,-0.059999999999999998,1.01
238,1782569792129,0.040000000000000001,-0.059999999999999998,1.01
239,1782569792163,0.040000000000000001,-0.059999999999999998,1.01
240,1782569792246,0.040000000000000001,-0.059999999999999998,1.01
241,1782569792279,0.040000000000000001,-0.059999999999999998,1.01
242,1782569792312,0.040000000000000001,-0.059999999999999998,1.01
243,1782569792329,0.040000000000000001,-0.059999999999999998,1.01
244,1782569792346,0.040000000000000001,-0.059999999999999998,1.01
245,1782569792379,0.040000000000000001,-0.059999999999999998,1.01
246,1782569792412,0.040000000000000001,-0.059999999999999998,1.01
247,1782569792462,0.040000000000000001,-0.059999999999999998,1.01
248,1782569792528,0.040000000000000001,-0.059999999999999998,1.01
249,1782569792578,0.040000000000000001,-0.059999999999999998,1.01
250,1782569792628,0.040000000000000001,-0.059999999999999998,1.01
251,1782569792695,0.040000000000000001,-0.059999999999999998,1.01
252,1782569792728,0.040000000000000001,-0.059999999999999998,1.01
253,1782569792795,0.040000000000000001,-0.059999999999999998,1.01
254,1782569792861,0.040000000000000001,-0.059999999999999998,1.01
255,1782569792911,0.040000000000000001,-0.059999999999999998,1.01
256,1782569792961,0.040000000000000001,-0.059999999999999998,1.01
257,1782569793029,0.040000000000000001,-0.059999999999999998,1.01
258,1782569793078,0.040000000000000001,-0.059999999999999998,1.01
259,1782569793095,0.040000000000000001,-0.059999999999999998,1.01
260,1782569793111,0.040000000000000001,-0.059999999999999998,1.01
261,1782569793194,0.040000000000000001,-0.059999999999999998,1.01
262,1782569793312,0.040000000000000001,-0.070000000000000007,1.01
263,1782569793395,0.040000000000000001,-0.070000000000000007,1.02
264,1782569793411,0.040000000000000001,-0.070000000000000007,1.02
265,1782569793428,0.040000000000000001,-0.070000000000000007,1.02
266,1782569793444,0.040000000000000001,-0.070000000000000007,1.02
267,1782569793477,0.040000000000000001,-0.070000000000000007,1.01
268,1782569793545,0.040000000000000001,-0.070000000000000007,1.01
269,1782569793577,0.029999999999999999,-0.070000000000000007,1.01
270,1782569793627,0.040000000000000001,-0.059999999999999998,1.01
271,1782569793677,0.040000000000000001,-0.059999999999999998,1.01
272,1782569793694,0.040000000000000001,-0.059999999999999998,1.01
273,1782569793727,0.040000000000000001,-0.059999999999999998,1.01
274,1782569793744,0.040000000000000001,-0.059999999999999998,1.01
275,1782569793777,0.040000000000000001,-0.059999999999999998,1.01
276,1782569793827,0.040000000000000001,-0.059999999999999998,1.01
277,1782569793893,0.040000000000000001,-0.059999999999999998,1.01
278,1782569793961,0.040000000000000001,-0.059999999999999998,1.01
279,1782569793994,0.040000000000000001,-0.059999999999999998,1.01
280,1782569794044,0.040000000000000001,-0.059999999999999998,1.01
281,1782569794078,0.040000000000000001,-0.059999999999999998,1.01
282,1782569794110,0.040000000000000001,-0.059999999999999998,1.01
283,1782569794160,0.040000000000000001,-0.059999999999999998,1.01
284,1782569794177,0.040000000000000001,-0.059999999999999998,1.01
285,1782569794210,0.040000000000000001,-0.059999999999999998,1.01
286,1782569794260,0.040000000000000001,-0.059999999999999998,1.01
287,1782569794277,0.040000000000000001,-0.059999999999999998,1.01
288,1782569794311,0.040000000000000001,-0.059999999999999998,1.01
289,1782569794327,0.040000000000000001,-0.059999999999999998,1.01
290,1782569794343,0.040000000000000001,-0.059999999999999998,1.01
291,1782569794410,0.040000000000000001,-0.059999999999999998,1.01
292,1782569794476,0.040000000000000001,-0.059999999999999998,1.01
293,1782569794526,0.040000000000000001,-0.059999999999999998,1.01
294,1782569794560,0.040000000000000001,-0.059999999999999998,1.01
295,1782569794576,0.040000000000000001,-0.059999999999999998,1.01
296,1782569794610,0.040000000000000001,-0.059999999999999998,1.01
297,1782569794793,0.040000000000000001,-0.059999999999999998,1.01
298,1782569794860,0.040000000000000001,-0.059999999999999998,1.01
299,1782569794893,0.040000000000000001,-0.059999999999999998,1.01
300,1782569794909,0.040000000000000001,-0.059999999999999998,1.01
301,1782569794926,0.040000000000000001,-0.059999999999999998,1.01
302,1782569794959,0.040000000000000001,-0.059999999999999998,1.01
303,1782569794992,0.040000000000000001,-0.059999999999999998,1.01
304,1782569795026,0.040000000000000001,-0.059999999999999998,1.01
305,1782569795093,0.040000000000000001,-0.059999999999999998,1.01
306,1782569795093,0.040000000000000001,-0.059999999999999998,1.01
307,1782569795160,0.040000000000000001,-0.059999999999999998,1.01
308,1782569795225,0.040000000000000001,-0.059999999999999998,1.01
309,1782569795292,0.040000000000000001,-0.059999999999999998,1.01
310,1782569795376,0.040000000000000001,-0.059999999999999998,1.01
311,1782569795392,0.040000000000000001,-0.059999999999999998,1.01
312,1782569795442,0.040000000000000001,-0.059999999999999998,1.01
313,1782569795492,0.040000000000000001,-0.059999999999999998,1.01
314,1782569795542,0.040000000000000001,-0.059999999999999998,1.01
315,1782569795642,0.040000000000000001,-0.059999999999999998,1.01
316,1782569795675,0.040000000000000001,-0.059999999999999998,1.01
317,1782569795743,0.040000000000000001,-0.059999999999999998,1.01
318,1782569795792,0.040000000000000001,-0.059999999999999998,1.01
319,1782569795842,0.040000000000000001,-0.059999999999999998,1.01
320,1782569795909,0.040000000000000001,-0.059999999999999998,1.01
321,1782569795942,0.040000000000000001,-0.059999999999999998,1.01
322,1782569795993,0.040000000000000001,-0.059999999999999998,1.01
323,1782569796009,0.040000000000000001,-0.059999999999999998,1.01
324,1782569796059,0.040000000000000001,-0.059999999999999998,1.01
325,1782569796125,0.040000000000000001,-0.059999999999999998,1.01
326,1782569796159,0.040000000000000001,-0.059999999999999998,1.01
327,1782569796191,0.040000000000000001,-0.059999999999999998,1.01
328,1782569796225,0.040000000000000001,-0.059999999999999998,1.01
329,1782569796258,0.040000000000000001,-0.059999999999999998,1.01
330,1782569796275,0.040000000000000001,-0.059999999999999998,1.01
331,1782569796291,0.040000000000000001,-0.059999999999999998,1.01
332,1782569796325,0.040000000000000001,-0.059999999999999998,1.01
333,1782569796375,0.040000000000000001,-0.059999999999999998,1.01
334,1782569796425,0.040000000000000001,-0.059999999999999998,1.01
335,1782569796491,0.040000000000000001,-0.059999999999999998,1.01
336,1782569796508,0.040000000000000001,-0.059999999999999998,1.01
337,1782569796575,0.040000000000000001,-0.059999999999999998,1.01
338,1782569796641,0.040000000000000001,-0.059999999999999998,1.01
339,1782569796691,0.040000000000000001,-0.059999999999999998,1.01
340,1782569796742,0.040000000000000001,-0.059999999999999998,1.01
341,1782569796840,0.040000000000000001,-0.059999999999999998,1.01
342,1782569796941,0.040000000000000001,-0.059999999999999998,1.01
343,1782569797007,0.040000000000000001,-0.059999999999999998,1.01
344,1782569797058,0.040000000000000001,-0.059999999999999998,1.01
345,1782569797075,0.040000000000000001,-0.059999999999999998,1.01
346,1782569797124,0.040000000000000001,-0.059999999999999998,1.01
347,1782569797190,0.040000000000000001,-0.059999999999999998,1.01
348,1782569797224,0.040000000000000001,-0.059999999999999998,1.01
349,1782569797423,0.040000000000000001,-0.059999999999999998,1.01
350,1782569797490,0.040000000000000001,-0.059999999999999998,1.01
351,1782569797523,0.040000000000000001,-0.059999999999999998,1.01
352,1782569797573,0.040000000000000001,-0.059999999999999998,1.01
353,1782569797640,0.040000000000000001,-0.059999999999999998,1.01
354,1782569797706,0.040000000000000001,-0.059999999999999998,1.01
355,1782569797756,0.040000000000000001,-0.059999999999999998,1.01
356,1782569797856,0.040000000000000001,-0.059999999999999998,1.01
357,1782569797907,0.040000000000000001,-0.059999999999999998,1.01
358,1782569797956,0.040000000000000001,-0.059999999999999998,1.01
359,1782569798023,0.040000000000000001,-0.059999999999999998,1.01
360,1782569798089,0.040000000000000001,-0.059999999999999998,1.01
361,1782569798139,0.040000000000000001,-0.059999999999999998,1.01
362,1782569798272,0.040000000000000001,-0.059999999999999998,1.01
363,1782569798322,0.040000000000000001,-0.059999999999999998,1.01
364,1782569798390,0.040000000000000001,-0.059999999999999998,1.01
365,1782569798472,0.040000000000000001,-0.059999999999999998,1.01
366,1782569798523,0.040000000000000001,-0.059999999999999998,1.01
367,1782569798589,0.040000000000000001,-0.059999999999999998,1.01
368,1782569798622,0.040000000000000001,-0.059999999999999998,1.01
369,1782569798689,0.040000000000000001,-0.059999999999999998,1.01
370,1782569798822,0.040000000000000001,-0.059999999999999998,1.01
371,1782569798872,0.040000000000000001,-0.059999999999999998,1.01
372,1782569798922,0.040000000000000001,-0.059999999999999998,1.01
373,1782569798989,0.040000000000000001,-0.059999999999999998,1.01
374,1782569799022,0.040000000000000001,-0.059999999999999998,1.01
375,1782569799072,0.040000000000000001,-0.059999999999999998,1.01
376,1782569799105,0.040000000000000001,-0.059999999999999998,1.01
377,1782569799255,0.040000000000000001,-0.059999999999999998,1.01
378,1782569799305,0.040000000000000001,-0.059999999999999998,1.01
379,1782569799371,0.040000000000000001,-0.059999999999999998,1.01
380,1782569799422,0.040000000000000001,-0.059999999999999998,1.01
381,1782569799505,0.040000000000000001,-0.059999999999999998,1.01
382,1782569799604,0.040000000000000001,-0.059999999999999998,1.01
383,1782569799638,0.040000000000000001,-0.059999999999999998,1.01
384,1782569799671,0.040000000000000001,-0.059999999999999998,1.01
385,1782569799821,0.040000000000000001,-0.059999999999999998,1.01
386,1782569799854,0.040000000000000001,-0.059999999999999998,1.01
387,1782569799888,0.040000000000000001,-0.059999999999999998,1.01
388,1782569799904,0.040000000000000001,-0.059999999999999998,1.01
389,1782569799921,0.040000000000000001,-0.059999999999999998,1.01
390,1782569799954,0.040000000000000001,-0.059999999999999998,1.01
391,1782569799988,0.040000000000000001,-0.059999999999999998,1.01
392,1782569800021,0.040000000000000001,-0.059999999999999998,1.01
393,1782569800038,0.040000000000000001,-0.059999999999999998,1.01
394,1782569800054,0.040000000000000001,-0.059999999999999998,1.01
395,1782569800087,0.040000000000000001,-0.059999999999999998,1.01
396,1782569800137,0.040000000000000001,-0.059999999999999998,1.01
397,1782569800171,0.040000000000000001,-0.059999999999999998,1.01
398,1782569800271,0.040000000000000001,-0.059999999999999998,1.01
399,1782569800337,0.040000000000000001,-0.059999999999999998,1.01
400,1782569800404,0.040000000000000001,-0.059999999999999998,1.01
401,1782569800488,0.040000000000000001,-0.059999999999999998,1.01
402,1782569800537,0.040000000000000001,-0.059999999999999998,1.01
403,1782569800637,0.040000000000000001,-0.059999999999999998,1.01
404,1782569800703,0.040000000000000001,-0.059999999999999998,1.01
405,1782569800737,0.040000000000000001,-0.059999999999999998,1.01
406,1782569800803,0.040000000000000001,-0.059999999999999998,1.01
407,1782569800837,0.040000000000000001,-0.059999999999999998,1.01
408,1782569800921,0.040000000000000001,-0.070000000000000007,1.01
409,1782569800953,0.040000000000000001,-0.059999999999999998,1.01
410,1782569800987,0.040000000000000001,-0.059999999999999998,1.01
411,1782569801036,0.040000000000000001,-0.070000000000000007,1.01
412,1782569801086,0.040000000000000001,-0.059999999999999998,1.01
413,1782569801153,0.040000000000000001,-0.059999999999999998,1.01
414,1782569801169,0.040000000000000001,-0.059999999999999998,1.01
415,1782569801186,0.040000000000000001,-0.059999999999999998,1.01
416,1782569801219,0.040000000000000001,-0.059999999999999998,1.01
417,1782569801236,0.040000000000000001,-0.059999999999999998,1.01
418,1782569801337,0.040000000000000001,-0.059999999999999998,1.01
419,1782569801436,0.040000000000000001,-0.059999999999999998,1.01
420,1782569801469,0.040000000000000001,-0.059999999999999998,1.01
421,1782569801536,0.040000000000000001,-0.059999999999999998,1.01
422,1782569801553,0.040000000000000001,-0.059999999999999998,1.01
423,1782569801570,0.040000000000000001,-0.059999999999999998,1.01
424,1782569801603,0.040000000000000001,-0.059999999999999998,1.01
425,1782569801769,0.040000000000000001,-0.059999999999999998,1.01
426,1782569801819,0.040000000000000001,-0.059999999999999998,1.01
427,1782569801836,0.040000000000000001,-0.059999999999999998,1.01
428,1782569801869,0.040000000000000001,-0.059999999999999998,1.01
429,1782569801902,0.040000000000000001,-0.059999999999999998,1.01
430,1782569801919,0.040000000000000001,-0.059999999999999998,1.01
431,1782569801953,0.040000000000000001,-0.070000000000000007,1.01
432,1782569801986,0.040000000000000001,-0.059999999999999998,1.01
433,1782569802019,0.040000000000000001,-0.059999999999999998,1.01
434,1782569802119,0.040000000000000001,-0.059999999999999998,1.01
435,1782569802135,0.040000000000000001,-0.059999999999999998,1.01
436,1782569802152,0.040000000000000001,-0.059999999999999998,1.01
437,1782569802186,0.040000000000000001,-0.059999999999999998,1.01
438,1782569802218,0.040000000000000001,-0.059999999999999998,1.01
439,1782569802285,0.040000000000000001,-0.059999999999999998,1.01
440,1782569802385,0.040000000000000001,-0.059999999999999998,1.01
441,1782569802418,0.040000000000000001,-0.059999999999999998,1.01
442,1782569802485,0.040000000000000001,-0.059999999999999998,1.01
443,1782569802535,0.040000000000000001,-0.059999999999999998,1.01
444,1782569802602,0.040000000000000001,-0.059999999999999998,1.01
445,1782569802668,0.040000000000000001,-0.059999999999999998,1.01
446,1782569802718,0.040000000000000001,-0.059999999999999998,1.01
447,1782569802784,0.040000000000000001,-0.059999999999999998,1.01
448,1782569802835,0.040000000000000001,-0.059999999999999998,1.01
449,1782569802935,0.040000000000000001,-0.059999999999999998,1.01
450,1782569803068,0.040000000000000001,-0.059999999999999998,1.01
451,1782569803085,0.040000000000000001,-0.059999999999999998,1.01
452,1782569803134,0.040000000000000001,-0.059999999999999998,1.01
453,1782569803184,0.040000000000000001,-0.059999999999999998,1.01
454,1782569803251,0.040000000000000001,-0.059999999999999998,1.01
455,1782569803384,0.040000000000000001,-0.059999999999999998,1.01
456,1782569803467,0.040000000000000001,-0.059999999999999998,1.01
457,1782569803517,0.040000000000000001,-0.059999999999999998,1.01
458,1782569803584,0.040000000000000001,-0.059999999999999998,1.01
459,1782569803717,0.040000000000000001,-0.059999999999999998,1.01
460,1782569803768,0.040000000000000001,-0.059999999999999998,1.01
461,1782569803851,0.040000000000000001,-0.059999999999999998,1.01
462,1782569803883,0.040000000000000001,-0.059999999999999998,1.01
463,1782569803933,0.040000000000000001,-0.059999999999999998,1.01
464,1782569803983,0.040000000000000001,-0.070000000000000007,1.01
465,1782569804066,0.040000000000000001,-0.070000000000000007,1.01
466,1782569804133,0.040000000000000001,-0.059999999999999998,1.01
467,1782569804166,0.040000000000000001,-0.059999999999999998,1.01
468,1782569804233,0.040000000000000001,-0.059999999999999998,1.01
469,1782569804316,0.040000000000000001,-0.059999999999999998,1.01
470,1782569804350,0.040000000000000001,-0.059999999999999998,1.01
471,1782569804400,0.040000000000000001,-0.059999999999999998,1.01
472,1782569804450,0.040000000000000001,-0.059999999999999998,1.01
473,1782569804550,0.040000000000000001,-0.059999999999999998,1.01
474,1782569804616,0.040000000000000001,-0.059999999999999998,1.01
475,1782569804649,0.040000000000000001,-0.059999999999999998,1.01
476,1782569804683,0.040000000000000001,-0.059999999999999998,1.01
477,1782569804750,0.040000000000000001,-0.059999999999999998,1.01
478,1782569804816,0.040000000000000001,-0.059999999999999998,1.01
479,1782569804899,0.040000000000000001,-0.059999999999999998,1.01
480,1782569804916,0.040000000000000001,-0.059999999999999998,1.01
481,1782569804933,0.040000000000000001,-0.059999999999999998,1.01
482,1782569804949,0.040000000000000001,-0.059999999999999998,1.01
483,1782569804999,0.040000000000000001,-0.059999999999999998,1.01
484,1782569805033,0.040000000000000001,-0.059999999999999998,1.01
485,1782569805066,0.040000000000000001,-0.059999999999999998,1.01
486,1782569805082,0.040000000000000001,-0.059999999999999998,1.01
487,1782569805099,0.040000000000000001,-0.059999999999999998,1.01
488,1782569805132,0.040000000000000001,-0.059999999999999998,1.01
489,1782569805166,0.040000000000000001,-0.059999999999999998,1.01
490,1782569805232,0.040000000000000001,-0.059999999999999998,1.01
491,1782569805248,0.040000000000000001,-0.059999999999999998,1.01
492,1782569805282,0.040000000000000001,-0.059999999999999998,1.01
493,1782569805315,0.040000000000000001,-0.059999999999999998,1.01
494,1782569805349,0.040000000000000001,-0.059999999999999998,1.01
495,1782569805398,0.040000000000000001,-0.059999999999999998,1.01
496,1782569805432,0.040000000000000001,-0.059999999999999998,1.01
497,1782569805449,0.040000000000000001,-0.059999999999999998,1.01
498,1782569805498,0.040000000000000001,-0.059999999999999998,1.01
499,1782569805551,0.040000000000000001,-0.059999999999999998,1.01
500,1782569805577,0.040000000000000001,-0.059999999999999998,1.01
501,1782569805599,0.040000000000000001,-0.059999999999999998,1.01
502,1782569805615,0.040000000000000001,-0.059999999999999998,1.01
503,1782569805665,0.040000000000000001,-0.059999999999999998,1.01
504,1782569805782,0.040000000000000001,-0.059999999999999998,1.01
505,1782569805882,0.040000000000000001,-0.059999999999999998,1.01
506,1782569805915,0.040000000000000001,-0.059999999999999998,1.01
507,1782569805949,0.040000000000000001,-0.059999999999999998,1.01
508,1782569805982,0.040000000000000001,-0.059999999999999998,1.01
509,1782569806031,0.040000000000000001,-0.059999999999999998,1.01
510,1782569806099,0.040000000000000001,-0.059999999999999998,1.01
511,1782569806181,0.040000000000000001,-0.059999999999999998,1.01
512,1782569806199,0.040000000000000001,-0.059999999999999998,1.01
513,1782569806232,0.040000000000000001,-0.059999999999999998,1.01
514,1782569806248,0.040000000000000001,-0.059999999999999998,1.01
515,1782569806265,0.040000000000000001,-0.059999999999999998,1.01
516,1782569806298,0.040000000000000001,-0.059999999999999998,1.01
517,1782569806365,0.040000000000000001,-0.059999999999999998,1.01
518,1782569806415,0.040000000000000001,-0.059999999999999998,1.01
519,1782569806465,0.040000000000000001,-0.059999999999999998,1.01
520,1782569806481,0.040000000000000001,-0.059999999999999998,1.01
521,1782569806500,0.040000000000000001,-0.059999999999999998,1.01
522,1782569806534,0.040000000000000001,-0.059999999999999998,1.01
523,1782569806550,0.040000000000000001,-0.059999999999999998,1.01
524,1782569806598,0.040000000000000001,-0.059999999999999998,1.01
525,1782569806648,0.040000000000000001,-0.059999999999999998,1.01
526,1782569806749,0.040000000000000001,-0.059999999999999998,1.01
527,1782569806749,0.040000000000000001,-0.059999999999999998,1.01
528,1782569806798,0.040000000000000001,-0.059999999999999998,1.01
529,1782569806865,0.040000000000000001,-0.059999999999999998,1.01
530,1782569806881,0.040000000000000001,-0.059999999999999998,1.01
531,1782569806931,0.040000000000000001,-0.059999999999999998,1.01
532,1782569806964,0.040000000000000001,-0.059999999999999998,1.01
533,1782569806981,0.040000000000000001,-0.059999999999999998,1.01
534,1782569807049,0.040000000000000001,-0.059999999999999998,1.01
535,1782569807098,0.040000000000000001,-0.059999999999999998,1.01
536,1782569807116,0.040000000000000001,-0.059999999999999998,1.01
537,1782569807181,0.040000000000000001,-0.059999999999999998,1.01
538,1782569807232,0.040000000000000001,-0.059999999999999998,1.01
539,1782569807281,0.040000000000000001,-0.059999999999999998,1.01
540,1782569807314,0.040000000000000001,-0.059999999999999998,1.01
541,1782569807330,0.040000000000000001,-0.059999999999999998,1.01
542,1782569807381,0.040000000000000001,-0.059999999999999998,1.01
543,1782569807431,0.040000000000000001,-0.059999999999999998,1.01
544,1782569807464,0.040000000000000001,-0.059999999999999998,1.01
545,1782569807531,0.040000000000000001,-0.059999999999999998,1.01
546,1782569807582,0.040000000000000001,-0.059999999999999998,1.01
547,1782569807598,0.040000000000000001,-0.059999999999999998,1.01
548,1782569807714,0.040000000000000001,-0.059999999999999998,1.01
549,1782569807797,0.040000000000000001,-0.059999999999999998,1.01
550,1782569807847,0.040000000000000001,-0.059999999999999998,1.01
551,1782569807930,0.040000000000000001,-0.059999999999999998,1.01
552,1782569807980,0.040000000000000001,-0.059999999999999998,1.01
553,1782569808030,0.040000000000000001,-0.059999999999999998,1.01
554,1782569808080,0.040000000000000001,-0.059999999999999998,1.01
555,1782569808130,0.040000000000000001,-0.059999999999999998,1.01
556,1782569808196,0.040000000000000001,-0.059999999999999998,1.01
557,1782569808246,0.040000000000000001,-0.059999999999999998,1.01
558,1782569808379,0.040000000000000001,-0.059999999999999998,1.01
559,1782569808412,0.040000000000000001,-0.059999999999999998,1.01
560,1782569808446,0.040000000000000001,-0.059999999999999998,1.01
561,1782569808530,0.040000000000000001,-0.059999999999999998,1.01
562,1782569808579,0.040000000000000001,-0.059999999999999998,1.01
563,1782569808612,0.040000000000000001,-0.059999999999999998,1.01
564,1782569808663,0.040000000000000001,-0.059999999999999998,1.01
565,1782569808696,0.040000000000000001,-0.059999999999999998,1.01
566,1782569808729,0.040000000000000001,-0.059999999999999998,1.01
567,1782569808829,0.040000000000000001,-0.059999999999999998,1.01
568,1782569808962,0.040000000000000001,-0.059999999999999998,1.01
569,1782569808979,0.040000000000000001,-0.059999999999999998,1.01
570,1782569808996,0.040000000000000001,-0.059999999999999998,1.01
571,1782569809029,0.040000000000000001,-0.059999999999999998,1.01
572,1782569809212,0.040000000000000001,-0.059999999999999998,1.01
573,1782569809262,0.040000000000000001,-0.059999999999999998,1.01
574,1782569809279,0.040000000000000001,-0.059999999999999998,1.01
575,1782569809313,0.040000000000000001,-0.059999999999999998,1.01
576,1782569809329,0.040000000000000001,-0.059999999999999998,1.01
577,1782569809378,0.040000000000000001,-0.059999999999999998,1.01
578,1782569809429,0.040000000000000001,-0.059999999999999998,1.01
579,1782569809495,0.040000000000000001,-0.059999999999999998,1.01
580,1782569809547,0.040000000000000001,-0.059999999999999998,1.01
581,1782569809562,0.040000000000000001,-0.059999999999999998,1.01
582,1782569809644,0.040000000000000001,-0.059999999999999998,1.01
583,1782569809678,0.040000000000000001,-0.059999999999999998,1.01
584,1782569809728,0.040000000000000001,-0.059999999999999998,1.01
585,1782569809761,0.040000000000000001,-0.059999999999999998,1.01
586,1782569809777,0.040000000000000001,-0.059999999999999998,1.01
587,1782569809811,0.040000000000000001,-0.059999999999999998,1.01
588,1782569809844,0.040000000000000001,-0.059999999999999998,1.01
589,1782569809894,0.040000000000000001,-0.059999999999999998,1.01
590,1782569809961,0.040000000000000001,-0.059999999999999998,1.01
591,1782569809994,0.040000000000000001,-0.059999999999999998,1.01
592,1782569810028,0.040000000000000001,-0.059999999999999998,1.01
593,1782569810077,0.040000000000000001,-0.059999999999999998,1.01
594,1782569810144,0.040000000000000001,-0.059999999999999998,1.01
595,1782569810177,0.040000000000000001,-0.059999999999999998,1.01
596,1782569810227,0.040000000000000001,-0.059999999999999998,1.01
597,1782569810261,0.040000000000000001,-0.059999999999999998,1.01
598,1782569810310,0.040000000000000001,-0.070000000000000007,1.01
599,1782569810344,0.040000000000000001,-0.070000000000000007,1.01
600,1782569810410,0.040000000000000001,-0.070000000000000007,1.01
601,1782569810460,0.040000000000000001,-0.070000000000000007,1.01
602,1782569810527,0.040000000000000001,-0.059999999999999998,1.01
603,1782569810544,0.040000000000000001,-0.059999999999999998,1.01
604,1782569810577,0.040000000000000001,-0.059999999999999998,1.01
605,1782569810627,0.040000000000000001,-0.070000000000000007,1.01
606,1782569810643,0.040000000000000001,-0.070000000000000007,1.01
607,1782569810677,0.040000000000000001,-0.070000000000000007,1.01
608,1782569810744,0.040000000000000001,-0.070000000000000007,1.01
609,1782569810843,0.040000000000000001,-0.070000000000000007,1.01
610,1782569810893,0.040000000000000001,-0.059999999999999998,1.01
611,1782569810910,0.040000000000000001,-0.059999999999999998,1.01
612,1782569810943,0.040000000000000001,-0.059999999999999998,1.01
613,1782569810960,0.040000000000000001,-0.059999999999999998,1.01
614,1782569811060,0.040000000000000001,-0.059999999999999998,1.01
615,1782569811093,0.040000000000000001,-0.059999999999999998,1.01
616,1782569811109,0.040000000000000001,-0.059999999999999998,1.01
617,1782569811143,0.040000000000000001,-0.059999999999999998,1.01
618,1782569811276,0.040000000000000001,-0.059999999999999998,1.01
619,1782569811326,0.040000000000000001,-0.059999999999999998,1.01
620,1782569811359,0.040000000000000001,-0.059999999999999998,1.01
621,1782569811393,0.040000000000000001,-0.059999999999999998,1.01
622,1782569811410,0.040000000000000001,-0.059999999999999998,1.01
623,1782569811426,0.040000000000000001,-0.059999999999999998,1.01
624,1782569811459,0.040000000000000001,-0.059999999999999998,1.01
625,1782569811476,0.040000000000000001,-0.059999999999999998,1.01
626,1782569811526,0.040000000000000001,-0.059999999999999998,1.01
627,1782569811593,0.040000000000000001,-0.059999999999999998,1.01
628,1782569811643,0.040000000000000001,-0.059999999999999998,1.01
629,1782569811710,0.040000000000000001,-0.059999999999999998,1.01
630,1782569811743,0.040000000000000001,-0.059999999999999998,1.01
631,1782569811809,0.040000000000000001,-0.059999999999999998,1.01
632,1782569811843,0.040000000000000001,-0.059999999999999998,1.01
633,1782569811892,0.040000000000000001,-0.059999999999999998,1.01
634,1782569811942,0.040000000000000001,-0.059999999999999998,1.01
635,1782569811976,0.040000000000000001,-0.059999999999999998,1.01
636,1782569812043,0.040000000000000001,-0.059999999999999998,1.01
637,1782569812075,0.040000000000000001,-0.059999999999999998,1.01
638,1782569812143,0.040000000000000001,-0.059999999999999998,1.01
639,1782569812192,0.040000000000000001,-0.059999999999999998,1.01
640,1782569812259,0.040000000000000001,-0.059999999999999998,1.01
641,1782569812325,0.040000000000000001,-0.059999999999999998,1.01
642,1782569812359,0.040000000000000001,-0.059999999999999998,1.01
643,1782569812408,0.040000000000000001,-0.059999999999999998,1.01
644,1782569812492,0.040000000000000001,-0.059999999999999998,1.01
645,1782569812625,0.040000000000000001,-0.059999999999999998,1.01
646,1782569812675,0.040000000000000001,-0.059999999999999998,1.01
647,1782569812824,0.040000000000000001,-0.059999999999999998,1.01
648,1782569812841,0.040000000000000001,-0.059999999999999998,1.01
649,1782569812908,0.040000000000000001,-0.059999999999999998,1.01
650,1782569812958,0.040000000000000001,-0.059999999999999998,1.01
651,1782569813043,0.040000000000000001,-0.059999999999999998,1.01
652,1782569813075,0.040000000000000001,-0.059999999999999998,1.01
653,1782569813125,0.040000000000000001,-0.059999999999999998,1.01
654,1782569813208,0.040000000000000001,-0.059999999999999998,1.01
655,1782569813308,0.040000000000000001,-0.059999999999999998,1.01
656,1782569813341,0.040000000000000001,-0.059999999999999998,1.01
657,1782569813458,0.040000000000000001,-0.059999999999999998,1.01
658,1782569813508,0.040000000000000001,-0.059999999999999998,1.01
659,1782569813591,0.040000000000000001,-0.059999999999999998,1.01
660,1782569813641,0.040000000000000001,-0.059999999999999998,1.01
661,1782569813690,0.080000000000000002,-0.11,1.01
662,1782569813740,0.080000000000000002,-0.11,1.01
663,1782569813808,0.070000000000000007,-0.089999999999999997,1.01
664,1782569813840,0.059999999999999998,-0.080000000000000002,1.01
665,1782569813890,0.040000000000000001,-0.080000000000000002,1.02
666,1782569813957,0.029999999999999999,-0.080000000000000002,1.01
667,1782569814024,0.10000000000000001,-0.089999999999999997,1.02
668,1782569814041,0.10000000000000001,-0.080000000000000002,1.02
669,1782569814107,0.11,-0.080000000000000002,1.02
670,1782569814158,0.10000000000000001,-0.080000000000000002,1.02
671,1782569814223,0.10000000000000001,-0.11,1.02
672,1782569814290,0.11,-0.11,1.01
673,1782569814373,0.11,-0.14999999999999999,1.01
674,1782569814439,0.11,-0.14999999999999999,0.98999999999999999
675,1782569814473,-0.02,-0.14999999999999999,1.01
676,1782569814540,-0.02,-0.040000000000000001,1.04
677,1782569814607,0.070000000000000007,-0.059999999999999998,1.0800000000000001
678,1782569814639,0.02,-0.040000000000000001,1.1000000000000001
679,1782569814706,0.02,-0.029999999999999999,0.96999999999999997
680,1782569814756,0.02,-0,1.02
681,1782569814789,0.02,-0,0.98999999999999999
682,1782569814823,0.029999999999999999,0.01,0.98999999999999999
683,1782569814890,-0.029999999999999999,0.02,0.95999999999999996
684,1782569815023,-0.029999999999999999,0.02,0.95999999999999996
685,1782569815056,-0.029999999999999999,0.02,0.95999999999999996
686,1782569815123,-0.029999999999999999,0.01,0.95999999999999996
687,1782569815156,-0.059999999999999998,-0.01,1.0900000000000001
688,1782569815222,-0.059999999999999998,-0.01,1.0900000000000001
689,1782569815256,-0.01,-0.01,1.0600000000000001
690,1782569815306,-0.01,-0.02,1.0600000000000001
691,1782569815372,-0.01,-0.050000000000000003,1
692,1782569815389,-0.029999999999999999,-0.050000000000000003,0.98999999999999999
693,1782569815406,-0.050000000000000003,-0.050000000000000003,0.98999999999999999
694,1782569815439,-0.25,0.059999999999999998,1.03
695,1782569815505,-0.25,0.12,1
696,1782569815588,-0.25,0.12,0.97999999999999998
697,1782569815655,-0.22,0.12,0.97999999999999998
698,1782569815688,-0.050000000000000003,0.029999999999999999,0.97999999999999998
699,1782569815739,0.23000000000000001,-0.23000000000000001,1
700,1782569815789,0.17000000000000001,-0.14999999999999999,1
701,1782569815855,0.14999999999999999,-0.11,1.04
702,1782569815888,0.080000000000000002,-0.11,1.05
703,1782569815938,-0.029999999999999999,-0.10000000000000001,1
704,1782569815988,-0.27000000000000002,0.14999999999999999,1.05
705,1782569816055,0.20999999999999999,-0.17000000000000001,1.01
706,1782569816088,0.17999999999999999,-0.17000000000000001,1.01
707,1782569816138,0.14000000000000001,-0.14999999999999999,1.01
708,1782569816188,0.040000000000000001,-0.089999999999999997,1.01
709,1782569816288,0.17000000000000001,-0.19,1.01
710,1782569816322,0.070000000000000007,-0.14999999999999999,1.01
711,1782569816372,-0.28000000000000003,0.12,0.98999999999999999
712,1782569816438,-0.28000000000000003,0.12,1.01
713,1782569816505,-0.28000000000000003,0.12,0.98999999999999999
714,1782569816537,-0.080000000000000002,0.050000000000000003,0.98999999999999999
715,1782569816571,0.23999999999999999,-0.23999999999999999,1.02
716,1782569816638,0.22,-0.22,1.02
717,1782569816755,0.20999999999999999,-0.17999999999999999,1.02
718,1782569816805,0.14999999999999999,-0.14999999999999999,1.03
719,1782569816838,0.17000000000000001,-0.22,0.98999999999999999
720,1782569816906,0.23000000000000001,-0.22,1
721,1782569816973,0.23000000000000001,-0.22,1
722,1782569817022,0.23000000000000001,-0.22,1
723,1782569817071,0.17000000000000001,-0.20000000000000001,1
724,1782569817121,0.12,-0.10000000000000001,1.02
725,1782569817154,0.029999999999999999,-0.059999999999999998,1.03
726,1782569817290,0.040000000000000001,-0.059999999999999998,1.02
727,1782569817322,0.040000000000000001,-0.059999999999999998,1.02
728,1782569817337,0.040000000000000001,-0.059999999999999998,1.01
729,1782569817355,0.040000000000000001,-0.059999999999999998,1.01
730,1782569817389,0.040000000000000001,-0.059999999999999998,1.01
731,1782569817405,0.040000000000000001,-0.059999999999999998,1.01
732,1782569817437,0.040000000000000001,-0.059999999999999998,1.01
733,1782569817537,0.040000000000000001,-0.059999999999999998,1.01
734,1782569817587,0.040000000000000001,-0.059999999999999998,1.01
735,1782569817620,0.040000000000000001,-0.059999999999999998,1.01
736,1782569817654,0.040000000000000001,-0.059999999999999998,1.01
737,1782569817671,0.040000000000000001,-0.070000000000000007,1.01
738,1782569817705,0.040000000000000001,-0.059999999999999998,1.01
739,1782569817753,0.040000000000000001,-0.070000000000000007,1.01
740,1782569817804,0.040000000000000001,-0.070000000000000007,1.01
741,1782569817853,0.040000000000000001,-0.070000000000000007,1.01
742,1782569817903,0.040000000000000001,-0.070000000000000007,1.01
743,1782569817937,0.040000000000000001,-0.070000000000000007,1.01
744,1782569817970,0.040000000000000001,-0.070000000000000007,1.01
745,1782569817987,0.040000000000000001,-0.059999999999999998,1.01
746,1782569818037,0.040000000000000001,-0.059999999999999998,1.01
747,1782569818086,0.040000000000000001,-0.059999999999999998,1.01
748,1782569818153,0.040000000000000001,-0.059999999999999998,1.01
749,1782569818187,0.040000000000000001,-0.059999999999999998,1.01
750,1782569818254,0.040000000000000001,-0.059999999999999998,1.01
751,1782569818270,0.040000000000000001,-0.059999999999999998,1.01
752,1782569818353,0.040000000000000001,-0.059999999999999998,1.01
753,1782569818437,0.040000000000000001,-0.059999999999999998,1.01
754,1782569818536,0.040000000000000001,-0.059999999999999998,1.01
755,1782569818587,0.040000000000000001,-0.059999999999999998,1.01
756,1782569818636,0.040000000000000001,-0.059999999999999998,1.01
757,1782569818687,0.040000000000000001,-0.059999999999999998,1.01
758,1782569818753,0.040000000000000001,-0.059999999999999998,1.01
759,1782569818786,0.040000000000000001,-0.059999999999999998,1.01
760,1782569818819,0.040000000000000001,-0.059999999999999998,1.01
761,1782569818886,0.040000000000000001,-0.059999999999999998,1.01
762,1782569818936,0.040000000000000001,-0.059999999999999998,1.01
763,1782569818986,0.040000000000000001,-0.059999999999999998,1.01
764,1782569819037,0.040000000000000001,-0.059999999999999998,1.01
765,1782569819086,0.040000000000000001,-0.059999999999999998,1.01
766,1782569819236,0.040000000000000001,-0.059999999999999998,1.01
767,1782569819285,0.040000000000000001,-0.059999999999999998,1.01
768,1782569819335,0.040000000000000001,-0.059999999999999998,1.01
769,1782569819386,0.040000000000000001,-0.059999999999999998,1.01
770,1782569819419,0.040000000000000001,-0.059999999999999998,1.01
771,1782569819486,0.040000000000000001,-0.059999999999999998,1.01
772,1782569819519,0.040000000000000001,-0.059999999999999998,1.01
773,1782569819552,0.040000000000000001,-0.059999999999999998,1.01
774,1782569819569,0.040000000000000001,-0.059999999999999998,1.01
775,1782569819585,0.040000000000000001,-0.059999999999999998,1.01
776,1782569819619,0.040000000000000001,-0.059999999999999998,1.01
777,1782569819668,0.040000000000000001,-0.059999999999999998,1.01
778,1782569819735,0.040000000000000001,-0.059999999999999998,1.01
779,1782569819818,0.040000000000000001,-0.059999999999999998,1.01
780,1782569819851,0.040000000000000001,-0.059999999999999998,1.01
781,1782569819868,0.040000000000000001,-0.059999999999999998,1.01
782,1782569819884,0.040000000000000001,-0.059999999999999998,1.01
783,1782569819917,0.040000000000000001,-0.059999999999999998,1.01
784,1782569819951,0.040000000000000001,-0.059999999999999998,1.01
785,1782569820001,0.040000000000000001,-0.059999999999999998,1.01
786,1782569820035,0.040000000000000001,-0.059999999999999998,1.01
787,1782569820101,0.040000000000000001,-0.059999999999999998,1.01
788,1782569820151,0.040000000000000001,-0.059999999999999998,1.01
789,1782569820235,0.040000000000000001,-0.059999999999999998,1.01
790,1782569820268,0.040000000000000001,-0.059999999999999998,1.01
791,1782569820333,0.040000000000000001,-0.059999999999999998,1.01
792,1782569820433,0.040000000000000001,-0.059999999999999998,1.01
793,1782569820483,0.040000000000000001,-0.059999999999999998,1.01
794,1782569820500,0.040000000000000001,-0.059999999999999998,1.01
795,1782569820534,0.040000000000000001,-0.059999999999999998,1.01
796,1782569820551,0.040000000000000001,-0.059999999999999998,1.01
797,1782569820617,0.040000000000000001,-0.059999999999999998,1.01
798,1782569820650,0.040000000000000001,-0.059999999999999998,1.01
799,1782569820717,0.040000000000000001,-0.059999999999999998,1.01
800,1782569820783,0.040000000000000001,-0.059999999999999998,1.01
801,1782569820817,0.040000000000000001,-0.059999999999999998,1.01
802,1782569820850,0.040000000000000001,-0.059999999999999998,1.01
803,1782569820900,0.040000000000000001,-0.059999999999999998,1.01
804,1782569821016,0.040000000000000001,-0.059999999999999998,1.01
805,1782569821083,0.040000000000000001,-0.059999999999999998,1.01
806,1782569821083,0.040000000000000001,-0.059999999999999998,1.01
807,1782569821117,0.040000000000000001,-0.059999999999999998,1.01
808,1782569821117,0.040000000000000001,-0.059999999999999998,1.01
809,1782569821183,0.040000000000000001,-0.059999999999999998,1.01
810,1782569821234,0.040000000000000001,-0.059999999999999998,1.01
811,1782569821282,0.040000000000000001,-0.059999999999999998,1.01
812,1782569821316,0.040000000000000001,-0.059999999999999998,1.01
813,1782569821383,0.040000000000000001,-0.059999999999999998,1.01
814,1782569821450,0.040000000000000001,-0.059999999999999998,1.01
815,1782569821499,0.040000000000000001,-0.059999999999999998,1.01
816,1782569821566,0.040000000000000001,-0.059999999999999998,1.01
817,1782569821666,0.040000000000000001,-0.059999999999999998,1.01
818,1782569821699,0.040000000000000001,-0.059999999999999998,1.01
819,1782569821767,0.040000000000000001,-0.059999999999999998,1.01
820,1782569821832,0.040000000000000001,-0.059999999999999998,1.01
821,1782569821883,0.040000000000000001,-0.059999999999999998,1.01
822,1782569821916,0.040000000000000001,-0.059999999999999998,1.01
823,1782569821950,0.040000000000000001,-0.059999999999999998,1.01
824,1782569821966,0.040000000000000001,-0.059999999999999998,1.01
825,1782569821982,0.040000000000000001,-0.059999999999999998,1.01
826,1782569822015,0.040000000000000001,-0.059999999999999998,1.01
827,1782569822115,0.040000000000000001,-0.059999999999999998,1.01
828,1782569822199,0.040000000000000001,-0.059999999999999998,1.01
829,1782569822249,0.040000000000000001,-0.059999999999999998,1.01
830,1782569822283,0.040000000000000001,-0.059999999999999998,1.01
831,1782569822333,0.040000000000000001,-0.059999999999999998,1.01
832,1782569822400,0.040000000000000001,-0.059999999999999998,1.01
833,1782569822416,0.040000000000000001,-0.059999999999999998,1.01
834,1782569822433,0.040000000000000001,-0.059999999999999998,1.01
835,1782569822467,0.040000000000000001,-0.059999999999999998,1.01
836,1782569822516,0.040000000000000001,-0.059999999999999998,1.01
837,1782569822550,0.040000000000000001,-0.059999999999999998,1.01
838,1782569822583,0.040000000000000001,-0.059999999999999998,1.01
839,1782569822633,0.040000000000000001,-0.059999999999999998,1.01
840,1782569822665,0.040000000000000001,-0.059999999999999998,1.01
841,1782569822715,0.040000000000000001,-0.059999999999999998,1.01
842,1782569822816,0.040000000000000001,-0.059999999999999998,1.01
843,1782569822898,0.040000000000000001,-0.059999999999999998,1.01
844,1782569822949,0.040000000000000001,-0.059999999999999998,1.01
845,1782569823098,0.040000000000000001,-0.059999999999999998,1.01
846,1782569823148,0.040000000000000001,-0.059999999999999998,1.01
847,1782569823181,0.040000000000000001,-0.059999999999999998,1.01
848,1782569823249,0.040000000000000001,-0.059999999999999998,1.01
849,1782569823265,0.040000000000000001,-0.059999999999999998,1.01
850,1782569823331,0.040000000000000001,-0.059999999999999998,1.01
851,1782569823481,0.040000000000000001,-0.059999999999999998,1.01
852,1782569823547,0.040000000000000001,-0.059999999999999998,1.01
853,1782569823582,0.040000000000000001,-0.059999999999999998,1.01
854,1782569823631,0.040000000000000001,-0.059999999999999998,1.01
855,1782569823698,0.040000000000000001,-0.059999999999999998,1.01
856,1782569823765,0.040000000000000001,-0.059999999999999998,1.01
857,1782569823830,0.040000000000000001,-0.059999999999999998,1.01
858,1782569823880,0.040000000000000001,-0.059999999999999998,1.01
859,1782569823931,0.040000000000000001,-0.059999999999999998,1.01
860,1782569823997,0.040000000000000001,-0.059999999999999998,1.01
861,1782569824063,0.040000000000000001,-0.059999999999999998,1.01
862,1782569824097,0.040000000000000001,-0.059999999999999998,1.01
863,1782569824163,0.040000000000000001,-0.059999999999999998,1.01
864,1782569824214,0.040000000000000001,-0.059999999999999998,1.01
865,1782569824247,0.040000000000000001,-0.059999999999999998,1.01
866,1782569824263,0.040000000000000001,-0.059999999999999998,1.01
867,1782569824330,0.040000000000000001,-0.059999999999999998,1.01
868,1782569824381,0.040000000000000001,-0.059999999999999998,1.01
869,1782569824413,0.040000000000000001,-0.059999999999999998,1.01
870,1782569824430,0.040000000000000001,-0.059999999999999998,1.01
871,1782569824447,0.040000000000000001,-0.059999999999999998,1.01
872,1782569824480,0.040000000000000001,-0.059999999999999998,1.01
873,1782569824514,0.040000000000000001,-0.059999999999999998,1.01
874,1782569824547,0.040000000000000001,-0.059999999999999998,1.01
875,1782569824613,0.040000000000000001,-0.059999999999999998,1.01
876,1782569824648,0.040000000000000001,-0.059999999999999998,1.01
877,1782569824664,0.040000000000000001,-0.059999999999999998,1.01
878,1782569824697,0.040000000000000001,-0.059999999999999998,1.01
879,1782569824730,0.040000000000000001,-0.059999999999999998,1.01
880,1782569824780,0.040000000000000001,-0.059999999999999998,1.01
881,1782569824962,0.040000000000000001,-0.059999999999999998,1.01
882,1782569824979,0.040000000000000001,-0.059999999999999998,1.01
883,1782569824996,0.040000000000000001,-0.059999999999999998,1.01
884,1782569825029,0.040000000000000001,-0.059999999999999998,1.01
885,1782569825062,0.040000000000000001,-0.059999999999999998,1.01
886,1782569825112,0.040000000000000001,-0.059999999999999998,1.01
887,1782569825129,0.040000000000000001,-0.059999999999999998,1.01
888,1782569825228,0.040000000000000001,-0.059999999999999998,1.01
889,1782569825262,0.040000000000000001,-0.059999999999999998,1.01
890,1782569825295,0.040000000000000001,-0.059999999999999998,1.01
891,1782569825312,0.040000000000000001,-0.059999999999999998,1.01
892,1782569825329,0.040000000000000001,-0.059999999999999998,1.01
893,1782569825379,0.040000000000000001,-0.059999999999999998,1.01
894,1782569825479,0.040000000000000001,-0.059999999999999998,1.01
895,1782569825512,0.040000000000000001,-0.059999999999999998,1.01
896,1782569825595,0.040000000000000001,-0.059999999999999998,1.01
897,1782569825628,0.040000000000000001,-0.059999999999999998,1.01
898,1782569825645,0.040000000000000001,-0.059999999999999998,1.01
899,1782569825678,0.040000000000000001,-0.059999999999999998,1.01
900,1782569825712,0.040000000000000001,-0.059999999999999998,1.01
901,1782569825811,0.040000000000000001,-0.059999999999999998,1.01
902,1782569825861,0.040000000000000001,-0.059999999999999998,1.01
903,1782569825896,0.040000000000000001,-0.059999999999999998,1.01
904,1782569825911,0.040000000000000001,-0.059999999999999998,1.01
905,1782569825944,0.040000000000000001,-0.059999999999999998,1.01
906,1782569825962,0.040000000000000001,-0.059999999999999998,1.01
907,1782569826012,0.040000000000000001,-0.059999999999999998,1.01
908,1782569826078,0.040000000000000001,-0.059999999999999998,1.01
909,1782569826095,0.040000000000000001,-0.059999999999999998,1.01
910,1782569826161,0.040000000000000001,-0.059999999999999998,1.01
911,1782569826228,0.040000000000000001,-0.059999999999999998,1.01
912,1782569826311,0.040000000000000001,-0.059999999999999998,1.01
913,1782569826395,0.040000000000000001,-0.059999999999999998,1.01
914,1782569826428,0.040000000000000001,-0.059999999999999998,1.01
915,1782569826444,0.040000000000000001,-0.059999999999999998,1.01
916,1782569826461,0.040000000000000001,-0.059999999999999998,1.01
917,1782569826495,0.040000000000000001,-0.059999999999999998,1.01
918,1782569826527,0.040000000000000001,-0.059999999999999998,1.01
919,1782569826561,0.040000000000000001,-0.059999999999999998,1.01
920,1782569826594,0.040000000000000001,-0.059999999999999998,1.01
921,1782569826612,0.040000000000000001,-0.059999999999999998,1.01
922,1782569826645,0.040000000000000001,-0.059999999999999998,1.01
923,1782569826660,0.040000000000000001,-0.059999999999999998,1.01
924,1782569826695,0.040000000000000001,-0.059999999999999998,1.01
925,1782569826744,0.040000000000000001,-0.059999999999999998,1.01
926,1782569826844,0.040000000000000001,-0.059999999999999998,1.01
927,1782569826877,0.040000000000000001,-0.059999999999999998,1.01
928,1782569826944,-0.040000000000000001,-0.040000000000000001,1.01
929,1782569827011,-0.040000000000000001,-0.01,1.01
930,1782569827043,-0.040000000000000001,-0.01,1.01
931,1782569827160,-0.02,-0.01,1.01
932,1782569827227,0.02,-0.059999999999999998,1
933,1782569827277,0.02,-0.059999999999999998,0.97999999999999998
934,1782569827360,0.01,-0.050000000000000003,1
935,1782569827410,-0.01,-0.050000000000000003,1.04
936,1782569827544,0.12,-0.16,1.01
937,1782569827610,-0.14000000000000001,0,1.03
938,1782569827676,-0.34000000000000002,0.19,1.01
939,1782569827710,-0.34000000000000002,0.19,1
940,1782569827893,0.02,-0.080000000000000002,1.01
941,1782569827943,-0.089999999999999997,-0.029999999999999999,1.01
942,1782569828009,-0.089999999999999997,-0,1.04
943,1782569828093,0.059999999999999998,-0.10000000000000001,1.02
944,1782569828176,-0.01,-0.040000000000000001,1.02
945,1782569828242,-0.01,0,1.02
946,1782569828309,-0.01,0,1.01
947,1782569828359,0,-0.02,1.04
948,1782569828425,0.02,-0.02,0.97999999999999998
949,1782569828459,0.029999999999999999,-0.050000000000000003,1.04
950,1782569828509,0.040000000000000001,-0.050000000000000003,0.97999999999999998
951,1782569828559,0.040000000000000001,-0.050000000000000003,0.97999999999999998
952,1782569828660,0.040000000000000001,-0.059999999999999998,1.01
953,1782569828708,0.040000000000000001,-0.059999999999999998,1.01
954,1782569828908,0.040000000000000001,-0.070000000000000007,1.01
955,1782569828992,0.040000000000000001,-0.070000000000000007,1.01
956,1782569829009,0.040000000000000001,-0.070000000000000007,1.01
957,1782569829075,0.040000000000000001,-0.070000000000000007,1.01
958,1782569829175,0.040000000000000001,-0.070000000000000007,1.01
959,1782569829241,0.040000000000000001,-0.059999999999999998,1.01
960,1782569829275,0.040000000000000001,-0.059999999999999998,1.01
961,1782569829341,0.040000000000000001,-0.059999999999999998,1.01
962,1782569829391,0.040000000000000001,-0.059999999999999998,1.01
963,1782569829409,0.040000000000000001,-0.059999999999999998,1.01
964,1782569829441,0.040000000000000001,-0.059999999999999998,1.01
965,1782569829458,0.040000000000000001,-0.059999999999999998,1.01
966,1782569829475,0.040000000000000001,-0.059999999999999998,1.01
967,1782569829508,0.040000000000000001,-0.059999999999999998,1.01
968,1782569829608,0.040000000000000001,-0.059999999999999998,1.01
969,1782569829675,0.040000000000000001,-0.059999999999999998,1.01
970,1782569829691,0.040000000000000001,-0.059999999999999998,1.01
971,1782569829725,0.040000000000000001,-0.059999999999999998,1.01
972,1782569829741,0.040000000000000001,-0.070000000000000007,1.01
973,1782569829758,0.040000000000000001,-0.070000000000000007,1.01
974,1782569829858,0.040000000000000001,-0.059999999999999998,1.01
975,1782569829924,0.040000000000000001,-0.059999999999999998,1.01
976,1782569829958,0.040000000000000001,-0.059999999999999998,1.01
977,1782569829991,0.040000000000000001,-0.059999999999999998,1.01
978,1782569830024,0.040000000000000001,-0.059999999999999998,1.01
979,1782569830041,0.040000000000000001,-0.059999999999999998,1.01
980,1782569830057,0.040000000000000001,-0.059999999999999998,1.01
981,1782569830091,0.040000000000000001,-0.059999999999999998,1.01
982,1782569830124,0.040000000000000001,-0.059999999999999998,1.01
983,1782569830158,0.040000000000000001,-0.059999999999999998,1.01
984,1782569830175,0.040000000000000001,-0.059999999999999998,1.01
985,1782569830208,0.040000000000000001,-0.059999999999999998,1.01
986,1782569830374,0.040000000000000001,-0.059999999999999998,1.01
987,1782569830474,0.040000000000000001,-0.059999999999999998,1.01
988,1782569830506,0.040000000000000001,-0.059999999999999998,1.01
989,1782569830541,0.040000000000000001,-0.059999999999999998,1.01
990,1782569830556,0.040000000000000001,-0.059999999999999998,1.01
991,1782569830624,0.040000000000000001,-0.059999999999999998,1.01
992,1782569830707,0.040000000000000001,-0.059999999999999998,1.01
993,1782569830740,0.040000000000000001,-0.059999999999999998,1.01
994,1782569830757,0.040000000000000001,-0.059999999999999998,1.01
995,1782569830774,0.040000000000000001,-0.059999999999999998,1.01
996,1782569830839,0.040000000000000001,-0.059999999999999998,1.01
997,1782569830873,0.040000000000000001,-0.059999999999999998,1.01
998,1782569830923,0.040000000000000001,-0.059999999999999998,1.01
999,1782569831056,0.040000000000000001,-0.059999999999999998,1.01
1000,1782569831089,0.040000000000000001,-0.059999999999999998,1.01
1001,1782569831123,0.040000000000000001,-0.059999999999999998,1.01
1002,1782569831173,0.040000000000000001,-0.059999999999999998,1.01
1003,1782569831223,0.040000000000000001,-0.059999999999999998,1.01
1004,1782569831373,0.040000000000000001,-0.059999999999999998,1.01
1005,1782569831389,0.040000000000000001,-0.059999999999999998,1.01
1006,1782569831440,0.040000000000000001,-0.059999999999999998,1.01
1007,1782569831489,0.040000000000000001,-0.070000000000000007,1.01
1008,1782569831539,0.040000000000000001,-0.070000000000000007,1.01
1009,1782569831589,0.040000000000000001,-0.059999999999999998,1.01
1010,1782569831672,0.040000000000000001,-0.059999999999999998,1.01
1011,1782569831722,0.040000000000000001,-0.059999999999999998,1.01
1012,1782569831772,0.040000000000000001,-0.059999999999999998,1.01
1013,1782569831806,0.040000000000000001,-0.059999999999999998,1.01
1014,1782569831872,0.040000000000000001,-0.059999999999999998,1.01
1015,1782569831905,0.040000000000000001,-0.059999999999999998,1.01
1016,1782569831972,0.040000000000000001,-0.059999999999999998,1.01
1017,1782569832022,0.040000000000000001,-0.059999999999999998,1.01
1018,1782569832105,0.040000000000000001,-0.059999999999999998,1.01
1019,1782569832188,0.040000000000000001,-0.059999999999999998,1.01
1020,1782569832238,0.040000000000000001,-0.059999999999999998,1.01
1021,1782569832321,0.040000000000000001,-0.059999999999999998,1.01
1022,1782569832388,0.040000000000000001,-0.059999999999999998,1.01
1023,1782569832438,0.040000000000000001,-0.059999999999999998,1.01
1024,1782569832455,0.040000000000000001,-0.070000000000000007,1.01
1025,1782569832521,0.040000000000000001,-0.059999999999999998,1.01
1026,1782569832588,0.040000000000000001,-0.059999999999999998,1.01
1027,1782569832622,0.040000000000000001,-0.059999999999999998,1.01
1028,1782569832654,0.040000000000000001,-0.059999999999999998,1.01
1029,1782569832705,0.040000000000000001,-0.059999999999999998,1.01
1030,1782569832805,0.040000000000000001,-0.059999999999999998,1.01
1031,1782569832854,0.040000000000000001,-0.059999999999999998,1.01
1032,1782569832938,0.040000000000000001,-0.059999999999999998,1.01
1033,1782569832988,0.040000000000000001,-0.059999999999999998,1.01
1034,1782569833022,0.040000000000000001,-0.059999999999999998,1.01
1035,1782569833037,0.040000000000000001,-0.059999999999999998,1.01
1036,1782569833088,0.040000000000000001,-0.059999999999999998,1.01
1037,1782569833138,0.040000000000000001,-0.059999999999999998,1.01
1038,1782569833204,0.040000000000000001,-0.059999999999999998,1.01
1039,1782569833238,0.040000000000000001,-0.059999999999999998,1.01
1040,1782569833271,0.040000000000000001,-0.059999999999999998,1.01
1041,1782569833288,0.040000000000000001,-0.059999999999999998,1.01
1042,1782569833354,0.040000000000000001,-0.059999999999999998,1.01
1043,1782569833388,0.040000000000000001,-0.059999999999999998,1.01
1044,1782569833437,0.040000000000000001,-0.059999999999999998,1.01
1045,1782569833487,0.040000000000000001,-0.059999999999999998,1.01
1046,1782569833521,0.040000000000000001,-0.059999999999999998,1.01
1047,1782569833604,0.040000000000000001,-0.059999999999999998,1.01
1048,1782569833654,0.040000000000000001,-0.059999999999999998,1.01
1049,1782569833704,0.040000000000000001,-0.059999999999999998,1.01
1050,1782569833771,0.040000000000000001,-0.059999999999999998,1.01
1051,1782569833805,0.040000000000000001,-0.059999999999999998,1.01
1052,1782569833838,0.040000000000000001,-0.059999999999999998,1.01
1053,1782569833927,0.040000000000000001,-0.059999999999999998,1.01
1054,1782569833927,0.040000000000000001,-0.059999999999999998,1.01
1055,1782569833972,0.040000000000000001,-0.059999999999999998,1.01
1056,1782569834004,0.040000000000000001,-0.059999999999999998,1.01
1057,1782569834038,0.040000000000000001,-0.059999999999999998,1.01
1058,1782569834064,0.040000000000000001,-0.059999999999999998,1.01
1059,1782569834104,0.040000000000000001,-0.059999999999999998,1.01
1060,1782569834170,0.040000000000000001,-0.059999999999999998,1.01
1061,1782569834204,0.040000000000000001,-0.059999999999999998,1.01
1062,1782569834270,0.040000000000000001,-0.059999999999999998,1.01
1063,1782569834271,0.040000000000000001,-0.059999999999999998,1.01
1064,1782569834321,0.040000000000000001,-0.059999999999999998,1.01
1065,1782569834355,0.040000000000000001,-0.059999999999999998,1.01
1066,1782569834421,0.040000000000000001,-0.059999999999999998,1.01
1067,1782569834470,0.040000000000000001,-0.059999999999999998,1.01
1068,1782569834537,0.040000000000000001,-0.059999999999999998,1.01
1069,1782569834620,0.040000000000000001,-0.059999999999999998,1.01
1070,1782569834689,0.040000000000000001,-0.059999999999999998,1.01
1071,1782569834754,0.040000000000000001,-0.059999999999999998,1.01
1072,1782569834787,0.040000000000000001,-0.059999999999999998,1.01
1073,1782569834841,0.040000000000000001,-0.059999999999999998,1.01
1074,1782569834970,0.040000000000000001,-0.059999999999999998,1.01
1075,1782569834986,0.040000000000000001,-0.059999999999999998,1.01
1076,1782569835037,0.040000000000000001,-0.059999999999999998,1.01
1077,1782569835087,0.040000000000000001,-0.059999999999999998,1.01
1078,1782569835137,0.040000000000000001,-0.059999999999999998,1.01
1079,1782569835235,0.040000000000000001,-0.059999999999999998,1.01
1080,1782569835336,0.040000000000000001,-0.059999999999999998,1.01
1081,1782569835452,0.040000000000000001,-0.059999999999999998,1.01
1082,1782569835502,0.040000000000000001,-0.059999999999999998,1.01
1083,1782569835652,0.040000000000000001,-0.059999999999999998,1.01
1084,1782569835669,0.040000000000000001,-0.059999999999999998,1.01
1085,1782569835734,0.040000000000000001,-0.059999999999999998,1.01
1086,1782569835734,0.040000000000000001,-0.059999999999999998,1.01
1087,1782569835784,0.040000000000000001,-0.059999999999999998,1.01
1088,1782569835834,0.040000000000000001,-0.059999999999999998,1.01
1089,1782569835901,0.040000000000000001,-0.059999999999999998,1.01
1090,1782569835967,0.040000000000000001,-0.059999999999999998,1.01
1091,1782569836034,0.040000000000000001,-0.059999999999999998,1.01
1092,1782569836186,0.040000000000000001,-0.059999999999999998,1.01
1093,1782569836218,0.040000000000000001,-0.059999999999999998,1.01
1094,1782569836267,0.040000000000000001,-0.059999999999999998,1.01
1095,1782569836301,0.040000000000000001,-0.059999999999999998,1.01
1096,1782569836350,0.040000000000000001,-0.059999999999999998,1.01
1097,1782569836401,0.040000000000000001,-0.059999999999999998,1.01
1098,1782569836451,0.040000000000000001,-0.059999999999999998,1.01
1099,1782569836500,0.040000000000000001,-0.059999999999999998,1.01
1100,1782569836534,0.040000000000000001,-0.059999999999999998,1.01
1101,1782569836567,0.040000000000000001,-0.059999999999999998,1.01
1102,1782569836616,0.040000000000000001,-0.059999999999999998,1.01
1103,1782569836651,0.040000000000000001,-0.059999999999999998,1.01
1104,1782569836733,0.040000000000000001,-0.059999999999999998,1.01
1105,1782569836800,0.040000000000000001,-0.059999999999999998,1.01
1106,1782569836817,0.040000000000000001,-0.059999999999999998,1.01
1107,1782569836868,0.040000000000000001,-0.059999999999999998,1.01
1108,1782569836934,0.040000000000000001,-0.059999999999999998,1.01
1109,1782569836950,0.040000000000000001,-0.059999999999999998,1.01
1110,1782569836983,0.040000000000000001,-0.059999999999999998,1.01
1111,1782569836999,0.040000000000000001,-0.059999999999999998,1.01
1112,1782569837016,0.040000000000000001,-0.059999999999999998,1.01
1113,1782569837083,0.040000000000000001,-0.059999999999999998,1.01
1114,1782569837149,0.040000000000000001,-0.059999999999999998,1.01
1115,1782569837249,0.040000000000000001,-0.059999999999999998,1.01
1116,1782569837350,0.040000000000000001,-0.059999999999999998,1.01
1117,1782569837383,0.040000000000000001,-0.059999999999999998,1.01
1118,1782569837399,0.040000000000000001,-0.059999999999999998,1.01
1119,1782569837432,0.040000000000000001,-0.059999999999999998,1.01
1120,1782569837499,0.040000000000000001,-0.059999999999999998,1.01
1121,1782569837550,0.040000000000000001,-0.059999999999999998,1.01
1122,1782569837566,0.040000000000000001,-0.059999999999999998,1.01
1123,1782569837585,0.040000000000000001,-0.059999999999999998,1.01
1124,1782569837600,0.040000000000000001,-0.059999999999999998,1.01
1125,1782569837633,0.040000000000000001,-0.059999999999999998,1.01
1126,1782569837682,0.040000000000000001,-0.059999999999999998,1.01
1127,1782569837733,0.040000000000000001,-0.059999999999999998,1.01
1128,1782569837766,0.040000000000000001,-0.059999999999999998,1.01
1129,1782569837833,0.040000000000000001,-0.059999999999999998,1.01
1130,1782569837882,0.040000000000000001,-0.059999999999999998,1.01
1131,1782569837916,0.040000000000000001,-0.059999999999999998,1.01
1132,1782569837949,0.040000000000000001,-0.059999999999999998,1.01
1133,1782569838032,0.040000000000000001,-0.059999999999999998,1.01
1134,1782569838099,0.040000000000000001,-0.059999999999999998,1.01
1135,1782569838182,0.040000000000000001,-0.059999999999999998,1.01
1136,1782569838215,0.040000000000000001,-0.059999999999999998,1.01
1137,1782569838248,0.040000000000000001,-0.059999999999999998,1.01
1138,1782569838265,0.040000000000000001,-0.059999999999999998,1.01
1139,1782569838282,0.040000000000000001,-0.059999999999999998,1.01
1140,1782569838315,0.040000000000000001,-0.059999999999999998,1.01
1141,1782569838348,0.040000000000000001,-0.059999999999999998,1.01
1142,1782569838415,0.040000000000000001,-0.059999999999999998,1.01
1143,1782569838482,0.040000000000000001,-0.059999999999999998,1.01
1144,1782569838482,0.040000000000000001,-0.059999999999999998,1.01
1145,1782569838514,0.040000000000000001,-0.059999999999999998,1.01
1146,1782569838581,0.040000000000000001,-0.059999999999999998,1.01
1147,1782569838648,0.040000000000000001,-0.059999999999999998,1.01
1148,1782569838715,0.040000000000000001,-0.059999999999999998,1.01
1149,1782569838732,0.040000000000000001,-0.059999999999999998,1.01
1150,1782569838798,0.040000000000000001,-0.059999999999999998,1.01
1151,1782569838814,0.040000000000000001,-0.059999999999999998,1.01
1152,1782569838848,0.040000000000000001,-0.059999999999999998,1.01
1153,1782569838899,0.040000000000000001,-0.059999999999999998,1.01
1154,1782569838931,0.040000000000000001,-0.059999999999999998,1.01
1155,1782569838964,0.040000000000000001,-0.059999999999999998,1.01
1156,1782569838981,0.040000000000000001,-0.059999999999999998,1.01
1157,1782569838998,0.040000000000000001,-0.059999999999999998,1.01
1158,1782569839031,0.040000000000000001,-0.059999999999999998,1.01
1159,1782569839083,0.040000000000000001,-0.059999999999999998,1.01
1160,1782569839164,0.040000000000000001,-0.059999999999999998,1.01
1161,1782569839198,0.040000000000000001,-0.059999999999999998,1.01
1162,1782569839214,0.040000000000000001,-0.059999999999999998,1.01
1163,1782569839231,0.040000000000000001,-0.059999999999999998,1.01
1164,1782569839265,0.040000000000000001,-0.059999999999999998,1.01
1165,1782569839281,0.040000000000000001,-0.059999999999999998,1.01
1166,1782569839331,0.040000000000000001,-0.059999999999999998,1.01
1167,1782569839381,0.040000000000000001,-0.059999999999999998,1.01
1168,1782569839430,0.040000000000000001,-0.059999999999999998,1.01
1169,1782569839514,0.040000000000000001,-0.059999999999999998,1.01
1170,1782569839530,0.040000000000000001,-0.059999999999999998,1.01
1171,1782569839547,0.040000000000000001,-0.059999999999999998,1.01
1172,1782569839615,0.040000000000000001,-0.059999999999999998,1.01
1173,1782569839680,0.040000000000000001,-0.059999999999999998,1.01
1174,1782569839715,0.040000000000000001,-0.059999999999999998,1.01
1175,1782569839780,0.040000000000000001,-0.059999999999999998,1.01
1176,1782569839848,0.040000000000000001,-0.059999999999999998,1.01
1177,1782569839880,0.040000000000000001,-0.059999999999999998,1.01
1178,1782569839913,0.040000000000000001,-0.059999999999999998,1.01
1179,1782569839963,0.040000000000000001,-0.059999999999999998,1.01
1180,1782569840014,0.040000000000000001,-0.059999999999999998,1.01
1181,1782569840063,0.040000000000000001,-0.059999999999999998,1.01
1182,1782569840164,0.040000000000000001,-0.059999999999999998,1.01
1183,1782569840263,0.040000000000000001,-0.059999999999999998,1.01
1184,1782569840331,0.040000000000000001,-0.059999999999999998,1.01
1185,1782569840379,0.040000000000000001,-0.059999999999999998,1.01
1186,1782569840429,0.040000000000000001,-0.059999999999999998,1.01
1187,1782569840463,0.040000000000000001,-0.059999999999999998,1.01
1188,1782569840546,0.040000000000000001,-0.059999999999999998,1.01
1189,1782569840680,0.040000000000000001,-0.059999999999999998,1.01
1190,1782569840696,0.040000000000000001,-0.059999999999999998,1.01
1191,1782569840746,0.040000000000000001,-0.059999999999999998,1.01
1192,1782569840796,0.040000000000000001,-0.059999999999999998,1.01
1193,1782569840862,0.040000000000000001,-0.059999999999999998,1.01
1194,1782569840896,0.040000000000000001,-0.059999999999999998,1.01
1195,1782569840912,0.040000000000000001,-0.059999999999999998,1.01
1196,1782569840929,0.040000000000000001,-0.059999999999999998,1.01
1197,1782569840946,0.040000000000000001,-0.059999999999999998,1.01
1198,1782569840979,0.040000000000000001,-0.059999999999999998,1.01
1199,1782569841079,0.040000000000000001,-0.059999999999999998,1.01
1200,1782569841112,0.040000000000000001,-0.059999999999999998,1.01
1201,1782569841228,0.040000000000000001,-0.059999999999999998,1.01
1202,1782569841279,0.040000000000000001,-0.059999999999999998,1.01
1203,1782569841345,0.040000000000000001,-0.059999999999999998,1.01
1204,1782569841395,0.040000000000000001,-0.059999999999999998,1.01
1205,1782569841445,0.040000000000000001,-0.059999999999999998,1.01
1206,1782569841495,0.040000000000000001,-0.059999999999999998,1.01
1207,1782569841546,0.040000000000000001,-0.059999999999999998,1.01
1208,1782569841629,0.040000000000000001,-0.059999999999999998,1.01
1209,1782569841713,0.040000000000000001,-0.059999999999999998,1.01
1210,1782569841762,0.040000000000000001,-0.059999999999999998,1.01
1211,1782569841811,0.040000000000000001,-0.059999999999999998,1.01
1212,1782569841911,0.040000000000000001,-0.059999999999999998,1.01
1213,1782569841962,0.040000000000000001,-0.059999999999999998,1.01
1214,1782569842011,0.040000000000000001,-0.059999999999999998,1.01
1215,1782569842061,0.040000000000000001,-0.059999999999999998,1.01
1216,1782569842128,0.040000000000000001,-0.059999999999999998,1.01
1217,1782569842162,0.040000000000000001,-0.059999999999999998,1.01
1218,1782569842212,0.040000000000000001,-0.059999999999999998,1.01
1219,1782569842277,0.040000000000000001,-0.059999999999999998,1.01
1220,1782569842327,0.040000000000000001,-0.059999999999999998,1.01
1221,1782569842461,0.040000000000000001,-0.059999999999999998,1.01
1222,1782569842561,0.040000000000000001,-0.059999999999999998,1.01
1223,1782569842610,0.040000000000000001,-0.059999999999999998,1.01
1224,1782569842664,0.040000000000000001,-0.059999999999999998,1.01
1225,1782569842711,0.040000000000000001,-0.059999999999999998,1.01
1226,1782569842778,0.040000000000000001,-0.059999999999999998,1.01
1227,1782569842827,0.040000000000000001,-0.059999999999999998,1.01
1228,1782569842894,0.040000000000000001,-0.059999999999999998,1.01
1229,1782569842928,0.040000000000000001,-0.059999999999999998,1.01
1230,1782569843011,0.040000000000000001,-0.059999999999999998,1.01
1231,1782569843043,0.040000000000000001,-0.059999999999999998,1.01
1232,1782569843110,0.040000000000000001,-0.059999999999999998,1.01
1233,1782569843227,0.040000000000000001,-0.059999999999999998,1.01
1234,1782569843294,0.040000000000000001,-0.059999999999999998,1.01
1235,1782569843326,0.040000000000000001,-0.059999999999999998,1.01
1236,1782569843376,0.040000000000000001,-0.059999999999999998,1.01
1237,1782569843443,0.040000000000000001,-0.059999999999999998,1.01
1238,1782569843526,0.040000000000000001,-0.059999999999999998,1.01
1239,1782569843576,0.040000000000000001,-0.059999999999999998,1.01
1240,1782569843643,0.040000000000000001,-0.059999999999999998,1.01
1241,1782569843726,0.040000000000000001,-0.059999999999999998,1.01
1242,1782569843777,0.040000000000000001,-0.059999999999999998,1.01
1243,1782569843826,0.040000000000000001,-0.059999999999999998,1.01
1244,1782569843843,0.040000000000000001,-0.059999999999999998,1.01
1245,1782569843909,0.040000000000000001,-0.059999999999999998,1.01
1246,1782569843943,0.040000000000000001,-0.059999999999999998,1.01
1247,1782569843992,0.040000000000000001,-0.059999999999999998,1.01
1248,1782569844009,0.040000000000000001,-0.059999999999999998,1.01
1249,1782569844026,0.040000000000000001,-0.059999999999999998,1.01
1250,1782569844109,0.040000000000000001,-0.059999999999999998,1.01
1251,1782569844126,0.040000000000000001,-0.059999999999999998,1.01
1252,1782569844176,0.040000000000000001,-0.059999999999999998,1.01
1253,1782569844325,0.040000000000000001,-0.059999999999999998,1.01
1254,1782569844376,0.040000000000000001,-0.059999999999999998,1.01
1255,1782569844425,0.040000000000000001,-0.059999999999999998,1.01
1256,1782569844492,0.040000000000000001,-0.059999999999999998,1.01
1257,1782569844542,0.040000000000000001,-0.059999999999999998,1.01
1258,1782569844592,0.040000000000000001,-0.059999999999999998,1.01
1259,1782569844625,0.040000000000000001,-0.059999999999999998,1.01
1260,1782569844725,0.040000000000000001,-0.059999999999999998,1.01
1261,1782569844758,0.040000000000000001,-0.059999999999999998,1.01
1262,1782569844808,0.040000000000000001,-0.059999999999999998,1.01
1263,1782569844859,0.040000000000000001,-0.059999999999999998,1.01
1264,1782569844891,0.040000000000000001,-0.059999999999999998,1.01
1265,1782569844942,0.040000000000000001,-0.059999999999999998,1.01
1266,1782569844992,0.040000000000000001,-0.059999999999999998,1
1267,1782569845041,0.040000000000000001,-0.040000000000000001,1
1268,1782569845108,0.029999999999999999,-0.040000000000000001,1
1269,1782569845142,0.029999999999999999,-0.040000000000000001,1.01
1270,1782569845158,0.029999999999999999,-0.059999999999999998,1.0600000000000001
1271,1782569845191,0.029999999999999999,-0.059999999999999998,1.0600000000000001
1272,1782569845208,0.029999999999999999,-0.059999999999999998,1.0600000000000001
1273,1782569845241,0.029999999999999999,-0.059999999999999998,1.05
1274,1782569845325,0.040000000000000001,-0.059999999999999998,1
1275,1782569845391,0.040000000000000001,-0.059999999999999998,1.01
1276,1782569845491,0.040000000000000001,-0.059999999999999998,1.01
1277,1782569845508,0.050000000000000003,-0.059999999999999998,1.01
1278,1782569845541,0.050000000000000003,-0.059999999999999998,1.01
1279,1782569845641,0.040000000000000001,-0.070000000000000007,1.02
1280,1782569845724,0.040000000000000001,-0.070000000000000007,1.02
1281,1782569845740,0.040000000000000001,-0.070000000000000007,1.02
1282,1782569845774,0.040000000000000001,-0.070000000000000007,1.02
1283,1782569845791,0.040000000000000001,-0.070000000000000007,1.01
1284,1782569845890,0.040000000000000001,-0.070000000000000007,1.01
1285,1782569845924,0.040000000000000001,-0.070000000000000007,1.01
1286,1782569845957,0.040000000000000001,-0.059999999999999998,1.01
1287,1782569846024,0.040000000000000001,-0.059999999999999998,1.01
1288,1782569846157,0.040000000000000001,-0.059999999999999998,1.01
1289,1782569846207,0.040000000000000001,-0.059999999999999998,1.01
1290,1782569846323,0.040000000000000001,-0.059999999999999998,1.01
1291,1782569846340,0.040000000000000001,-0.059999999999999998,1.01
1292,1782569846357,0.040000000000000001,-0.059999999999999998,1.01
1293,1782569846391,0.040000000000000001,-0.059999999999999998,1.01
1294,1782569846473,0.040000000000000001,-0.059999999999999998,1.01
1295,1782569846507,0.040000000000000001,-0.059999999999999998,1.01
1296,1782569846524,0.040000000000000001,-0.070000000000000007,1.01
1297,1782569846541,0.040000000000000001,-0.070000000000000007,1.01
1298,1782569846577,0.040000000000000001,-0.070000000000000007,1.01
1299,1782569846591,0.040000000000000001,-0.070000000000000007,1.01
1300,1782569846624,0.040000000000000001,-0.070000000000000007,1.01
1301,1782569846692,0.040000000000000001,-0.070000000000000007,1.01
1302,1782569846744,0.040000000000000001,-0.059999999999999998,1.02
1303,1782569846761,0.040000000000000001,-0.059999999999999998,1.01
1304,1782569846801,0.040000000000000001,-0.059999999999999998,1.01
1305,1782569846840,0.040000000000000001,-0.059999999999999998,1.02
1306,1782569846873,0.040000000000000001,-0.059999999999999998,1.02
1307,1782569846973,0.040000000000000001,-0.059999999999999998,1.02
1308,1782569846990,0.040000000000000001,-0.059999999999999998,1
1309,1782569847025,0.040000000000000001,-0.059999999999999998,1
1310,1782569847073,0.040000000000000001,-0.059999999999999998,1
1311,1782569847091,0.040000000000000001,-0.059999999999999998,1.01
1312,1782569847173,0.040000000000000001,-0.059999999999999998,1.01
1313,1782569847272,0.040000000000000001,-0.059999999999999998,1.01
1314,1782569847339,0.040000000000000001,-0.059999999999999998,1.01
1315,1782569847407,0.040000000000000001,-0.059999999999999998,1.01
1316,1782569847456,0.040000000000000001,-0.059999999999999998,1.01
1317,1782569847491,0.040000000000000001,-0.059999999999999998,1.01
1318,1782569847582,0.040000000000000001,-0.059999999999999998,1.01
1319,1782569847607,0.040000000000000001,-0.059999999999999998,1.01
1320,1782569847624,0.040000000000000001,-0.059999999999999998,1.01
1321,1782569847641,0.040000000000000001,-0.059999999999999998,1.02
1322,1782569847674,0.040000000000000001,-0.059999999999999998,1.02
1323,1782569847690,0.040000000000000001,-0.059999999999999998,1.02
1324,1782569847840,0.040000000000000001,-0.059999999999999998,1.02
1325,1782569847874,0.040000000000000001,-0.059999999999999998,1.01
1326,1782569847907,0.040000000000000001,-0.059999999999999998,1.01
1327,1782569847923,0.040000000000000001,-0.059999999999999998,1.01
1328,1782569847990,0.040000000000000001,-0.059999999999999998,1.01
1329,1782569848023,0.040000000000000001,-0.059999999999999998,1.01
1330,1782569848073,0.040000000000000001,-0.059999999999999998,1.01
1331,1782569848205,0.040000000000000001,-0.059999999999999998,1.01
1332,1782569848256,0.040000000000000001,-0.059999999999999998,1.01
1333,1782569848272,0.040000000000000001,-0.059999999999999998,1.01
1334,1782569848305,0.040000000000000001,-0.059999999999999998,1.01
1335,1782569848322,0.040000000000000001,-0.059999999999999998,1.01
1336,1782569848372,0.040000000000000001,-0.059999999999999998,1.01
1337,1782569848405,0.040000000000000001,-0.059999999999999998,1.01
1338,1782569848455,0.040000000000000001,-0.059999999999999998,1.01
1339,1782569848472,0.040000000000000001,-0.059999999999999998,1.01
1340,1782569848506,0.040000000000000001,-0.059999999999999998,1.01
1341,1782569848590,0.040000000000000001,-0.059999999999999998,1.01
1342,1782569848622,0.040000000000000001,-0.059999999999999998,1.01
1343,1782569848655,0.040000000000000001,-0.059999999999999998,1.01
1344,1782569848722,0.040000000000000001,-0.059999999999999998,1.01
1345,1782569848788,0.040000000000000001,-0.059999999999999998,1.01
1346,1782569848822,0.040000000000000001,-0.059999999999999998,1.01
1347,1782569848872,0.040000000000000001,-0.059999999999999998,1.01
1348,1782569848923,0.040000000000000001,-0.059999999999999998,1.01
1349,1782569848988,0.040000000000000001,-0.059999999999999998,1.01
1350,1782569849021,0.040000000000000001,-0.059999999999999998,1.01
1351,1782569849038,0.040000000000000001,-0.059999999999999998,1.01
1352,1782569849104,0.040000000000000001,-0.059999999999999998,1.01
1353,1782569849154,0.040000000000000001,-0.059999999999999998,1.01
1354,1782569849238,0.040000000000000001,-0.059999999999999998,1.01
1355,1782569849271,0.040000000000000001,-0.059999999999999998,1.01
1356,1782569849305,0.040000000000000001,-0.059999999999999998,1.01
1357,1782569849321,0.040000000000000001,-0.059999999999999998,1.01
1358,1782569849354,0.040000000000000001,-0.059999999999999998,1.01
1359,1782569849454,0.040000000000000001,-0.059999999999999998,1.01
1360,1782569849504,0.040000000000000001,-0.059999999999999998,1.01
1361,1782569849555,0.040000000000000001,-0.059999999999999998,1.01
1362,1782569849588,0.040000000000000001,-0.059999999999999998,1.01
1363,1782569849605,0.040000000000000001,-0.059999999999999998,1.01
1364,1782569849637,0.040000000000000001,-0.059999999999999998,1.01
1365,1782569849688,0.040000000000000001,-0.059999999999999998,1.01
1366,1782569849755,0.040000000000000001,-0.059999999999999998,1.01
1367,1782569849825,0.040000000000000001,-0.059999999999999998,1.01
1368,1782569849855,0.040000000000000001,-0.059999999999999998,1.01
1369,1782569849955,0.040000000000000001,-0.059999999999999998,1.01
1370,1782569850088,0.040000000000000001,-0.059999999999999998,1.01
1371,1782569850121,0.040000000000000001,-0.059999999999999998,1.01
1372,1782569850138,0.040000000000000001,-0.059999999999999998,1.01
1373,1782569850170,0.040000000000000001,-0.059999999999999998,1.01
1374,1782569850187,0.040000000000000001,-0.059999999999999998,1.01
1375,1782569850236,0.040000000000000001,-0.059999999999999998,1.01
1376,1782569850369,0.040000000000000001,-0.059999999999999998,1.01
1377,1782569850419,0.040000000000000001,-0.059999999999999998,1.01
1378,1782569850436,0.040000000000000001,-0.059999999999999998,1.01
1379,1782569850469,0.040000000000000001,-0.059999999999999998,1.01
1380,1782569850486,0.040000000000000001,-0.059999999999999998,1.01
1381,1782569850535,0.040000000000000001,-0.059999999999999998,1.01
1382,1782569850602,0.040000000000000001,-0.059999999999999998,1.01
1383,1782569850687,0.040000000000000001,-0.059999999999999998,1.01
1384,1782569850702,0.040000000000000001,-0.059999999999999998,1.01
1385,1782569850752,0.040000000000000001,-0.059999999999999998,1.01
1386,1782569850802,0.040000000000000001,-0.059999999999999998,1.01
1387,1782569850852,0.040000000000000001,-0.059999999999999998,1.01
1388,1782569850886,0.040000000000000001,-0.059999999999999998,1.01
1389,1782569850936,0.040000000000000001,-0.059999999999999998,1.01
1390,1782569850986,0.040000000000000001,-0.059999999999999998,1.01
1391,1782569851035,0.040000000000000001,-0.059999999999999998,1.01
1392,1782569851085,0.040000000000000001,-0.059999999999999998,1.01
1393,1782569851152,0.040000000000000001,-0.059999999999999998,1.01
1394,1782569851185,0.040000000000000001,-0.059999999999999998,1.01
1395,1782569851252,0.040000000000000001,-0.059999999999999998,1.01
1396,1782569851303,0.040000000000000001,-0.059999999999999998,1.01
1397,1782569851369,0.040000000000000001,-0.059999999999999998,1.01
1398,1782569851435,0.040000000000000001,-0.059999999999999998,1.01
1399,1782569851501,0.040000000000000001,-0.059999999999999998,1.01
1400,1782569851534,0.040000000000000001,-0.059999999999999998,1.01
1401,1782569851585,0.040000000000000001,-0.059999999999999998,1.01
1402,1782569851635,0.040000000000000001,-0.059999999999999998,1.01
1403,1782569851684,0.040000000000000001,-0.059999999999999998,1.01
1404,1782569851801,0.040000000000000001,-0.059999999999999998,1.01
1405,1782569851868,0.040000000000000001,-0.059999999999999998,1.01
1406,1782569851901,0.040000000000000001,-0.059999999999999998,1.01
1407,1782569852001,0.040000000000000001,-0.059999999999999998,1.01
1408,1782569852084,0.040000000000000001,-0.059999999999999998,1.01
1409,1782569852268,0.040000000000000001,-0.059999999999999998,1.01
1410,1782569852334,0.040000000000000001,-0.059999999999999998,1.01
1411,1782569852401,0.040000000000000001,-0.059999999999999998,1.01
1412,1782569852434,0.040000000000000001,-0.059999999999999998,1.01
1413,1782569852468,0.040000000000000001,-0.059999999999999998,1.01
1414,1782569852533,0.040000000000000001,-0.059999999999999998,1.01
1415,1782569852583,0.040000000000000001,-0.059999999999999998,1.01
1416,1782569852634,0.040000000000000001,-0.059999999999999998,1.01
1417,1782569852685,0.040000000000000001,-0.059999999999999998,1.01
1418,1782569852768,0.040000000000000001,-0.059999999999999998,1.01
1419,1782569852917,0.040000000000000001,-0.059999999999999998,1.01
1420,1782569852967,0.040000000000000001,-0.059999999999999998,1.01
1421,1782569853001,0.040000000000000001,-0.059999999999999998,1.01
1422,1782569853033,0.040000000000000001,-0.059999999999999998,1.01
1423,1782569853100,0.040000000000000001,-0.059999999999999998,1.01
1424,1782569853133,0.040000000000000001,-0.059999999999999998,1.01
1425,1782569853183,0.040000000000000001,-0.059999999999999998,1.01
1426,1782569853233,0.040000000000000001,-0.059999999999999998,1.01
1427,1782569853317,0.040000000000000001,-0.059999999999999998,1.01
1428,1782569853384,0.040000000000000001,-0.059999999999999998,1.01
1429,1782569853450,0.040000000000000001,-0.059999999999999998,1.01
1430,1782569853532,0.040000000000000001,-0.059999999999999998,1.01
1431,1782569853566,0.040000000000000001,-0.059999999999999998,1.01
1432,1782569853616,0.040000000000000001,-0.059999999999999998,1.01
1433,1782569853633,0.040000000000000001,-0.059999999999999998,1.01
1434,1782569853699,0.040000000000000001,-0.059999999999999998,1.01
1435,1782569853733,0.040000000000000001,-0.059999999999999998,1.01
1436,1782569853782,0.040000000000000001,-0.059999999999999998,1.01
1437,1782569853816,0.040000000000000001,-0.059999999999999998,1.01
1438,1782569853833,0.040000000000000001,-0.059999999999999998,1.01
1439,1782569853866,0.040000000000000001,-0.059999999999999998,1.01
1440,1782569853949,0.040000000000000001,-0.059999999999999998,1.01
1441,1782569853999,0.040000000000000001,-0.059999999999999998,1.01
1442,1782569854065,0.040000000000000001,-0.059999999999999998,1.01
1443,1782569854115,0.040000000000000001,-0.059999999999999998,1.01
1444,1782569854232,0.040000000000000001,-0.059999999999999998,1.01
1445,1782569854299,0.040000000000000001,-0.059999999999999998,1.01
1446,1782569854349,0.040000000000000001,-0.059999999999999998,1.01
1447,1782569854399,0.040000000000000001,-0.059999999999999998,1.01
1448,1782569854432,0.040000000000000001,-0.059999999999999998,1.01
1449,1782569854449,0.040000000000000001,-0.059999999999999998,1.01
1450,1782569854498,0.040000000000000001,-0.059999999999999998,1.01
1451,1782569854599,0.040000000000000001,-0.059999999999999998,1.01
1452,1782569854781,0.040000000000000001,-0.059999999999999998,1.01
1453,1782569854831,0.040000000000000001,-0.059999999999999998,1.01
1454,1782569854881,0.040000000000000001,-0.059999999999999998,1.01
1455,1782569854931,0.040000000000000001,-0.059999999999999998,1.01
1456,1782569854981,0.040000000000000001,-0.059999999999999998,1.01
1457,1782569854998,0.040000000000000001,-0.059999999999999998,1.01
1458,1782569855031,0.040000000000000001,-0.059999999999999998,1.01
1459,1782569855048,0.040000000000000001,-0.059999999999999998,1.01
1460,1782569855099,0.040000000000000001,-0.059999999999999998,1.01
1461,1782569855148,0.040000000000000001,-0.059999999999999998,1.01
1462,1782569855198,0.040000000000000001,-0.059999999999999998,1.01
1463,1782569855264,0.040000000000000001,-0.059999999999999998,1.01
1464,1782569855297,0.040000000000000001,-0.059999999999999998,1.01
1465,1782569855331,0.040000000000000001,-0.059999999999999998,1.01
1466,1782569855397,0.040000000000000001,-0.059999999999999998,1.01
1467,1782569855448,0.040000000000000001,-0.059999999999999998,1.01
1468,1782569855514,0.040000000000000001,-0.059999999999999998,1.01
1469,1782569855564,0.040000000000000001,-0.059999999999999998,1.01
1470,1782569855614,0.040000000000000001,-0.059999999999999998,1.01
1471,1782569855664,0.040000000000000001,-0.059999999999999998,1.01
1472,1782569855714,0.040000000000000001,-0.059999999999999998,1.01
1473,1782569855763,0.040000000000000001,-0.059999999999999998,1.01
1474,1782569855831,0.040000000000000001,-0.059999999999999998,1.01
1475,1782569855965,0.040000000000000001,-0.059999999999999998,1.01
1476,1782569856030,0.040000000000000001,-0.059999999999999998,1.01
1477,1782569856080,0.040000000000000001,-0.059999999999999998,1.01
1478,1782569856130,0.040000000000000001,-0.059999999999999998,1.01
1479,1782569856147,0.040000000000000001,-0.059999999999999998,1.01
1480,1782569856180,0.040000000000000001,-0.059999999999999998,1.01
1481,1782569856280,0.029999999999999999,-0.070000000000000007,1.01
1482,1782569856330,0.029999999999999999,-0.070000000000000007,1.01
1483,1782569856346,0.029999999999999999,-0.070000000000000007,1.01
1484,1782569856363,0.029999999999999999,-0.070000000000000007,1.01
1485,1782569856396,0.029999999999999999,-0.059999999999999998,1.01
1486,1782569856430,0.029999999999999999,-0.059999999999999998,1.01
1487,1782569856463,0.029999999999999999,-0.059999999999999998,1.01
1488,1782569856496,0.050000000000000003,-0.059999999999999998,1.01
1489,1782569856563,0.050000000000000003,-0.059999999999999998,1.02
1490,1782569856579,0.050000000000000003,-0.059999999999999998,1.02
1491,1782569856596,0.050000000000000003,-0.050000000000000003,1.02
1492,1782569856629,0.050000000000000003,-0.050000000000000003,1.02
1493,1782569856813,0.040000000000000001,-0.059999999999999998,1.01
1494,1782569856846,0.040000000000000001,-0.059999999999999998,1.01
1495,1782569856863,0.040000000000000001,-0.059999999999999998,1.01
1496,1782569856879,0.040000000000000001,-0.059999999999999998,1.01
1497,1782569856913,0.040000000000000001,-0.059999999999999998,1.01
1498,1782569856930,0.040000000000000001,-0.059999999999999998,1.01
1499,1782569856979,0.040000000000000001,-0.059999999999999998,1.01
1500,1782569857046,0.040000000000000001,-0.059999999999999998,1.01
1501,1782569857112,0.040000000000000001,-0.059999999999999998,1.01
1502,1782569857146,0.040000000000000001,-0.059999999999999998,1.01
1503,1782569857179,0.040000000000000001,-0.059999999999999998,1.01
1504,1782569857262,0.040000000000000001,-0.059999999999999998,1.01
1505,1782569857346,0.040000000000000001,-0.059999999999999998,1.01
1506,1782569857446,0.040000000000000001,-0.059999999999999998,1.01
1507,1782569857462,0.040000000000000001,-0.059999999999999998,1.01
1508,1782569857479,0.040000000000000001,-0.059999999999999998,1.01
1509,1782569857496,0.040000000000000001,-0.059999999999999998,1.01
1510,1782569857529,0.040000000000000001,-0.059999999999999998,1.01
1511,1782569857562,0.040000000000000001,-0.059999999999999998,1.02
1512,1782569857612,0.040000000000000001,-0.059999999999999998,1.02
1513,1782569857662,0.040000000000000001,-0.059999999999999998,1.01
1514,1782569857728,0.040000000000000001,-0.059999999999999998,1.01
1515,1782569857762,0.050000000000000003,-0.050000000000000003,1.01
1516,1782569857812,0.050000000000000003,-0.050000000000000003,1.02
1517,1782569857862,0.050000000000000003,-0.050000000000000003,1.02
1518,1782569857945,0.050000000000000003,-0.040000000000000001,1.02
1519,1782569857995,0.040000000000000001,-0.040000000000000001,1.02
1520,1782569858012,0.040000000000000001,-0.040000000000000001,1.02
1521,1782569858028,0.040000000000000001,-0.040000000000000001,1.01
1522,1782569858061,0.040000000000000001,-0.040000000000000001,1.01
1523,1782569858112,0.040000000000000001,-0.040000000000000001,1.01
1524,1782569858211,0.02,-0.059999999999999998,1
1525,1782569858245,0.02,-0.059999999999999998,1
1526,1782569858278,0.029999999999999999,-0.059999999999999998,1.01
1527,1782569858311,0.029999999999999999,-0.070000000000000007,1.01
1528,1782569858328,0.029999999999999999,-0.070000000000000007,1.02
1529,1782569858344,0.040000000000000001,-0.070000000000000007,1.02
1530,1782569858411,0.040000000000000001,-0.070000000000000007,1.02
1531,1782569858461,0.040000000000000001,-0.070000000000000007,1.02
1532,1782569858528,0.040000000000000001,-0.070000000000000007,1.02
1533,1782569858628,0.040000000000000001,-0.050000000000000003,1.01
1534,1782569858727,0.040000000000000001,-0.050000000000000003,1.01
1535,1782569858794,0.040000000000000001,-0.050000000000000003,1.01
1536,1782569858844,0.040000000000000001,-0.050000000000000003,1.02
1537,1782569858894,0.029999999999999999,-0.059999999999999998,1.01
1538,1782569858960,0.029999999999999999,-0.059999999999999998,1.01
1539,1782569859027,0.029999999999999999,-0.059999999999999998,1.01
1540,1782569859094,0.029999999999999999,-0.059999999999999998,1.01
1541,1782569859194,0.050000000000000003,-0.059999999999999998,1.01
1542,1782569859260,0.050000000000000003,-0.070000000000000007,1.01
1543,1782569859377,0.050000000000000003,-0.070000000000000007,1.01
1544,1782569859410,0.050000000000000003,-0.070000000000000007,1.01
1545,1782569859460,0.040000000000000001,-0.070000000000000007,1.02
1546,1782569859510,0.040000000000000001,-0.070000000000000007,1.02
1547,1782569859543,0.040000000000000001,-0.070000000000000007,1.02
1548,1782569859610,0.040000000000000001,-0.059999999999999998,1.02
1549,1782569859676,0.040000000000000001,-0.059999999999999998,1.02
1550,1782569859776,0.040000000000000001,-0.059999999999999998,1.01
1551,1782569859843,0.040000000000000001,-0.059999999999999998,1.01
1552,1782569859893,0.040000000000000001,-0.059999999999999998,1.01
1553,1782569859926,0.040000000000000001,-0.059999999999999998,1.01
1554,1782569859976,0.040000000000000001,-0.059999999999999998,1.01
1555,1782569860026,0.040000000000000001,-0.059999999999999998,1.01
1556,1782569860093,0.040000000000000001,-0.059999999999999998,1.01
1557,1782569860143,0.040000000000000001,-0.059999999999999998,1.01
1558,1782569860192,0.040000000000000001,-0.059999999999999998,1.01
1559,1782569860359,0.040000000000000001,-0.059999999999999998,1.01
1560,1782569860425,0.040000000000000001,-0.059999999999999998,1.01
1561,1782569860459,0.040000000000000001,-0.059999999999999998,1.01
1562,1782569860509,0.040000000000000001,-0.059999999999999998,1.01
1563,1782569860559,0.040000000000000001,-0.059999999999999998,1.01
1564,1782569860576,0.040000000000000001,-0.059999999999999998,1.01
1565,1782569860593,0.040000000000000001,-0.059999999999999998,1.01
1566,1782569860643,0.040000000000000001,-0.059999999999999998,1.01
1567,1782569860709,0.040000000000000001,-0.059999999999999998,1.01
1568,1782569860809,0.040000000000000001,-0.059999999999999998,1.01
1569,1782569860842,0.040000000000000001,-0.059999999999999998,1.01
1570,1782569860859,0.040000000000000001,-0.059999999999999998,1.01
1571,1782569860875,0.040000000000000001,-0.059999999999999998,1.01
1572,1782569860908,0.040000000000000001,-0.059999999999999998,1.01
1573,1782569860959,0.040000000000000001,-0.059999999999999998,1.01
1574,1782569861009,0.040000000000000001,-0.059999999999999998,1.01
1575,1782569861059,0.040000000000000001,-0.059999999999999998,1.01
1576,1782569861109,0.040000000000000001,-0.059999999999999998,1.01
1577,1782569861159,0.040000000000000001,-0.059999999999999998,1.01
1578,1782569861209,0.040000000000000001,-0.059999999999999998,1.01
1579,1782569861325,0.040000000000000001,-0.059999999999999998,1.01
1580,1782569861392,0.040000000000000001,-0.059999999999999998,1.01
1581,1782569861425,0.040000000000000001,-0.059999999999999998,1.01
1582,1782569861524,0.040000000000000001,-0.059999999999999998,1.01
1583,1782569861558,0.040000000000000001,-0.059999999999999998,1.01
1584,1782569861608,0.040000000000000001,-0.059999999999999998,1.01
1585,1782569861657,0.040000000000000001,-0.059999999999999998,1.01
1586,1782569861708,0.040000000000000001,-0.059999999999999998,1.01
1587,1782569861775,0.040000000000000001,-0.059999999999999998,1.01
1588,1782569861907,0.040000000000000001,-0.059999999999999998,1.01
1589,1782569861958,0.040000000000000001,-0.059999999999999998,1.01
1590,1782569862008,0.040000000000000001,-0.059999999999999998,1.01
1591,1782569862074,0.040000000000000001,-0.059999999999999998,1.01
1592,1782569862124,0.040000000000000001,-0.059999999999999998,1.01
1593,1782569862191,0.040000000000000001,-0.059999999999999998,1.01
1594,1782569862241,0.040000000000000001,-0.059999999999999998,1.01
1595,1782569862274,0.040000000000000001,-0.059999999999999998,1.01
1596,1782569862325,0.040000000000000001,-0.059999999999999998,1.01
1597,1782569862391,0.040000000000000001,-0.059999999999999998,1.01
1598,1782569862461,0.040000000000000001,-0.059999999999999998,1.01
1599,1782569862461,0.040000000000000001,-0.059999999999999998,1.01
1600,1782569862525,0.040000000000000001,-0.059999999999999998,1.01
1601,1782569862591,0.040000000000000001,-0.059999999999999998,1.01
1602,1782569862625,0.040000000000000001,-0.059999999999999998,1.01
1603,1782569862675,0.040000000000000001,-0.059999999999999998,1.01
1604,1782569862708,0.029999999999999999,-0.059999999999999998,1.01
1605,1782569862758,0.029999999999999999,-0.059999999999999998,1.01
1606,1782569862808,0.040000000000000001,-0.059999999999999998,1.01
1607,1782569862859,0.040000000000000001,-0.059999999999999998,1.01
1608,1782569862907,0.040000000000000001,-0.059999999999999998,1.01
1609,1782569862974,0.040000000000000001,-0.059999999999999998,1.01
1610,1782569863007,0.040000000000000001,-0.059999999999999998,1.01
1611,1782569863057,0.040000000000000001,-0.059999999999999998,1.01
1612,1782569863107,0.040000000000000001,-0.059999999999999998,1.01
1613,1782569863157,0.040000000000000001,-0.059999999999999998,1.01
1614,1782569863206,0.040000000000000001,-0.059999999999999998,1.01
1615,1782569863307,0.040000000000000001,-0.059999999999999998,1.01
1616,1782569863340,0.040000000000000001,-0.059999999999999998,1.01
1617,1782569863356,0.040000000000000001,-0.059999999999999998,1.01
1618,1782569863373,0.040000000000000001,-0.059999999999999998,1.01
1619,1782569863407,0.040000000000000001,-0.059999999999999998,1.01
1620,1782569863440,0.040000000000000001,-0.059999999999999998,1.01
1621,1782569863473,0.040000000000000001,-0.059999999999999998,1.01
1622,1782569863523,0.040000000000000001,-0.059999999999999998,1.01
1623,1782569863556,0.040000000000000001,-0.059999999999999998,1.01
1624,1782569863607,0.040000000000000001,-0.059999999999999998,1.01
1625,1782569863641,0.029999999999999999,-0.059999999999999998,1.01
1626,1782569863673,0.029999999999999999,-0.059999999999999998,1.01
1627,1782569863690,0.029999999999999999,-0.059999999999999998,1.01
1628,1782569863723,0.029999999999999999,-0.059999999999999998,1.01
1629,1782569863789,0.029999999999999999,-0.059999999999999998,1.01
1630,1782569863873,0.029999999999999999,-0.059999999999999998,1.01
1631,1782569863939,0.029999999999999999,-0.059999999999999998,1.01
1632,1782569863989,0.040000000000000001,-0.059999999999999998,1.01
1633,1782569864072,0.040000000000000001,-0.059999999999999998,1.01
1634,1782569864173,0.040000000000000001,-0.059999999999999998,1.01
1635,1782569864256,0.040000000000000001,-0.059999999999999998,1.01
1636,1782569864289,0.040000000000000001,-0.059999999999999998,1.01
1637,1782569864339,0.040000000000000001,-0.059999999999999998,1.01
1638,1782569864406,0.040000000000000001,-0.059999999999999998,1.01
1639,1782569864472,0.040000000000000001,-0.059999999999999998,1.01
1640,1782569864506,0.040000000000000001,-0.059999999999999998,1.01
1641,1782569864572,0.040000000000000001,-0.059999999999999998,1.01
1642,1782569864639,0.040000000000000001,-0.059999999999999998,1.01
1643,1782569864788,0.040000000000000001,-0.059999999999999998,1.01
1644,1782569864863,0.040000000000000001,-0.059999999999999998,1.01
1645,1782569864890,0.040000000000000001,-0.059999999999999998,1.01
1646,1782569864969,0.040000000000000001,-0.059999999999999998,1.01
1647,1782569865009,0.040000000000000001,-0.059999999999999998,1.01
1648,1782569865042,0.040000000000000001,-0.059999999999999998,1.01
1649,1782569865105,0.040000000000000001,-0.059999999999999998,1.01
1650,1782569865172,0.040000000000000001,-0.059999999999999998,1.01
1651,1782569865239,0.040000000000000001,-0.059999999999999998,1.01
1652,1782569865305,0.040000000000000001,-0.059999999999999998,1.01
1653,1782569865338,0.040000000000000001,-0.059999999999999998,1.01
1654,1782569865371,0.040000000000000001,-0.059999999999999998,1.01
1655,1782569865371,0.040000000000000001,-0.059999999999999998,1.01
1656,1782569865438,0.040000000000000001,-0.059999999999999998,1.01
1657,1782569865488,0.040000000000000001,-0.059999999999999998,1.01
1658,1782569865522,0.040000000000000001,-0.059999999999999998,1.01
1659,1782569865571,0.040000000000000001,-0.059999999999999998,1.01
1660,1782569865641,0.040000000000000001,-0.059999999999999998,1.01
1661,1782569865755,0.040000000000000001,-0.059999999999999998,1.01
1662,1782569865789,0.040000000000000001,-0.059999999999999998,1.01
1663,1782569865838,0.040000000000000001,-0.059999999999999998,1.01
1664,1782569865905,0.040000000000000001,-0.059999999999999998,1.01
1665,1782569865955,0.040000000000000001,-0.059999999999999998,1.01
1666,1782569866071,0.050000000000000003,-0.050000000000000003,1.01
1667,1782569866154,0.050000000000000003,-0.050000000000000003,1.01
1668,1782569866204,0.050000000000000003,-0.050000000000000003,1.01
1669,1782569866237,0.040000000000000001,-0.059999999999999998,1.01
1670,1782569866320,0.029999999999999999,-0.059999999999999998,1.01
1671,1782569866387,0.029999999999999999,-0.059999999999999998,1.01
1672,1782569866453,0.029999999999999999,-0.059999999999999998,1.01
1673,1782569866504,0.029999999999999999,-0.059999999999999998,1.01
1674,1782569866520,0.040000000000000001,-0.059999999999999998,1.01
1675,1782569866537,0.040000000000000001,-0.059999999999999998,1.01
1676,1782569866570,0.050000000000000003,-0.059999999999999998,1.01
1677,1782569866637,0.050000000000000003,-0.059999999999999998,1.01
1678,1782569866671,0.050000000000000003,-0.059999999999999998,1.01
1679,1782569866737,0.040000000000000001,-0.059999999999999998,1.01
1680,1782569866803,0.040000000000000001,-0.059999999999999998,1.01
1681,1782569866836,0.040000000000000001,-0.059999999999999998,1.01
1682,1782569866853,0.040000000000000001,-0.059999999999999998,1.01
1683,1782569866904,0.040000000000000001,-0.059999999999999998,1.01
1684,1782569866954,0.050000000000000003,-0.059999999999999998,1.01
1685,1782569867036,0.050000000000000003,-0.050000000000000003,1.01
1686,1782569867103,0.050000000000000003,-0.050000000000000003,1.01
1687,1782569867119,0.029999999999999999,-0.059999999999999998,1.01
1688,1782569867169,0.029999999999999999,-0.059999999999999998,1.01
1689,1782569867220,0.02,-0.059999999999999998,1.01
1690,1782569867269,0.02,-0.059999999999999998,1.01
1691,1782569867319,0.02,-0.059999999999999998,1.01
1692,1782569867386,0.02,-0.059999999999999998,1.01
1693,1782569867537,0.040000000000000001,-0.059999999999999998,1.01
1694,1782569867585,0.040000000000000001,-0.059999999999999998,1.01
1695,1782569867653,0.050000000000000003,-0.059999999999999998,1.01
1696,1782569867669,0.040000000000000001,-0.059999999999999998,1.01
1697,1782569867719,0.040000000000000001,-0.059999999999999998,1.01
1698,1782569867802,0.040000000000000001,-0.059999999999999998,1.01
1699,1782569867902,0.040000000000000001,-0.059999999999999998,1.01
1700,1782569867936,0.040000000000000001,-0.059999999999999998,1.01
1701,1782569868019,0.040000000000000001,-0.059999999999999998,1.01
1702,1782569868052,0.040000000000000001,-0.050000000000000003,1.01
1703,1782569868118,0.040000000000000001,-0.050000000000000003,1.01
1704,1782569868169,0.040000000000000001,-0.050000000000000003,1.01
1705,1782569868185,0.040000000000000001,-0.050000000000000003,1.01
1706,1782569868218,0.040000000000000001,-0.050000000000000003,1.01
1707,1782569868235,0.040000000000000001,-0.050000000000000003,1.01
1708,1782569868252,0.050000000000000003,-0.059999999999999998,1.01
1709,1782569868318,0.029999999999999999,-0.059999999999999998,1.01
1710,1782569868385,0.029999999999999999,-0.059999999999999998,1.01
1711,1782569868551,0.029999999999999999,-0.059999999999999998,1.01
1712,1782569868618,0.040000000000000001,-0.059999999999999998,1.02
1713,1782569868685,0.040000000000000001,-0.059999999999999998,1.02
1714,1782569868769,0.040000000000000001,-0.059999999999999998,1.01
1715,1782569868784,0.040000000000000001,-0.059999999999999998,1.01
1716,1782569868818,0.040000000000000001,-0.059999999999999998,1.01
1717,1782569868867,0.050000000000000003,-0.050000000000000003,1.01
1718,1782569868951,0.050000000000000003,-0.059999999999999998,1.01
1719,1782569869001,0.050000000000000003,-0.059999999999999998,1.02
1720,1782569869034,0.050000000000000003,-0.059999999999999998,1.02
1721,1782569869051,0.050000000000000003,-0.059999999999999998,1.02
1722,1782569869068,0.050000000000000003,-0.050000000000000003,1.01
1723,1782569869169,0.02,-0.059999999999999998,1.01
1724,1782569869200,0.02,-0.059999999999999998,1.01
1725,1782569869268,0.02,-0.059999999999999998,1.01
1726,1782569869301,0.029999999999999999,-0.059999999999999998,1.01
1727,1782569869317,0.029999999999999999,-0.059999999999999998,1.01
1728,1782569869334,0.029999999999999999,-0.059999999999999998,1.01
1729,1782569869351,0.029999999999999999,-0.059999999999999998,1.01
1730,1782569869385,0.029999999999999999,-0.059999999999999998,1.01
1731,1782569869434,0.059999999999999998,-0.050000000000000003,1.01
1732,1782569869500,0.059999999999999998,-0.050000000000000003,1.01
1733,1782569869518,0.059999999999999998,-0.050000000000000003,1.01
1734,1782569869550,0.050000000000000003,-0.050000000000000003,1.01
1735,1782569869583,0.050000000000000003,-0.059999999999999998,1.01
1736,1782569869634,0.050000000000000003,-0.059999999999999998,1.01
1737,1782569869684,0.050000000000000003,-0.059999999999999998,1.01
1738,1782569869700,0.029999999999999999,-0.059999999999999998,1.01
1739,1782569869750,0.029999999999999999,-0.070000000000000007,1.01
1740,1782569869783,0.029999999999999999,-0.070000000000000007,1.01
1741,1782569869802,0.029999999999999999,-0.070000000000000007,1.01
1742,1782569869866,0.029999999999999999,-0.059999999999999998,1.01
1743,1782569869950,0.029999999999999999,-0.059999999999999998,1.01
1744,1782569869983,0.029999999999999999,-0.059999999999999998,1.01
1745,1782569870034,0.050000000000000003,-0.050000000000000003,1.02
1746,1782569870116,0.050000000000000003,-0.050000000000000003,1.02
1747,1782569870133,0.050000000000000003,-0.050000000000000003,1.02
1748,1782569870167,0.050000000000000003,-0.050000000000000003,1.01
1749,1782569870184,0.050000000000000003,-0.050000000000000003,1.01
1750,1782569870250,0.059999999999999998,-0.050000000000000003,1.01
1751,1782569870300,0.029999999999999999,-0.059999999999999998,1.01
1752,1782569870333,0.029999999999999999,-0.059999999999999998,1.01
1753,1782569870416,0.029999999999999999,-0.059999999999999998,1.01
1754,1782569870467,0.029999999999999999,-0.070000000000000007,1.01
1755,1782569870499,0.029999999999999999,-0.070000000000000007,1.01
1756,1782569870549,0.029999999999999999,-0.070000000000000007,1.01
1757,1782569870600,0.059999999999999998,-0.059999999999999998,1.01
1758,1782569870616,0.059999999999999998,-0.059999999999999998,1.01
1759,1782569870634,0.059999999999999998,-0.059999999999999998,1.01
1760,1782569870683,0.059999999999999998,-0.059999999999999998,1.01
1761,1782569870749,0.059999999999999998,-0.059999999999999998,1.01
1762,1782569870800,0.059999999999999998,-0.059999999999999998,1.01
1763,1782569870882,0.029999999999999999,-0.059999999999999998,1.01
1764,1782569870899,0.029999999999999999,-0.070000000000000007,1.02
1765,1782569870915,0.029999999999999999,-0.070000000000000007,1.02
1766,1782569870983,0.029999999999999999,-0.070000000000000007,1.02
1767,1782569871032,0.029999999999999999,-0.070000000000000007,1.02
1768,1782569871082,0.029999999999999999,-0.059999999999999998,1.01
1769,1782569871165,0.040000000000000001,-0.059999999999999998,1.01
1770,1782569871182,0.040000000000000001,-0.059999999999999998,1.01
1771,1782569871232,0.040000000000000001,-0.059999999999999998,1.01
1772,1782569871282,0.050000000000000003,-0.059999999999999998,1.01
1773,1782569871348,0.050000000000000003,-0.059999999999999998,1.01
1774,1782569871381,0.050000000000000003,-0.059999999999999998,1.01
1775,1782569871432,0.050000000000000003,-0.059999999999999998,1.01
1776,1782569871499,0.040000000000000001,-0.070000000000000007,1.01
1777,1782569871583,0.040000000000000001,-0.070000000000000007,1.01
1778,1782569871698,0.029999999999999999,-0.070000000000000007,1.01
1779,1782569871781,0.040000000000000001,-0.050000000000000003,1.02
1780,1782569871833,0.040000000000000001,-0.050000000000000003,1.01
1781,1782569871898,0.040000000000000001,-0.050000000000000003,1.01
1782,1782569871931,0.040000000000000001,-0.050000000000000003,1.01
1783,1782569872081,0.040000000000000001,-0.059999999999999998,1.01
1784,1782569872148,0.040000000000000001,-0.059999999999999998,1.01
1785,1782569872214,0.040000000000000001,-0.059999999999999998,1.01
1786,1782569872281,0.029999999999999999,-0.059999999999999998,1.01
1787,1782569872314,0.029999999999999999,-0.059999999999999998,1.01
1788,1782569872331,0.029999999999999999,-0.070000000000000007,1.02
1789,1782569872347,0.029999999999999999,-0.070000000000000007,1.02
1790,1782569872380,0.029999999999999999,-0.070000000000000007,1.02
1791,1782569872431,0.040000000000000001,-0.070000000000000007,1.01
