index,date,ACCEL_X,ACCEL_Y,ACCEL_Z
0,1782579299103,0.11,0.02,1.01
1,1782579299170,0.11,0.02,1.01
2,1782579299236,0.11,0.02,1.01
3,1782579299270,0.11,0.02,1.01
4,1782579299353,0.11,0.02,1.01
5,1782579299454,0.11,0.02,1.01
6,1782579299487,0.11,0.02,1.01
7,1782579299554,0.11,0.02,1.01
8,1782579299603,0.11,0.02,1.01
9,1782579299654,0.11,0.02,1.01
10,1782579299704,0.11,0.02,1.01
11,1782579299770,0.11,0.02,1.01
12,1782579299786,0.11,0.02,1.01
13,1782579299820,0.11,0.02,1.01
14,1782579299837,0.11,0.02,1.01
15,1782579299869,0.11,0.02,1.01
16,1782579300003,0.11,0.02,1.01
17,1782579300070,0.11,0.02,1.01
18,1782579300103,0.11,0.02,1.01
19,1782579300120,0.11,0.02,1.01
20,1782579300137,0.11,0.02,1.01
21,1782579300203,0.11,0.02,1.01
22,1782579300269,0.11,0.02,1.01
23,1782579300303,0.11,0.02,1.01
24,1782579300369,0.11,0.02,1.01
25,1782579300402,0.11,0.02,1.01
26,1782579300419,0.11,0.02,1.01
27,1782579300453,0.12,0.02,1.01
28,1782579300469,0.12,0.02,1.01
29,1782579300519,0.11,0.02,1.01
30,1782579300569,0.11,0.02,1.01
31,1782579300619,0.11,0.02,1.01
32,1782579300719,0.11,0.02,1.01
33,1782579300780,0.12,0.02,1.01
34,1782579300819,0.12,0.02,1.01
35,1782579300885,0.12,0.02,1.01
36,1782579300951,0.11,0.02,1.01
37,1782579300985,0.11,0.02,1.01
38,1782579301035,0.12,0.02,1.01
39,1782579301135,0.11,0.02,1.01
40,1782579301268,0.11,0.02,1.01
41,1782579301335,0.11,0.02,1.01
42,1782579301552,0.11,0.02,1.01
43,1782579301618,0.12,0.02,1.01
44,1782579301684,0.12,0.02,1.01
45,1782579301785,0.11,0.02,1.01
46,1782579301834,0.11,0.02,1.01
47,1782579301868,0.12,0.02,1.01
48,1782579301918,0.12,0.02,1.01
49,1782579301967,0.12,0.02,1.01
50,1782579302035,0.12,0.02,1.01
51,1782579302068,0.12,0.02,1.01
52,1782579302118,0.12,0.02,1.01
53,1782579302184,0.12,0.02,1.01
54,1782579302234,0.12,0.02,1.01
55,1782579302300,0.11,0.02,1.01
56,1782579302334,0.11,0.02,1.01
57,1782579302401,0.11,0.02,1.01
58,1782579302451,0.11,0.02,1.01
59,1782579302518,0.11,0.02,1.01
60,1782579302700,0.11,0.02,1.01
61,1782579302733,0.11,0.02,1.01
62,1782579302817,0.12,0.02,1.01
63,1782579302884,0.12,0.02,1.01
64,1782579302950,0.11,0.02,1.01
65,1782579303000,0.11,0.02,1.01
66,1782579303051,0.11,0.02,1.01
67,1782579303116,0.12,0.02,1.01
68,1782579303150,0.12,0.02,1.01
69,1782579303250,0.12,0.02,1.01
70,1782579303316,0.11,0.02,1.01
71,1782579303349,0.11,0.02,1.01
72,1782579303433,0.11,0.02,1.01
73,1782579303500,0.11,0.02,1.01
74,1782579303566,0.11,0.02,1.01
75,1782579303600,0.11,0.02,1.01
76,1782579303667,0.11,0.02,1.01
77,1782579303716,0.11,0.02,1.01
78,1782579303801,0.11,0.02,1.01
79,1782579303833,0.11,0.02,1.01
80,1782579303883,0.11,0.02,1.01
81,1782579303949,0.11,0.02,1.01
82,1782579303982,0.11,0.02,1.01
83,1782579304032,0.11,0.02,1.01
84,1782579304083,0.11,0.02,1.01
85,1782579304166,0.12,0.02,1.01
86,1782579304216,0.12,0.02,1.01
87,1782579304266,0.12,0.02,1.01
88,1782579304399,0.11,0.02,1.01
89,1782579304482,0.11,0.02,1.01
90,1782579304532,0.11,0.02,1.01
91,1782579304582,0.11,0.02,1.01
92,1782579304632,0.11,0.02,1.01
93,1782579304666,0.12,0.02,1.01
94,1782579304716,0.12,0.02,1.01
95,1782579304732,0.12,0.02,1.01
96,1782579304765,0.11,0.02,1.01
97,1782579304816,0.12,0.02,1.01
98,1782579304865,0.12,0.02,1.01
99,1782579304915,0.12,0.02,1.01
100,1782579304966,0.11,0.02,1.01
101,1782579305031,0.11,0.02,1.01
102,1782579305048,0.12,0.02,1.01
103,1782579305098,0.11,0.02,1.01
104,1782579305148,0.11,0.02,1.01
105,1782579305181,0.12,0.02,1.01
106,1782579305216,0.12,0.02,1.01
107,1782579305315,0.12,0.02,1.01
108,1782579305349,0.12,0.02,1
109,1782579305415,0.12,0.02,1
110,1782579305481,0.11,0.02,1
111,1782579305564,0.11,0.02,1.01
112,1782579305648,0.11,0.02,1.01
113,1782579305765,0.11,0.02,1.01
114,1782579305848,0.11,0.02,1.01
115,1782579305865,0.11,0.02,1.01
116,1782579305931,0.11,0.02,1.01
117,1782579305997,0.11,0.02,1.01
118,1782579306065,0.11,0.02,1.01
119,1782579306131,0.11,0.02,1.01
120,1782579306164,0.11,0.02,1.01
121,1782579306197,0.11,0.02,1.01
122,1782579306214,0.11,0.02,1
123,1782579306264,0.11,0.02,1.02
124,1782579306331,0.11,0.02,1.01
125,1782579306397,0.12,0.02,1.01
126,1782579306431,0.12,0.02,1.01
127,1782579306447,0.12,0.02,1.01
128,1782579306481,0.11,0.02,1.01
129,1782579306547,0.11,0.02,1.01
130,1782579306648,0.11,0.02,1.01
131,1782579306680,0.11,0.02,1.01
132,1782579306730,0.11,0.02,1.01
133,1782579306747,0.11,0.02,1.01
134,1782579306780,0.11,0.02,1
135,1782579306813,0.12,0.02,1.01
136,1782579306847,0.11,0.02,1.01
137,1782579306863,0.11,0.02,1
138,1782579306880,0.11,0.02,1.01
139,1782579306914,0.11,0.02,1
140,1782579306964,0.11,0.02,1
141,1782579307014,0.11,0.02,1.01
142,1782579307046,0.10000000000000001,0.02,1.01
143,1782579307097,0.10000000000000001,0.02,1
144,1782579307130,0.11,0.02,1.01
145,1782579307196,0.11,0.02,1
146,1782579307247,0.11,0.02,1.01
147,1782579307314,0.11,0.02,1.02
148,1782579307429,0.13,0.040000000000000001,1.02
149,1782579307446,0.13,0.040000000000000001,1.02
150,1782579307479,0.13,0.040000000000000001,1.1000000000000001
151,1782579307546,0.13,0.029999999999999999,1.1000000000000001
152,1782579307713,0.14999999999999999,0.02,0.97999999999999998
153,1782579307729,0.11,0.02,0.93999999999999995
154,1782579307746,0.11,0.029999999999999999,1
155,1782579307780,0.11,0.059999999999999998,1
156,1782579307929,0.14000000000000001,0.059999999999999998,1.0700000000000001
157,1782579308046,0.14000000000000001,-0.02,0.96999999999999997
158,1782579308129,0.14000000000000001,0.01,0.96999999999999997
159,1782579308146,0.089999999999999997,0.050000000000000003,1.0900000000000001
160,1782579308196,0.089999999999999997,-0.01,1.0900000000000001
161,1782579308279,0.089999999999999997,-0.01,1.0900000000000001
162,1782579308363,0.089999999999999997,-0.029999999999999999,1.0600000000000001
163,1782579308412,0.12,-0.02,0.97999999999999998
164,1782579308462,0.12,-0.02,0.93000000000000005
165,1782579308512,0.13,0.01,0.90000000000000002
166,1782579308596,0.13,0.040000000000000001,0.90000000000000002
167,1782579308696,0.089999999999999997,0.059999999999999998,1
168,1782579308828,0.14000000000000001,0.059999999999999998,1.02
169,1782579308879,0.14000000000000001,0.059999999999999998,1.02
170,1782579308945,0.13,0.10000000000000001,0.94999999999999996
171,1782579308962,0.13,0.10000000000000001,0.98999999999999999
172,1782579308979,0.16,0.070000000000000007,0.98999999999999999
173,1782579309029,0.20000000000000001,0.02,0.94999999999999996
174,1782579309079,0.20000000000000001,0.01,0.94999999999999996
175,1782579309129,0.17999999999999999,0.01,0.93999999999999995
176,1782579309211,0.16,0.01,0.93999999999999995
177,1782579309312,0.089999999999999997,0.050000000000000003,0.95999999999999996
178,1782579309378,0.089999999999999997,0.050000000000000003,1.1200000000000001
179,1782579309428,0.089999999999999997,0.050000000000000003,1.1200000000000001
180,1782579309495,0.089999999999999997,0.050000000000000003,1.1200000000000001
181,1782579309561,0.089999999999999997,0.01,0.94999999999999996
182,1782579309662,0.059999999999999998,0.01,1.02
183,1782579309761,0.050000000000000003,-0.01,1
184,1782579309811,0.050000000000000003,0.01,1.02
185,1782579309861,0.13,0.02,1.1100000000000001
186,1782579309911,0.13,0.029999999999999999,1.1499999999999999
187,1782579309994,0.10000000000000001,0.029999999999999999,1.1499999999999999
188,1782579310077,0.10000000000000001,0.029999999999999999,1.1200000000000001
189,1782579310094,0.13,0.050000000000000003,0.96999999999999997
190,1782579310128,0.12,0.040000000000000001,0.98999999999999999
191,1782579310228,0.10000000000000001,0.040000000000000001,1.02
192,1782579310277,0.10000000000000001,0.02,1.02
193,1782579310377,0.14999999999999999,0.02,1.01
194,1782579310444,0.14999999999999999,0.01,1.02
195,1782579310460,0.14999999999999999,0.01,1.02
196,1782579310478,0.13,0.01,1.02
197,1782579310510,0.14999999999999999,0.01,1
198,1782579310544,0.10000000000000001,0.01,1.02
199,1782579310577,0.080000000000000002,0.01,1
200,1782579310627,0.11,0.02,1.02
201,1782579310677,0.11,0.02,1.01
202,1782579310827,0.12,0.02,1.03
203,1782579310894,0.12,0.029999999999999999,0.98999999999999999
204,1782579310927,0.12,0.02,0.98999999999999999
205,1782579310994,0.12,0.02,1.01
206,1782579311110,0.11,0.02,1.01
207,1782579311177,0.11,0.02,1.01
208,1782579311260,0.11,0.02,1.01
209,1782579311310,0.11,0.02,1.01
210,1782579311343,0.11,0.02,1.01
211,1782579311360,0.11,0.02,1
212,1782579311394,0.11,0.02,1
213,1782579311477,0.11,0.02,1.01
214,1782579311510,0.11,0.02,1
215,1782579311559,0.12,0.02,1.01
216,1782579311610,0.12,0.02,1.01
217,1782579311676,0.12,0.02,1.01
218,1782579311710,0.12,0.029999999999999999,1.01
219,1782579311793,0.12,0.029999999999999999,1.01
220,1782579311843,0.11,0.029999999999999999,1.01
221,1782579311910,0.12,0.029999999999999999,1.01
222,1782579311960,0.11,0.029999999999999999,1
223,1782579311994,0.11,0.029999999999999999,1.01
224,1782579312093,0.12,0.02,1.01
225,1782579312276,0.12,0.02,1.01
226,1782579312343,0.12,0.02,1.01
227,1782579312459,0.12,0.02,1.01
228,1782579312509,0.12,0.02,1.01
229,1782579312542,0.11,0.02,1.01
230,1782579312575,0.11,0.02,1.01
231,1782579312642,0.11,0.02,1.01
232,1782579312742,0.11,0.02,1.01
233,1782579312775,0.11,0.02,1.01
234,1782579312825,0.11,0.02,1.01
235,1782579312899,0.12,0.02,1.01
236,1782579312942,0.12,0.02,1.01
237,1782579312959,0.12,0.02,1.01
238,1782579312975,0.12,0.02,1.01
239,1782579313044,0.12,0.029999999999999999,1.01
240,1782579313093,0.12,0.02,1.01
241,1782579313143,0.12,0.029999999999999999,1.01
242,1782579313227,0.12,0.029999999999999999,1.01
243,1782579313292,0.12,0.02,1.01
244,1782579313326,0.12,0.02,1.01
245,1782579313392,0.12,0.02,1.01
246,1782579313475,0.12,0.02,1.01
247,1782579313543,0.11,0.02,1.01
248,1782579313610,0.11,0.02,1.01
249,1782579313642,0.11,0.029999999999999999,1.01
250,1782579313692,0.11,0.029999999999999999,1.01
251,1782579313795,0.11,0.02,1.01
252,1782579313875,0.11,0.02,1.01
253,1782579313909,0.11,0.02,1.01
254,1782579313942,0.11,0.02,1.01
255,1782579314009,0.12,0.02,1.01
256,1782579314043,0.11,0.02,1.01
257,1782579314059,0.11,0.02,1.01
258,1782579314076,0.11,0.02,1.01
259,1782579314093,0.11,0.02,1.01
260,1782579314125,0.12,0.02,1.01
261,1782579314173,0.12,0.02,1.01
262,1782579314274,0.11,0.02,1.01
263,1782579314324,0.12,0.02,1.01
264,1782579314374,0.11,0.02,1.01
265,1782579314423,0.11,0.02,1.01
266,1782579314473,0.11,0.02,1.01
267,1782579314523,0.11,0.02,1.01
268,1782579314590,0.12,0.02,1.01
269,1782579314674,0.12,0.02,1.01
270,1782579314709,0.12,0.02,1.01
271,1782579314790,0.11,0.02,1.01
272,1782579314846,0.11,0.02,1.01
273,1782579314862,0.12,0.02,1.01
274,1782579314926,0.12,0.02,1.01
275,1782579314959,0.11,0.02,1.01
276,1782579315108,0.12,0.02,1.01
277,1782579315175,0.12,0.02,1.01
278,1782579315239,0.12,0.02,1.01
279,1782579315273,0.11,0.02,1.01
280,1782579315357,0.11,0.02,1.01
281,1782579315373,0.11,0.02,1.01
282,1782579315440,0.11,0.02,1.01
283,1782579315506,0.11,0.02,1.01
284,1782579315539,0.11,0.02,1.01
285,1782579315589,0.11,0.02,1.01
286,1782579315673,0.12,0.02,1.01
287,1782579315774,0.12,0.02,1.01
288,1782579315856,0.11,0.02,1.01
289,1782579315889,0.12,0.02,1.01
290,1782579315939,0.12,0.02,1.01
291,1782579315989,0.12,0.02,1.01
292,1782579316022,0.12,0.02,1.01
293,1782579316039,0.12,0.02,1.01
294,1782579316089,0.12,0.02,1.01
295,1782579316155,0.12,0.02,1.01
296,1782579316223,0.12,0.02,1.01
297,1782579316272,0.11,0.02,1.01
298,1782579316322,0.11,0.02,1.01
299,1782579316439,0.12,0.02,1.01
300,1782579316489,0.12,0.02,1.01
301,1782579517852,0.040000000000000001,0,1.01
302,1782579517919,0.040000000000000001,0,1.01
303,1782579517986,0.040000000000000001,0,1.01
304,1782579518020,0.040000000000000001,0,1.01
305,1782579518070,0.040000000000000001,0,1.01
306,1782579518135,0.040000000000000001,0,1.01
307,1782579518185,0.040000000000000001,0.01,1.01
308,1782579518202,0.040000000000000001,0,1.01
309,1782579518235,0.040000000000000001,0,1.01
310,1782579518252,0.040000000000000001,0,1.01
311,1782579518268,0.040000000000000001,0,1.01
312,1782579518319,0.040000000000000001,0,1.01
313,1782579518352,0.040000000000000001,0,1.01
314,1782579518402,0.040000000000000001,0,1.01
315,1782579518452,0.040000000000000001,0,1.02
316,1782579518518,0.040000000000000001,0,1.02
317,1782579518551,0.040000000000000001,0,1.02
318,1782579518618,0.040000000000000001,0.01,1.01
319,1782579518684,0.040000000000000001,0.01,1.01
320,1782579518718,0.040000000000000001,0.01,1.01
321,1782579518751,0.040000000000000001,0.01,1.01
322,1782579518785,0.040000000000000001,0.01,1.01
323,1782579518802,0.040000000000000001,0.01,1.01
324,1782579518819,0.040000000000000001,0,1.01
325,1782579518835,0.040000000000000001,0,1.01
326,1782579518885,0.040000000000000001,0,1.01
327,1782579518935,0.040000000000000001,0,1.01
328,1782579518951,0.040000000000000001,0,1.01
329,1782579519002,0.040000000000000001,0,1.01
330,1782579519051,0.040000000000000001,0,1.01
331,1782579519102,0.040000000000000001,0,1.01
332,1782579519168,0.040000000000000001,0,1.01
333,1782579519235,0.040000000000000001,0,1.01
334,1782579519252,0.040000000000000001,0,1.01
335,1782579519301,0.040000000000000001,0,1.02
336,1782579519385,0.040000000000000001,0,1.02
337,1782579519385,0.040000000000000001,0,1.02
338,1782579519417,0.040000000000000001,0,1.02
339,1782579519434,0.040000000000000001,0,1.01
340,1782579519451,0.040000000000000001,0,1.01
341,1782579519484,0.040000000000000001,0,1.01
342,1782579519551,0.040000000000000001,0,1.01
343,1782579519584,0.040000000000000001,0,1.01
344,1782579519667,0.040000000000000001,0,1.01
345,1782579519718,0.040000000000000001,0.01,1.01
346,1782579519785,0.040000000000000001,0.01,1.01
347,1782579519817,0.040000000000000001,0.01,1.01
348,1782579519883,0.040000000000000001,0.01,1.01
349,1782579519934,0.040000000000000001,0.01,1.01
350,1782579519967,0.040000000000000001,0.01,1.01
351,1782579520001,0.040000000000000001,0,1.01
352,1782579520017,0.040000000000000001,0,1.01
353,1782579520034,0.040000000000000001,0,1.01
354,1782579520100,0.040000000000000001,0,1.01
355,1782579520167,0.040000000000000001,0,1.01
356,1782579520217,0.040000000000000001,0,1.01
357,1782579520267,0.040000000000000001,0,1.01
358,1782579520316,0.040000000000000001,0,1.01
359,1782579520366,0.040000000000000001,0,1.01
360,1782579520434,0.040000000000000001,0.01,1.01
361,1782579520484,0.040000000000000001,0.01,1.01
362,1782579520517,0.040000000000000001,0.01,1.01
363,1782579520534,0.040000000000000001,0,1.01
364,1782579520551,0.040000000000000001,0,1.01
365,1782579520601,0.040000000000000001,0,1.01
366,1782579520633,0.040000000000000001,0,1.01
367,1782579520700,0.040000000000000001,0,1.01
368,1782579520750,0.040000000000000001,0,1.01
369,1782579520816,0.040000000000000001,0,1.01
370,1782579520816,0.040000000000000001,0,1.01
371,1782579520884,0.040000000000000001,0,1.01
372,1782579521000,0.040000000000000001,0,1.01
373,1782579521050,0.040000000000000001,0.01,1.01
374,1782579521100,0.040000000000000001,0.01,1.01
375,1782579521232,0.040000000000000001,0,1.01
376,1782579521249,0.040000000000000001,0,1.01
377,1782579521266,0.040000000000000001,0,1.01
378,1782579521300,0.040000000000000001,0,1.01
379,1782579521316,0.040000000000000001,0,1.01
380,1782579521366,0.040000000000000001,0,1.01
381,1782579521400,0.040000000000000001,0,1.01
382,1782579521466,0.040000000000000001,0,1.01
383,1782579521500,0.040000000000000001,0,1.01
384,1782579521532,0.040000000000000001,0,1.01
385,1782579521549,0.040000000000000001,0,1.01
386,1782579521599,0.040000000000000001,0,1.01
387,1782579521749,0.040000000000000001,0,1.01
388,1782579521783,0.040000000000000001,0,1.01
389,1782579521816,0.040000000000000001,0,1.01
390,1782579521850,0.040000000000000001,0.01,1.01
391,1782579521866,0.040000000000000001,0.01,1.01
392,1782579521916,0.040000000000000001,0.01,1.02
393,1782579521982,0.040000000000000001,0.01,1.02
394,1782579522065,0.040000000000000001,0,1.02
395,1782579522115,0.040000000000000001,0,1.01
396,1782579522148,0.040000000000000001,0,1.01
397,1782579522181,0.040000000000000001,0,1.01
398,1782579522199,0.040000000000000001,0,1.01
399,1782579522215,0.040000000000000001,0,1.01
400,1782579522249,0.040000000000000001,0,1.01
401,1782579522316,0.040000000000000001,0,1.01
402,1782579522365,0.040000000000000001,0,1.01
403,1782579522432,0.040000000000000001,0,1.01
404,1782579522448,0.040000000000000001,0,1.01
405,1782579522466,0.040000000000000001,0,1.01
406,1782579522499,0.040000000000000001,0,1.01
407,1782579522515,0.040000000000000001,0,1.01
408,1782579522565,0.040000000000000001,0,1.02
409,1782579522632,0.040000000000000001,0,1.02
410,1782579522664,0.040000000000000001,0,1.02
411,1782579522715,0.040000000000000001,0.01,1.01
412,1782579522748,0.040000000000000001,0.01,1.01
413,1782579522865,0.040000000000000001,0.01,1.01
414,1782579522965,0.040000000000000001,0.01,1.01
415,1782579523014,0.040000000000000001,0.01,1.01
416,1782579523048,0.040000000000000001,0,1.01
417,1782579523081,0.040000000000000001,0,1.01
418,1782579523181,0.040000000000000001,0,1.01
419,1782579523281,0.040000000000000001,0,1.01
420,1782579523348,0.040000000000000001,0,1.01
421,1782579523399,0.040000000000000001,0,1.01
422,1782579523431,0.040000000000000001,0,1.01
423,1782579523498,0.040000000000000001,0,1.01
424,1782579523547,0.040000000000000001,0,1.01
425,1782579523581,0.040000000000000001,0,1.01
426,1782579523614,0.040000000000000001,0,1.01
427,1782579523631,0.040000000000000001,0.01,1.01
428,1782579523647,0.040000000000000001,0.01,1.01
429,1782579523697,0.040000000000000001,0.01,1.01
430,1782579523731,0.040000000000000001,0.01,1.01
431,1782579523830,0.040000000000000001,0,1.01
432,1782579523864,0.040000000000000001,0.01,1.01
433,1782579523931,0.040000000000000001,0,1.01
434,1782579523997,0.040000000000000001,0,1.01
435,1782579524014,0.040000000000000001,0,1.01
436,1782579524064,0.040000000000000001,0,1.01
437,1782579524180,0.040000000000000001,0,1.01
438,1782579524197,0.040000000000000001,0,1.01
439,1782579524230,0.040000000000000001,0,1.01
440,1782579524297,0.040000000000000001,0,1.01
441,1782579524380,0.040000000000000001,0,1.01
442,1782579524430,0.040000000000000001,0,1.01
443,1782579524463,0.040000000000000001,0,1.01
444,1782579524480,0.040000000000000001,0,1.01
445,1782579524513,0.040000000000000001,0,1.01
446,1782579524530,0.040000000000000001,0,1.01
447,1782579524579,0.040000000000000001,0,1.01
448,1782579524613,0.040000000000000001,0,1.01
449,1782579524679,0.040000000000000001,0.01,1.01
450,1782579524713,0.040000000000000001,0.01,1.01
451,1782579524747,0.040000000000000001,0.01,1.01
452,1782579524830,0.040000000000000001,0.01,1.01
453,1782579524863,0.040000000000000001,0.01,1.01
454,1782579524963,0.040000000000000001,0.01,1.01
455,1782579525030,0.040000000000000001,0.01,1.01
456,1782579525063,0.040000000000000001,0.01,1.01
457,1782579525096,0.040000000000000001,0,1.01
458,1782579525114,0.040000000000000001,0,1.01
459,1782579525179,0.040000000000000001,0,1.01
460,1782579525213,0.040000000000000001,0,1.01
461,1782579525262,0.040000000000000001,0,1.01
462,1782579525313,0.040000000000000001,0,1.01
463,1782579525396,0.040000000000000001,0,1.01
464,1782579525462,0.040000000000000001,0,1.01
465,1782579525512,0.040000000000000001,0,1.01
466,1782579525596,0.040000000000000001,0,1.01
467,1782579525646,0.040000000000000001,0,1.01
468,1782579525663,0.040000000000000001,0,1.01
469,1782579525729,0.040000000000000001,0,1.01
470,1782579525830,0.040000000000000001,0.01,1.01
471,1782579525880,0.040000000000000001,0.01,1.01
472,1782579525930,0.040000000000000001,0.01,1.01
473,1782579525946,0.040000000000000001,0.01,1.01
474,1782579525978,0.040000000000000001,0.01,1.01
475,1782579526029,0.040000000000000001,0.01,1.01
476,1782579526078,0.040000000000000001,0.01,1.01
477,1782579526096,0.040000000000000001,0,1.01
478,1782579526130,0.040000000000000001,0,1.01
479,1782579526146,0.040000000000000001,0,1.01
480,1782579526163,0.040000000000000001,0,1.01
481,1782579526213,0.040000000000000001,0,1.01
482,1782579526262,0.040000000000000001,0,1.01
483,1782579526328,0.040000000000000001,0,1.01
484,1782579526378,0.040000000000000001,0,1.01
485,1782579526412,0.040000000000000001,0,1.01
486,1782579526428,0.040000000000000001,0,1.01
487,1782579526495,0.040000000000000001,0,1.01
488,1782579526578,0.040000000000000001,0,1.01
489,1782579526628,0.040000000000000001,0,1.01
490,1782579526661,0.040000000000000001,0,1.01
491,1782579526680,0.040000000000000001,0,1.01
492,1782579526711,0.040000000000000001,0.01,1.01
493,1782579526728,0.040000000000000001,0.01,1.01
494,1782579526761,0.040000000000000001,0.01,1.01
495,1782579526811,0.040000000000000001,0.01,1.01
496,1782579526845,0.040000000000000001,0.01,1.01
497,1782579526878,0.040000000000000001,0.01,1.01
498,1782579526912,0.040000000000000001,0,1.01
499,1782579526945,0.040000000000000001,0,1.01
500,1782579526978,0.040000000000000001,0,1.01
501,1782579527077,0.040000000000000001,0,1.01
502,1782579527161,0.040000000000000001,0.01,1.01
503,1782579527228,0.040000000000000001,0,1.01
504,1782579527244,0.040000000000000001,0,1.01
505,1782579527261,0.040000000000000001,0,1.01
506,1782579527344,0.040000000000000001,0,1.01
507,1782579527377,0.040000000000000001,0,1.01
508,1782579527444,0.040000000000000001,0,1.01
509,1782579527477,0.040000000000000001,0,1.01
510,1782579527560,0.040000000000000001,0,1.01
511,1782579527628,0.040000000000000001,0,1.02
512,1782579527660,0.040000000000000001,0,1.02
513,1782579527694,0.040000000000000001,0,1.01
514,1782579527877,0.040000000000000001,0,1.01
515,1782579527894,0.040000000000000001,0.01,1.01
516,1782579527911,0.040000000000000001,0.01,1.01
517,1782579527944,0.040000000000000001,0.01,1.01
518,1782579527944,0.040000000000000001,0.01,1.01
519,1782579528010,0.040000000000000001,0.01,1.01
520,1782579528077,0.040000000000000001,0.01,1.01
521,1782579528094,0.040000000000000001,0.01,1.01
522,1782579528160,0.040000000000000001,0.01,1.01
523,1782579528260,0.040000000000000001,0,1.01
524,1782579528294,0.040000000000000001,0,1.01
525,1782579528360,0.040000000000000001,0,1.01
526,1782579528410,0.040000000000000001,0,1.01
527,1782579528460,0.040000000000000001,0,1.01
528,1782579528477,0.040000000000000001,0,1.01
529,1782579528493,0.040000000000000001,0,1.01
530,1782579528526,0.040000000000000001,0,1.01
531,1782579528627,0.040000000000000001,0,1.01
532,1782579528643,0.040000000000000001,0.01,1.01
533,1782579528676,0.040000000000000001,0.01,1.01
534,1782579528743,0.040000000000000001,0.01,1.01
535,1782579528776,0.040000000000000001,0.01,1.01
536,1782579528826,0.040000000000000001,0.01,1.01
537,1782579528959,0.040000000000000001,0.01,1.01
538,1782579529009,0.040000000000000001,0.01,1.01
539,1782579529059,0.040000000000000001,0,1.01
540,1782579529126,0.040000000000000001,0.01,1.01
541,1782579529143,0.040000000000000001,0.01,1.01
542,1782579529176,0.040000000000000001,0,1.01
543,1782579529193,0.040000000000000001,0,1.01
544,1782579529242,0.040000000000000001,0,1.01
545,1782579529309,0.040000000000000001,0,1.01
546,1782579529342,0.040000000000000001,0,1.01
547,1782579529409,0.040000000000000001,0,1.01
548,1782579529442,0.040000000000000001,0,1.01
549,1782579529459,0.040000000000000001,0,1.01
550,1782579529492,0.040000000000000001,0,1.02
551,1782579529592,0.040000000000000001,0,1.02
552,1782579529676,0.040000000000000001,0,1.02
553,1782579529692,0.040000000000000001,0,1.01
554,1782579529775,0.040000000000000001,0,1.01
555,1782579529792,0.040000000000000001,0,1.01
556,1782579529826,0.040000000000000001,0,1.01
557,1782579529842,0.040000000000000001,0.01,1.01
558,1782579529893,0.040000000000000001,0.01,1.01
559,1782579529975,0.040000000000000001,0,1.01
560,1782579530025,0.040000000000000001,0.01,1.01
561,1782579530042,0.040000000000000001,0.01,1.01
562,1782579530059,0.040000000000000001,0.01,1.01
563,1782579530125,0.040000000000000001,0.01,1.01
564,1782579530159,0.040000000000000001,0.01,1.01
565,1782579530225,0.040000000000000001,0.01,1.01
566,1782579530375,0.040000000000000001,0,1.01
567,1782579530409,0.040000000000000001,0,1.01
568,1782579530441,0.040000000000000001,0,1.01
569,1782579530475,0.040000000000000001,0,1.01
570,1782579530525,0.040000000000000001,0.01,1.01
571,1782579530675,0.040000000000000001,0,1.01
572,1782579530708,0.040000000000000001,0,1.01
573,1782579530724,0.040000000000000001,0,1.01
574,1782579530741,0.040000000000000001,0,1.01
575,1782579530808,0.040000000000000001,0,1.01
576,1782579530841,0.040000000000000001,0,1.01
577,1782579530891,0.040000000000000001,0,1.01
578,1782579530958,0.040000000000000001,0,1.01
579,1782579531008,0.040000000000000001,0,1.01
580,1782579531074,0.040000000000000001,0,1.01
581,1782579531108,0.040000000000000001,0,1.01
582,1782579531274,0.040000000000000001,0,1.01
583,1782579531324,0.040000000000000001,0,1.01
584,1782579531391,0.040000000000000001,0,1.01
585,1782579531491,0.040000000000000001,0.01,1.01
586,1782579531574,0.040000000000000001,0.01,1.01
587,1782579531641,0.040000000000000001,0.01,1.01
588,1782579531691,0.040000000000000001,0.01,1.01
589,1782579531890,0.040000000000000001,0.01,1.01
590,1782579531957,0.040000000000000001,0,1.02
591,1782579532007,0.040000000000000001,0.01,1.01
592,1782579532074,0.040000000000000001,-0,1.02
593,1782579532140,0.029999999999999999,-0,1.02
594,1782579532190,0.029999999999999999,-0,1.02
595,1782579532257,0.040000000000000001,0,1.01
596,1782579532323,0.040000000000000001,0,1.02
597,1782579532340,0.040000000000000001,0,1.02
598,1782579532356,0.040000000000000001,0,1.02
599,1782579532406,0.040000000000000001,0,1.02
600,1782579532490,0.040000000000000001,0,1.01
601,1782579532524,0.040000000000000001,0,1.02
602,1782579532556,0.040000000000000001,0,1.02
603,1782579532590,0.040000000000000001,0,1.02
604,1782579532607,0.040000000000000001,0,1.01
605,1782579532623,0.040000000000000001,0,1.01
606,1782579532673,0.040000000000000001,0,1.01
607,1782579532789,0.040000000000000001,0,1.01
608,1782579532806,0.040000000000000001,0,1.01
609,1782579532840,0.040000000000000001,0,1.01
610,1782579532873,0.040000000000000001,0,1.01
611,1782579532890,0.040000000000000001,0,1.01
612,1782579532940,0.040000000000000001,0,1.01
613,1782579533056,0.040000000000000001,0,1.01
614,1782579533072,0.040000000000000001,0,1.01
615,1782579533106,0.040000000000000001,0,1.02
616,1782579533172,0.040000000000000001,0,1.02
617,1782579533207,0.040000000000000001,0,1.02
618,1782579533273,0.040000000000000001,0,1.01
619,1782579533306,0.040000000000000001,0,1.01
620,1782579533323,0.040000000000000001,0,1.01
621,1782579533356,0.040000000000000001,0,1.01
622,1782579533389,0.040000000000000001,0,1.01
623,1782579533456,0.040000000000000001,0.01,1.02
624,1782579533522,0.040000000000000001,0.01,1.01
625,1782579533589,0.040000000000000001,0.01,1.01
626,1782579533656,0.040000000000000001,0.01,1.01
627,1782579533689,0.040000000000000001,0,1.01
628,1782579533723,0.040000000000000001,0.01,1.01
629,1782579533789,0.040000000000000001,0.01,1.01
630,1782579533822,0.040000000000000001,0.01,1.01
631,1782579533872,0.040000000000000001,0.01,1.01
632,1782579533922,0.040000000000000001,0.01,1.01
633,1782579533972,0.040000000000000001,0,1.01
634,1782579534022,0.040000000000000001,0.01,1.01
635,1782579534072,0.040000000000000001,0,1.01
636,1782579534122,0.040000000000000001,0,1.01
637,1782579534188,0.040000000000000001,0,1.01
638,1782579534238,0.040000000000000001,0,1.01
639,1782579534289,0.040000000000000001,0,1.02
640,1782579534322,0.040000000000000001,0,1.02
641,1782579534438,0.040000000000000001,0,1.02
642,1782579534538,0.040000000000000001,0,1.01
643,1782579534555,0.040000000000000001,0,1.01
644,1782579534588,0.040000000000000001,0,1.01
645,1782579534604,0.040000000000000001,0,1.01
646,1782579534621,0.040000000000000001,0,1.01
647,1782579534771,0.040000000000000001,0.01,1.01
648,1782579534804,0.040000000000000001,0,1.01
649,1782579534821,0.040000000000000001,0,1.01
650,1782579534854,0.040000000000000001,0,1.01
651,1782579534871,0.040000000000000001,0,1.01
652,1782579534921,0.040000000000000001,0.01,1.01
653,1782579534987,0.040000000000000001,0.01,1.01
654,1782579535088,0.040000000000000001,0.01,1.01
655,1782579535104,0.040000000000000001,0.01,1.01
656,1782579535204,0.040000000000000001,0.01,1.01
657,1782579535237,0.040000000000000001,0.01,1.01
658,1782579535271,0.040000000000000001,0.01,1.01
659,1782579535320,0.040000000000000001,0.01,1.01
660,1782579535370,0.040000000000000001,0,1.01
661,1782579535404,0.040000000000000001,0,1.01
662,1782579535421,0.040000000000000001,0,1.01
663,1782579535470,0.040000000000000001,0,1.01
664,1782579535537,0.040000000000000001,0,1.01
665,1782579535570,0.040000000000000001,0,1.01
666,1782579535637,0.040000000000000001,0,1.01
667,1782579535703,0.040000000000000001,0.01,1.01
668,1782579535720,0.040000000000000001,0.01,1.02
669,1782579535737,0.040000000000000001,0.01,1.02
670,1782579535754,0.040000000000000001,0.01,1.02
671,1782579535804,0.040000000000000001,0.01,1.02
672,1782579535854,0.040000000000000001,0.01,1.01
673,1782579535920,0.040000000000000001,0.01,1.01
674,1782579535970,0.040000000000000001,0.01,1.01
675,1782579536021,0.040000000000000001,0,1.01
676,1782579536054,0.040000000000000001,0,1.01
677,1782579536120,0.040000000000000001,0,1.01
678,1782579536170,0.040000000000000001,0,1.01
679,1782579536253,0.040000000000000001,0,1.01
680,1782579536286,0.040000000000000001,0,1.01
681,1782579536320,0.040000000000000001,0,1.01
682,1782579536370,0.040000000000000001,0,1.01
683,1782579536437,0.040000000000000001,0,1.01
684,1782579536486,0.040000000000000001,0,1.01
685,1782579536537,0.040000000000000001,0,1.01
686,1782579536553,0.040000000000000001,0,1.01
687,1782579536587,0.040000000000000001,0,1.02
688,1782579536636,0.040000000000000001,0,1.02
689,1782579536703,0.040000000000000001,0,1.02
690,1782579536736,0.040000000000000001,0,1.02
691,1782579536803,0.040000000000000001,0,1.01
692,1782579536853,0.040000000000000001,0,1.01
693,1782579536919,0.040000000000000001,0,1.01
694,1782579536986,0.040000000000000001,0,1.01
695,1782579537036,0.040000000000000001,0,1.01
696,1782579537086,0.040000000000000001,0.01,1.01
697,1782579537119,0.040000000000000001,0.01,1.01
698,1782579537152,0.040000000000000001,0.01,1.01
699,1782579537252,0.040000000000000001,0.01,1.01
700,1782579537302,0.040000000000000001,0,1.01
701,1782579537403,0.040000000000000001,0,1.01
702,1782579537419,0.040000000000000001,0,1.01
703,1782579537453,0.040000000000000001,0,1.01
704,1782579537519,0.040000000000000001,0,1.02
705,1782579537552,0.040000000000000001,0,1.02
706,1782579537602,0.040000000000000001,0,1.02
707,1782579537652,0.040000000000000001,0,1.02
708,1782579537669,0.040000000000000001,0,1.02
709,1782579537685,0.040000000000000001,0,1.01
710,1782579537752,0.040000000000000001,0,1.01
711,1782579537835,0.040000000000000001,0,1.01
712,1782579537902,0.040000000000000001,0,1.01
713,1782579537952,0.040000000000000001,0,1.01
714,1782579538018,0.040000000000000001,0,1.01
715,1782579538102,0.040000000000000001,0,1.01
716,1782579538152,0.040000000000000001,0,1.01
717,1782579538185,0.040000000000000001,0,1.01
718,1782579538251,0.040000000000000001,0.01,1.01
719,1782579538285,0.040000000000000001,0,1.01
720,1782579538351,0.040000000000000001,0,1.01
721,1782579538385,0.040000000000000001,0,1.01
722,1782579538435,0.040000000000000001,0,1.01
723,1782579538485,0.040000000000000001,0,1.01
724,1782579538568,0.040000000000000001,0,1.01
725,1782579538585,0.040000000000000001,0,1.01
726,1782579538634,0.040000000000000001,0,1.02
727,1782579538702,0.040000000000000001,0,1.02
728,1782579538736,0.040000000000000001,0,1.01
729,1782579538801,0.040000000000000001,0,1.01
730,1782579538918,0.040000000000000001,0,1.01
731,1782579538951,0.040000000000000001,0,1.01
732,1782579539001,0.040000000000000001,0,1.01
733,1782579539068,0.040000000000000001,0,1.01
734,1782579539134,0.040000000000000001,0,1.01
735,1782579539151,0.040000000000000001,0,1.01
736,1782579539184,0.040000000000000001,0,1.01
737,1782579539251,0.040000000000000001,0,1.01
738,1782579539284,0.040000000000000001,0,1.01
739,1782579539367,0.040000000000000001,0,1.01
740,1782579539451,0.040000000000000001,0,1.01
741,1782579539584,0.040000000000000001,0,1.01
742,1782579539650,0.040000000000000001,0,1.01
743,1782579539801,0.040000000000000001,0,1.01
744,1782579539817,0.040000000000000001,0,1.01
745,1782579539884,0.040000000000000001,0,1.01
746,1782579539950,0.040000000000000001,0,1.01
747,1782579539984,0.040000000000000001,0,1.01
748,1782579539984,0.040000000000000001,0,1.01
749,1782579540033,0.040000000000000001,0,1.01
750,1782579540100,0.040000000000000001,0,1.01
751,1782579540133,0.040000000000000001,0,1.01
752,1782579540200,0.040000000000000001,0,1.01
753,1782579540283,0.040000000000000001,0,1.02
754,1782579540317,0.040000000000000001,0.01,1.01
755,1782579540450,0.040000000000000001,0.01,1.01
756,1782579540517,0.040000000000000001,0.01,1.01
757,1782579540616,0.040000000000000001,0.01,1.01
758,1782579540649,0.040000000000000001,0.01,1.01
759,1782579540716,0.040000000000000001,0.01,1.01
760,1782579540783,0.040000000000000001,0,1.01
761,1782579540817,0.040000000000000001,0,1.01
762,1782579540849,0.040000000000000001,0,1.01
763,1782579540916,0.040000000000000001,0,1.01
764,1782579540983,0.040000000000000001,0,1.01
765,1782579541034,0.040000000000000001,0,1.01
766,1782579541116,0.029999999999999999,0,1.02
767,1782579541167,0.029999999999999999,0,1.02
768,1782579541199,0.040000000000000001,0.01,1.01
769,1782579541299,0.040000000000000001,0.01,1.01
770,1782579541365,0.040000000000000001,0.01,1.01
771,1782579541432,0.040000000000000001,0.01,1.01
772,1782579541466,0.040000000000000001,0.01,1.01
773,1782579541516,0.040000000000000001,0.01,1.01
774,1782579541583,0.040000000000000001,0.01,1.01
775,1782579541599,0.040000000000000001,0.01,1.01
776,1782579541632,0.040000000000000001,0.01,1.01
777,1782579541682,0.040000000000000001,0.01,1.01
778,1782579541816,0.040000000000000001,0,1.01
779,1782579541849,0.040000000000000001,0,1.01
780,1782579541865,0.040000000000000001,0,1.01
781,1782579541916,0.040000000000000001,0,1.01
782,1782579541966,0.040000000000000001,0,1.01
783,1782579542049,0.040000000000000001,0,1.01
784,1782579542065,0.040000000000000001,0,1.01
785,1782579542083,0.040000000000000001,0,1.01
786,1782579542115,0.040000000000000001,0.01,1.01
787,1782579542133,0.040000000000000001,0.01,1.01
788,1782579542199,0.040000000000000001,0.01,1.01
789,1782579542232,0.040000000000000001,0.01,1.01
790,1782579542266,0.040000000000000001,0.01,1.01
791,1782579542331,0.040000000000000001,0.01,1.01
792,1782579542365,0.040000000000000001,0.01,1.01
793,1782579542398,0.040000000000000001,0.01,1.01
794,1782579542415,0.040000000000000001,0.01,1.01
795,1782579542465,0.040000000000000001,0.01,1.01
796,1782579542531,0.040000000000000001,0.01,1.01
797,1782579542664,0.040000000000000001,0,1.01
798,1782579542698,0.040000000000000001,0,1.01
799,1782579542764,0.040000000000000001,0,1.01
800,1782579542848,0.040000000000000001,0,1.01
801,1782579542915,0.040000000000000001,0,1.01
802,1782579542948,0.040000000000000001,0,1.01
803,1782579542965,0.040000000000000001,0,1.01
804,1782579542981,0.040000000000000001,0,1.01
805,1782579543014,0.040000000000000001,0,1.01
806,1782579543064,0.040000000000000001,0,1.01
807,1782579543147,0.040000000000000001,0,1.01
808,1782579543197,0.040000000000000001,0,1.01
809,1782579543231,0.040000000000000001,0,1.01
810,1782579543280,0.040000000000000001,0,1.01
811,1782579543364,0.040000000000000001,0,1.01
812,1782579543397,0.040000000000000001,0,1.01
813,1782579543447,0.040000000000000001,0,1.01
814,1782579543547,0.040000000000000001,0,1.01
815,1782579543598,0.040000000000000001,0,1.01
816,1782579543630,0.040000000000000001,0,1.01
817,1782579543697,0.040000000000000001,0,1.01
818,1782579543764,0.040000000000000001,0,1.01
819,1782579543865,0.040000000000000001,0,1.02
820,1782579543930,0.040000000000000001,0,1.02
821,1782579543981,0.040000000000000001,0,1.02
822,1782579544030,0.040000000000000001,0,1.01
823,1782579544097,0.040000000000000001,0,1.01
824,1782579544113,0.040000000000000001,0,1.01
825,1782579544246,0.040000000000000001,0,1.01
826,1782579544296,0.040000000000000001,0,1.01
827,1782579544363,0.040000000000000001,0,1.01
828,1782579544380,0.040000000000000001,0,1.01
829,1782579544463,0.040000000000000001,0.01,1.01
830,1782579544513,0.040000000000000001,0.01,1.01
831,1782579544580,0.040000000000000001,0.01,1.01
832,1782579544647,0.040000000000000001,0.01,1.01
833,1782579544680,0.040000000000000001,0,1.01
834,1782579544713,0.029999999999999999,0,1.01
835,1782579544780,0.029999999999999999,0,1.01
836,1782579544896,0.040000000000000001,0,1.02
837,1782579544929,0.040000000000000001,0,1.02
838,1782579544962,0.040000000000000001,0,1.02
839,1782579545062,0.040000000000000001,0,1.01
840,1782579545113,0.040000000000000001,0,1.01
841,1782579545162,0.040000000000000001,0.01,1.01
842,1782579545229,0.040000000000000001,0.01,1.01
843,1782579545279,0.040000000000000001,0,1.01
844,1782579545313,0.040000000000000001,0,1.01
845,1782579545412,0.040000000000000001,0,1.01
846,1782579545479,0.040000000000000001,0,1.01
847,1782579545512,0.040000000000000001,0,1.01
848,1782579545545,0.040000000000000001,0,1.01
849,1782579545562,0.040000000000000001,0,1.01
850,1782579545596,0.040000000000000001,0,1.01
851,1782579545612,0.040000000000000001,0,1.01
852,1782579545645,0.040000000000000001,0.01,1.01
853,1782579545712,0.040000000000000001,0.01,1.01
854,1782579545728,0.040000000000000001,0.01,1.01
855,1782579545778,0.040000000000000001,0.01,1.01
856,1782579545828,0.040000000000000001,0.01,1.01
857,1782579545878,0.040000000000000001,0.01,1.01
858,1782579545929,0.040000000000000001,0.01,1.01
859,1782579545995,0.040000000000000001,0,1.01
860,1782579546046,0.040000000000000001,0,1.01
861,1782579546095,0.040000000000000001,0,1.01
862,1782579546145,0.040000000000000001,0,1.01
863,1782579546195,0.040000000000000001,0,1.01
864,1782579546245,0.040000000000000001,0,1.01
865,1782579546328,0.040000000000000001,0,1.01
866,1782579546511,0.040000000000000001,0.01,1.01
867,1782579546545,0.040000000000000001,0,1.01
868,1782579546578,0.040000000000000001,0,1.01
869,1782579546729,0.040000000000000001,0,1.01
870,1782579546744,0.040000000000000001,0,1.01
871,1782579546828,0.040000000000000001,0,1.01
872,1782579546911,0.040000000000000001,0,1.01
873,1782579546978,0.040000000000000001,0,1.01
874,1782579547028,0.040000000000000001,0,1.02
875,1782579547079,0.040000000000000001,0,1.02
876,1782579547111,0.040000000000000001,0,1.01
877,1782579547178,0.040000000000000001,0,1.01
878,1782579547245,0.040000000000000001,0,1.01
879,1782579547278,0.040000000000000001,0,1.01
880,1782579547428,0.040000000000000001,0,1.01
881,1782579547527,0.040000000000000001,0,1.01
882,1782579547594,0.040000000000000001,0,1.01
883,1782579547694,0.040000000000000001,0,1.01
884,1782579547743,0.040000000000000001,0,1.01
885,1782579547777,0.040000000000000001,0,1.01
886,1782579547828,0.040000000000000001,0,1.01
887,1782579547877,0.040000000000000001,0,1.01
888,1782579547944,0.040000000000000001,0,1.01
889,1782579547977,0.040000000000000001,0,1.01
890,1782579548043,0.029999999999999999,0,1.01
891,1782579548077,0.02,-0,1.01
892,1782579548144,-0.01,-0,1.01
893,1782579548193,-0.02,-0,1.01
894,1782579548227,-0.02,-0,1
895,1782579548243,-0.040000000000000001,-0.01,1.01
896,1782579548294,0.01,-0.02,1.01
897,1782579548360,0.01,-0.01,1.01
898,1782579548394,-0,-0.01,1.02
899,1782579548410,-0,-0,1.03
900,1782579548510,-0,0,1.03
901,1782579548527,-0,0.01,1.03
902,1782579548560,-0,0.02,1.03
903,1782579548593,0.01,0,1.02
904,1782579548626,0.02,0,1.01
905,1782579548709,0.02,0.01,1.01
906,1782579548726,0.02,0.01,1
907,1782579548760,0.01,0.01,1
908,1782579548793,0.01,0,1.01
909,1782579548826,0.01,0,1.01
910,1782579548860,0.01,0.01,1.01
911,1782579548927,0.01,0.01,1.01
912,1782579548977,0.01,0.01,1.01
913,1782579549009,0.01,0.01,1.01
914,1782579549027,0.01,0.01,1.01
915,1782579549076,0.01,0.01,1.01
916,1782579549126,0,0.02,1
917,1782579549176,0.01,0.02,1.01
918,1782579549243,0.01,0.01,1.01
919,1782579549275,0.01,0,1.02
920,1782579549309,0.02,0,1.02
921,1782579549342,0.02,0,1.02
922,1782579549376,-0.02,-0,1.02
923,1782579549442,-0.029999999999999999,0,1.02
924,1782579549526,-0.029999999999999999,0.01,1.02
925,1782579549625,-0.029999999999999999,0.01,1.02
926,1782579549728,-0.01,-0.01,1.02
927,1782579549759,-0.01,-0.01,1.01
928,1782579549859,-0.01,0,1
929,1782579549909,-0.01,0.01,1.03
930,1782579549976,-0.01,0,1.03
931,1782579550009,-0.01,-0,1.03
932,1782579550059,-0.01,-0,1.03
933,1782579550125,-0.01,-0,1.01
934,1782579550175,-0.01,0.01,1.01
935,1782579550208,-0.01,0.01,1.01
936,1782579550275,-0.01,0.01,1.01
937,1782579550343,-0,0.01,1.02
938,1782579550425,-0,0.01,1.03
939,1782579550491,-0,0,1.02
940,1782579550542,-0,-0.02,1.01
941,1782579550591,-0,-0.02,1.01
942,1782579550658,-0.01,-0.01,1
943,1782579550692,-0.01,-0.01,1
944,1782579550741,0,-0.01,1.01
945,1782579550758,0,0,1
946,1782579550808,-0,0.01,1.01
947,1782579550925,-0,0.01,1.01
948,1782579550991,-0,0.01,1.01
949,1782579551041,-0,0.01,1.03
950,1782579551091,-0,0.01,1.02
951,1782579551141,-0.01,0.01,1.02
952,1782579551208,-0.01,0.01,1.02
953,1782579551241,-0.01,0.01,1.02
954,1782579551357,-0.02,0.01,1.03
955,1782579551374,-0.02,0.01,1.04
956,1782579551440,-0.02,0.01,1.04
957,1782579551474,-0.02,0.02,1.02
958,1782579551541,-0.02,0.02,1
959,1782579551557,-0,0.02,1.03
960,1782579551657,-0.01,0.02,1.03
961,1782579551673,-0.01,0.01,1.01
962,1782579551690,-0.01,0.01,1.01
963,1782579551740,-0.01,0.01,1.01
964,1782579551842,-0.02,0.029999999999999999,1.01
965,1782579551923,-0.02,0.02,1.01
966,1782579551990,-0.029999999999999999,0.029999999999999999,1.01
967,1782579552041,-0.029999999999999999,0.029999999999999999,0.98999999999999999
968,1782579552073,-0.029999999999999999,0.040000000000000001,1.01
969,1782579552124,-0.029999999999999999,0.050000000000000003,1.01
970,1782579552190,-0.029999999999999999,0.050000000000000003,1
971,1782579552256,-0.029999999999999999,0.050000000000000003,1
972,1782579552307,-0.029999999999999999,0.050000000000000003,1.01
973,1782579552390,-0.080000000000000002,0.040000000000000001,1.04
974,1782579552457,-0.070000000000000007,0.050000000000000003,1.04
975,1782579552523,-0.050000000000000003,0.040000000000000001,1.04
976,1782579552541,-0.050000000000000003,0.040000000000000001,1.04
977,1782579552607,-0.050000000000000003,0.040000000000000001,1.05
978,1782579552706,-0.070000000000000007,0.040000000000000001,1
979,1782579552773,-0.059999999999999998,0.050000000000000003,1
980,1782579552840,-0.059999999999999998,0.040000000000000001,1
981,1782579552874,-0.059999999999999998,0.040000000000000001,1
982,1782579552939,-0.070000000000000007,0.080000000000000002,1.0600000000000001
983,1782579553006,-0.070000000000000007,0.080000000000000002,1.0600000000000001
984,1782579553039,-0.070000000000000007,0.080000000000000002,1.0600000000000001
985,1782579553106,-0.059999999999999998,0.059999999999999998,1.0600000000000001
986,1782579553156,-0.059999999999999998,0.059999999999999998,1.0600000000000001
987,1782579553222,-0.059999999999999998,0.059999999999999998,1.01
988,1782579553322,-0.059999999999999998,0.059999999999999998,0.96999999999999997
989,1782579553356,-0.070000000000000007,0.059999999999999998,0.96999999999999997
990,1782579553489,-0.050000000000000003,0.12,0.98999999999999999
991,1782579553605,-0.040000000000000001,0.13,0.98999999999999999
992,1782579553639,-0.040000000000000001,0.13,1
993,1782579553705,-0.02,0.16,0.95999999999999996
994,1782579553722,-0.02,0.17999999999999999,0.95999999999999996
995,1782579553739,-0.02,0.20999999999999999,0.95999999999999996
996,1782579553789,-0.02,0.22,0.96999999999999997
997,1782579553905,-0.029999999999999999,0.22,1.01
998,1782579553972,-0.059999999999999998,0.16,0.94999999999999996
999,1782579554022,-0.11,0.17000000000000001,0.96999999999999997
1000,1782579554071,-0.11,0.17000000000000001,0.96999999999999997
1001,1782579554105,-0.11,0.17000000000000001,1.0700000000000001
1002,1782579554138,-0.080000000000000002,0.17000000000000001,1.0700000000000001
1003,1782579554205,-0.050000000000000003,0.17999999999999999,0.95999999999999996
1004,1782579554305,-0.050000000000000003,0.17999999999999999,0.98999999999999999
1005,1782579554355,-0.040000000000000001,0.17000000000000001,1.05
1006,1782579554422,-0.029999999999999999,0.16,1.0700000000000001
1007,1782579554455,-0.02,0.22,1.02
1008,1782579554571,0.01,0.23000000000000001,1.01
1009,1782579554638,0.01,0.23000000000000001,1.01
1010,1782579554721,0.02,0.19,0.93999999999999995
1011,1782579554788,0.02,0.20000000000000001,0.93000000000000005
1012,1782579554871,0.02,0.20999999999999999,0.92000000000000004
1013,1782579555005,-0,0.14000000000000001,0.98999999999999999
1014,1782579555021,-0,0.14999999999999999,0.97999999999999998
1015,1782579555071,-0.01,0.16,0.90000000000000002
1016,1782579555104,-0.01,0.16,0.97999999999999998
1017,1782579555171,-0.02,0.16,0.97999999999999998
1018,1782579555288,-0.02,0.16,0.90000000000000002
1019,1782579555321,-0.02,0.11,1.1000000000000001
1020,1782579555387,-0.02,0.10000000000000001,1.0600000000000001
1021,1782579555454,-0.040000000000000001,0.059999999999999998,1.0700000000000001
1022,1782579555487,-0.040000000000000001,0.050000000000000003,1.05
1023,1782579555537,-0.040000000000000001,0.050000000000000003,1.02
1024,1782579555588,-0.01,0.080000000000000002,0.93999999999999995
1025,1782579555654,0.01,0.080000000000000002,0.97999999999999998
1026,1782579555737,-0.38,1.0800000000000001,0.97999999999999998
1027,1782579555787,-0.01,0.059999999999999998,0.93999999999999995
1028,1782579555837,-0.029999999999999999,0.10000000000000001,0.85999999999999999
1029,1782579555904,-0.029999999999999999,0.10000000000000001,0.95999999999999996
1030,1782579555937,-0.029999999999999999,0.080000000000000002,1.04
1031,1782579556037,-0.029999999999999999,0.080000000000000002,1.0700000000000001
1032,1782579556120,-0.01,0.089999999999999997,1.01
1033,1782579556170,-0,0.040000000000000001,1.1100000000000001
1034,1782579556203,-0.01,0.029999999999999999,1.1100000000000001
1035,1782579556220,-0.01,0.02,1.1200000000000001
1036,1782579556237,-0.02,0.02,1.1100000000000001
1037,1782579556303,-0,0.02,1.0700000000000001
1038,1782579556370,-0.029999999999999999,0.17999999999999999,1.01
1039,1782579556453,-0.029999999999999999,0.17000000000000001,1.05
1040,1782579556537,-0.029999999999999999,0.11,1.1699999999999999
1041,1782579556570,-0.01,0.11,1.1699999999999999
1042,1782579556620,-0,0.13,1.03
1043,1782579556669,-0.029999999999999999,0.14000000000000001,1.03
1044,1782579556786,-0.029999999999999999,0.14000000000000001,1.03
1045,1782579556836,-0.02,0.17000000000000001,1
1046,1782579556852,-0.01,0.14999999999999999,0.98999999999999999
1047,1782579556919,-0.01,0.14000000000000001,0.98999999999999999
1048,1782579556969,-0.01,0.13,1.02
1049,1782579557119,-0,0.12,1
1050,1782579557185,0.01,0.12,1
1051,1782579557203,-0,0.12,1
1052,1782579557219,-0.01,0.12,1.05
1053,1782579557252,-0.01,0.11,1.05
1054,1782579557286,-0.050000000000000003,0.10000000000000001,1.05
1055,1782579557435,-0.080000000000000002,0.12,1.0600000000000001
1056,1782579557536,-0.080000000000000002,0.12,1
1057,1782579557585,-0.050000000000000003,0.11,1.0600000000000001
1058,1782579557618,-0.040000000000000001,0.12,1
1059,1782579557635,-0.02,0.12,0.95999999999999996
1060,1782579557652,-0.029999999999999999,0.14999999999999999,1.02
1061,1782579557685,-0.029999999999999999,0.14999999999999999,1.1000000000000001
1062,1782579557702,-0.029999999999999999,0.14999999999999999,1.1100000000000001
1063,1782579557735,-0.029999999999999999,0.14000000000000001,1.1100000000000001
1064,1782579557768,-0.029999999999999999,0.10000000000000001,1.1399999999999999
1065,1782579557785,-0.040000000000000001,0.089999999999999997,1.1399999999999999
1066,1782579557835,-0.040000000000000001,0.089999999999999997,1.1100000000000001
1067,1782579557902,0.01,0.089999999999999997,1.1100000000000001
1068,1782579557935,0.01,0.10000000000000001,1
1069,1782579557985,0,0.17000000000000001,0.93999999999999995
1070,1782579558035,-0,0.14000000000000001,0.98999999999999999
1071,1782579558085,0,0.12,0.98999999999999999
1072,1782579558151,-0,0.12,1.01
1073,1782579558219,-0.050000000000000003,0.13,1
1074,1782579558319,-0.059999999999999998,0.12,1.03
1075,1782579558351,-0.050000000000000003,0.089999999999999997,1.03
1076,1782579558384,-0.050000000000000003,0.080000000000000002,1.03
1077,1782579558401,-0.050000000000000003,0.080000000000000002,1.03
1078,1782579558468,-0.050000000000000003,0.059999999999999998,1.03
1079,1782579558518,-0.029999999999999999,0.11,0.97999999999999998
1080,1782579558584,-0.02,0.10000000000000001,0.97999999999999998
1081,1782579558684,-0,0.10000000000000001,0.98999999999999999
1082,1782579558767,0.01,-0.050000000000000003,1.02
1083,1782579558818,0.02,-0.050000000000000003,1.0800000000000001
1084,1782579558868,0.01,-0.050000000000000003,1.0800000000000001
1085,1782579558985,0.02,-0.01,1
1086,1782579559017,0.10000000000000001,0.02,1.0700000000000001
1087,1782579559067,0.10000000000000001,0.02,1.03
1088,1782579559140,0.080000000000000002,0.050000000000000003,1.01
1089,1782579559201,0.059999999999999998,0.059999999999999998,1.01
1090,1782579559301,0,0.17999999999999999,0.88
1091,1782579559318,-0,0.19,0.92000000000000004
1092,1782579559334,-0.029999999999999999,0.19,0.97999999999999998
1093,1782579559384,-0.080000000000000002,0.20000000000000001,0.97999999999999998
1094,1782579559467,-0.080000000000000002,0.20000000000000001,0.97999999999999998
1095,1782579559484,-0.050000000000000003,0.17999999999999999,0.88
1096,1782579559550,-0.080000000000000002,0.19,0.93000000000000005
1097,1782579559584,-0.080000000000000002,0.19,0.96999999999999997
1098,1782579559650,-0.080000000000000002,0.19,1.1000000000000001
1099,1782579559684,-0.080000000000000002,0.17999999999999999,1.1100000000000001
1100,1782579559717,-0.059999999999999998,0.17999999999999999,1.1499999999999999
1101,1782579559767,-0.059999999999999998,0.059999999999999998,1.04
1102,1782579559817,-0.050000000000000003,0.040000000000000001,1.05
1103,1782579559884,-0.029999999999999999,0.040000000000000001,1.05
1104,1782579559967,-0.029999999999999999,0.040000000000000001,1.05
1105,1782579560017,0.01,0.050000000000000003,1.04
1106,1782579560067,-0.029999999999999999,0.040000000000000001,1.02
1107,1782579560133,0,0.040000000000000001,1.0600000000000001
1108,1782579560166,-0,0.059999999999999998,1.0600000000000001
1109,1782579560200,-0.02,0.10000000000000001,0.94999999999999996
1110,1782579560217,-0.02,0.12,1.0600000000000001
1111,1782579560233,-0.01,0.12,0.94999999999999996
1112,1782579560266,-0.01,0.14999999999999999,0.94999999999999996
1113,1782579560299,-0.01,0.14999999999999999,1.0600000000000001
1114,1782579560350,-0.01,0.12,1.0600000000000001
1115,1782579560366,0.02,0.050000000000000003,0.94999999999999996
1116,1782579560384,0.029999999999999999,0.050000000000000003,0.94999999999999996
1117,1782579560483,0.029999999999999999,0.029999999999999999,1.02
1118,1782579560550,0.01,0.029999999999999999,1.05
1119,1782579560583,0,0.029999999999999999,1.05
1120,1782579560633,-0.050000000000000003,0.080000000000000002,0.98999999999999999
1121,1782579560683,-0.040000000000000001,0.080000000000000002,0.98999999999999999
1122,1782579560749,-0.040000000000000001,0.070000000000000007,0.98999999999999999
1123,1782579560782,-0.040000000000000001,0.070000000000000007,1
1124,1782579560849,-0.040000000000000001,0.070000000000000007,0.98999999999999999
1125,1782579560916,-0.070000000000000007,-0,1.0800000000000001
1126,1782579560966,-0.059999999999999998,-0,1.1000000000000001
1127,1782579561066,-0.059999999999999998,0.02,1.1000000000000001
1128,1782579561100,-0.040000000000000001,0.02,1.0600000000000001
1129,1782579561166,0.040000000000000001,0.01,0.98999999999999999
1130,1782579561216,0.029999999999999999,0.01,0.94999999999999996
1131,1782579561300,0.029999999999999999,0.01,0.94999999999999996
1132,1782579561332,0,0.01,0.94999999999999996
1133,1782579561399,0.070000000000000007,-0.029999999999999999,1.24
1134,1782579561482,0.070000000000000007,-0.050000000000000003,1.24
1135,1782579561550,0.070000000000000007,-0.050000000000000003,1.1499999999999999
1136,1782579561615,0.040000000000000001,-0.050000000000000003,1.1200000000000001
1137,1782579561632,0.029999999999999999,-0.080000000000000002,1.1100000000000001
1138,1782579561649,0.029999999999999999,-0.080000000000000002,1.0800000000000001
1139,1782579561683,0.029999999999999999,-0.070000000000000007,1.0800000000000001
1140,1782579561699,0.050000000000000003,0.040000000000000001,1.0800000000000001
1141,1782579561716,0.050000000000000003,0.040000000000000001,1.0800000000000001
1142,1782579561782,0.050000000000000003,0.040000000000000001,1.0800000000000001
1143,1782579561865,0.070000000000000007,0.050000000000000003,1.0800000000000001
1144,1782579561883,0.080000000000000002,0.01,0.92000000000000004
1145,1782579561915,0.080000000000000002,0.01,0.89000000000000001
1146,1782579561982,0.050000000000000003,0,0.94999999999999996
1147,1782579562048,0.050000000000000003,-0.040000000000000001,0.94999999999999996
1148,1782579562065,0.050000000000000003,-0.040000000000000001,0.97999999999999998
1149,1782579562115,0.050000000000000003,-0.040000000000000001,1.03
1150,1782579562215,0.040000000000000001,-0.01,1.01
1151,1782579562281,0.040000000000000001,-0.01,1.0600000000000001
1152,1782579562348,0.050000000000000003,0.040000000000000001,1.0600000000000001
1153,1782579562414,0.050000000000000003,-0,1.0600000000000001
1154,1782579562431,0.080000000000000002,-0,1.1000000000000001
1155,1782579562448,0.11,0.02,1
1156,1782579562515,0.12,0.02,1
1157,1782579562548,0.13,0.029999999999999999,0.98999999999999999
1158,1782579562597,0.13,0.040000000000000001,0.98999999999999999
1159,1782579562631,0.12,0.040000000000000001,1.02
1160,1782579562665,0.12,0.050000000000000003,0.98999999999999999
1161,1782579562682,0.12,0.050000000000000003,0.98999999999999999
1162,1782579562714,0.11,0.040000000000000001,1.02
1163,1782579562732,0.089999999999999997,0.040000000000000001,0.98999999999999999
1164,1782579562764,0.059999999999999998,0.14999999999999999,1.0800000000000001
1165,1782579562865,0.02,0.14999999999999999,1.0800000000000001
1166,1782579562881,0.02,0.16,1.0600000000000001
1167,1782579562948,0.02,0.17000000000000001,1
1168,1782579562999,0.029999999999999999,0.17000000000000001,1
1169,1782579563031,0.059999999999999998,0.050000000000000003,1.0600000000000001
1170,1782579563114,0.070000000000000007,0.050000000000000003,1.0600000000000001
1171,1782579563181,0.080000000000000002,0.050000000000000003,1.0600000000000001
1172,1782579563214,0.10000000000000001,0.040000000000000001,0.98999999999999999
1173,1782579563364,0.070000000000000007,0.089999999999999997,1.0800000000000001
1174,1782579563415,0.070000000000000007,0.089999999999999997,1.1100000000000001
1175,1782579563480,0.080000000000000002,0.089999999999999997,1.1100000000000001
1176,1782579563498,0.080000000000000002,0.13,1.03
1177,1782579563564,0.080000000000000002,0.13,1.03
1178,1782579563598,0.040000000000000001,0.14000000000000001,1.04
1179,1782579563680,0.029999999999999999,0.14000000000000001,1.03
1180,1782579563764,0.10000000000000001,0.20000000000000001,0.94999999999999996
1181,1782579563864,0.070000000000000007,0.20000000000000001,0.96999999999999997
1182,1782579563897,0.050000000000000003,0.19,0.96999999999999997
1183,1782579563931,0.040000000000000001,0.19,0.96999999999999997
1184,1782579563948,0.040000000000000001,0.17999999999999999,0.97999999999999998
1185,1782579563998,0.040000000000000001,0.19,0.98999999999999999
1186,1782579564114,0,0.14000000000000001,0.98999999999999999
1187,1782579564197,0,0.14000000000000001,1.02
1188,1782579564213,0,0.14000000000000001,1.02
1189,1782579564281,0,0.26000000000000001,0.95999999999999996
1190,1782579564347,0.01,0.26000000000000001,0.95999999999999996
1191,1782579564480,0.01,0.23999999999999999,1.01
1192,1782579564513,0.01,0.20000000000000001,1.04
1193,1782579564546,0.01,0.20999999999999999,1.0900000000000001
1194,1782579564630,0.01,0.17000000000000001,1.0900000000000001
1195,1782579564730,0.01,0.17000000000000001,1.0900000000000001
1196,1782579564796,0.02,0.19,0.91000000000000003
1197,1782579564812,0.02,0.19,1.0600000000000001
1198,1782579564846,0.02,0.16,1.1100000000000001
1199,1782579564863,0.02,0.16,1.1399999999999999
1200,1782579564929,-0,0.16,1.1399999999999999
1201,1782579564962,-0,0.20000000000000001,1.1399999999999999
1202,1782579565013,0.01,0.22,1.1299999999999999
1203,1782579565063,0,0.22,1.1299999999999999
1204,1782579565180,0.059999999999999998,0.14999999999999999,0.95999999999999996
1205,1782579565279,0.059999999999999998,0.17000000000000001,0.95999999999999996
1206,1782579565379,0.040000000000000001,0.23999999999999999,0.98999999999999999
1207,1782579565413,0.040000000000000001,0.23999999999999999,0.90000000000000002
1208,1782579565479,0.01,0.25,0.90000000000000002
1209,1782579565512,-0.01,0.25,0.88
1210,1782579565580,-0.01,0.23999999999999999,0.88
1211,1782579565613,-0.01,0.28999999999999998,0.91000000000000003
1212,1782579565630,0.01,0.28999999999999998,0.91000000000000003
1213,1782579565728,-0.01,0.28000000000000003,0.93000000000000005
1214,1782579565746,-0.02,0.25,1
1215,1782579565795,-0.02,0.22,1.03
1216,1782579565812,0.01,0.22,1.03
1217,1782579565879,-0.01,0.23999999999999999,1.02
1218,1782579565929,-0.01,0.20000000000000001,1.05
1219,1782579565996,-0.01,0.19,1.0600000000000001
1220,1782579566045,-0.01,0.19,1.05
1221,1782579566095,-0.01,0.19,1.05
1222,1782579566128,-0,0.20999999999999999,1.03
1223,1782579566145,0.040000000000000001,0.26000000000000001,1.01
1224,1782579566196,0.050000000000000003,0.26000000000000001,1.01
1225,1782579566311,0.059999999999999998,0.26000000000000001,1.05
1226,1782579566362,0.059999999999999998,0.23000000000000001,1.05
1227,1782579566412,0,0.29999999999999999,1.03
1228,1782579566494,0.01,0.25,1.0900000000000001
1229,1782579566545,0.01,0.25,1.0900000000000001
1230,1782579566611,0.01,0.25,1.0900000000000001
1231,1782579566744,0.02,0.23999999999999999,0.97999999999999998
1232,1782579566811,-0,0.23999999999999999,0.93000000000000005
1233,1782579566877,-0.01,0.32000000000000001,0.93000000000000005
1234,1782579566895,0.080000000000000002,0.23000000000000001,0.94999999999999996
1235,1782579566927,0.080000000000000002,0.33000000000000002,0.92000000000000004
1236,1782579566944,0.080000000000000002,0.39000000000000001,0.94999999999999996
1237,1782579566977,0.059999999999999998,0.39000000000000001,0.94999999999999996
1238,1782579566995,0.059999999999999998,0.39000000000000001,1.0600000000000001
1239,1782579567094,0.050000000000000003,0.39000000000000001,1.0900000000000001
1240,1782579567212,-0.01,0.23000000000000001,0.92000000000000004
1241,1782579567245,-0.01,0.20000000000000001,0.95999999999999996
1242,1782579567261,-0.01,0.20000000000000001,1.0800000000000001
1243,1782579567295,-0.02,0.20000000000000001,1.1000000000000001
1244,1782579567311,-0.02,0.20000000000000001,1.1299999999999999
1245,1782579567328,-0.040000000000000001,0.20999999999999999,1.1000000000000001
1246,1782579567394,-0.050000000000000003,0.20999999999999999,1.1000000000000001
1247,1782579567444,-0.050000000000000003,0.16,1.1000000000000001
1248,1782579567527,-0.050000000000000003,0.16,1.1699999999999999
1249,1782579567578,0.040000000000000001,0.20999999999999999,1.1200000000000001
1250,1782579567660,0.040000000000000001,0.20999999999999999,1.1100000000000001
1251,1782579567777,0.059999999999999998,0.22,1.0800000000000001
1252,1782579567810,0.059999999999999998,0.22,1.0800000000000001
1253,1782579567843,0.02,0.22,0.95999999999999996
1254,1782579567894,0.02,0.25,0.91000000000000003
1255,1782579567976,0.01,0.26000000000000001,0.91000000000000003
1256,1782579568043,0.01,0.28999999999999998,1.1200000000000001
1257,1782579568043,0.01,0.28000000000000003,1.0900000000000001
1258,1782579568076,-0,0.27000000000000002,1.1499999999999999
1259,1782579568093,-0,0.27000000000000002,1.1499999999999999
1260,1782579568160,-0,0.25,1.1299999999999999
1261,1782579568210,-0,0.25,1.0600000000000001
1262,1782579568293,0,0.28000000000000003,0.98999999999999999
1263,1782579568376,0.01,0.28000000000000003,1.03
1264,1782579568409,0.02,0.28999999999999998,1.0800000000000001
1265,1782579568426,0.029999999999999999,0.28999999999999998,1.0800000000000001
1266,1782579568460,0.029999999999999999,0.28999999999999998,1.0800000000000001
1267,1782579568493,0.02,0.31,0.98999999999999999
1268,1782579568560,0.070000000000000007,0.20999999999999999,1.03
1269,1782579568659,0.10000000000000001,0.14999999999999999,0.94999999999999996
1270,1782579568726,0.10000000000000001,0.14999999999999999,0.94999999999999996
1271,1782579568793,0.070000000000000007,0.14999999999999999,0.90000000000000002
1272,1782579568810,0.02,0.25,0.89000000000000001
1273,1782579568860,0.02,0.26000000000000001,0.89000000000000001
1274,1782579568909,0.01,0.26000000000000001,0.95999999999999996
1275,1782579569042,0,0.26000000000000001,1
1276,1782579569076,0,0.26000000000000001,1.03
1277,1782579569159,-0.080000000000000002,0.28000000000000003,1.03
1278,1782579569309,-0.070000000000000007,0.27000000000000002,1.03
1279,1782579569325,-0.02,0.23999999999999999,0.98999999999999999
1280,1782579569342,-0.01,0.19,1.1299999999999999
1281,1782579569375,-0.01,0.19,1.1299999999999999
1282,1782579569409,0,0.19,1.1299999999999999
1283,1782579569443,0.029999999999999999,0.23000000000000001,1
1284,1782579569559,0.029999999999999999,0.25,0.94999999999999996
1285,1782579569659,0.040000000000000001,0.23999999999999999,0.91000000000000003
1286,1782579569725,0.01,0.25,1
1287,1782579569759,-0,0.23999999999999999,1
1288,1782579569825,-0.01,0.25,1.04
1289,1782579569875,-0.01,0.26000000000000001,1.2
1290,1782579569925,-0.02,0.25,1.2
1291,1782579570025,0.070000000000000007,0.22,1.1799999999999999
1292,1782579570092,0.070000000000000007,0.22,1.0900000000000001
1293,1782579570141,0.050000000000000003,0.26000000000000001,1.03
1294,1782579570209,0.029999999999999999,0.26000000000000001,0.95999999999999996
1295,1782579570325,0.02,0.17000000000000001,1.04
1296,1782579570408,0.02,0.17000000000000001,1.01
1297,1782579570476,-0.01,0.17000000000000001,1.01
1298,1782579570508,0.040000000000000001,0.28999999999999998,0.97999999999999998
1299,1782579570542,0.040000000000000001,0.26000000000000001,0.97999999999999998
1300,1782579570608,0.059999999999999998,0.23999999999999999,1
1301,1782579570741,0.059999999999999998,0.17999999999999999,1
1302,1782579570758,0.059999999999999998,0.23000000000000001,1.05
1303,1782579570792,0.040000000000000001,0.23999999999999999,1.03
1304,1782579570858,0.029999999999999999,0.28000000000000003,1.03
1305,1782579570924,0.029999999999999999,0.34999999999999998,0.96999999999999997
1306,1782579571024,0.02,0.20000000000000001,0.87
1307,1782579571057,0.01,0.20000000000000001,0.87
1308,1782579571091,-0.029999999999999999,0.22,0.87
1309,1782579571108,-0.040000000000000001,0.23999999999999999,0.87
1310,1782579571124,-0.050000000000000003,0.27000000000000002,0.87
1311,1782579571158,-0.050000000000000003,0.27000000000000002,0.87
1312,1782579571208,-0.050000000000000003,0.27000000000000002,0.87
1313,1782579571290,0,0.17999999999999999,1.0700000000000001
1314,1782579571357,0.029999999999999999,0.17999999999999999,0.93999999999999995
1315,1782579571424,0.029999999999999999,0.19,0.87
1316,1782579571440,0.029999999999999999,0.23999999999999999,0.81999999999999995
1317,1782579571474,0.029999999999999999,0.23999999999999999,0.81999999999999995
1318,1782579571490,0.02,0.23999999999999999,0.81999999999999995
1319,1782579571541,-0,0.17999999999999999,0.94999999999999996
1320,1782579571575,-0.02,0.27000000000000002,1.03
1321,1782579571657,-0.02,0.27000000000000002,1.1100000000000001
1322,1782579571707,-0,0.23999999999999999,1.3899999999999999
1323,1782579571757,0.050000000000000003,0.19,1.3899999999999999
1324,1782579571840,0.059999999999999998,0.28999999999999998,1.1499999999999999
1325,1782579571957,0.080000000000000002,0.28999999999999998,1.1000000000000001
1326,1782579572007,0.080000000000000002,0.28000000000000003,1.0700000000000001
1327,1782579572057,0.089999999999999997,0.27000000000000002,1.04
1328,1782579572090,0.059999999999999998,0.19,1.01
1329,1782579572140,0.050000000000000003,0.19,1.01
1330,1782579572190,0.029999999999999999,0.19,1.01
1331,1782579572274,0.029999999999999999,0.20999999999999999,1
1332,1782579572323,0.029999999999999999,0.22,1
1333,1782579572357,0.029999999999999999,0.22,1
1334,1782579572390,0.029999999999999999,0.22,1.02
1335,1782579572406,0.059999999999999998,0.17999999999999999,1.02
1336,1782579572423,0.070000000000000007,0.13,0.88
1337,1782579572473,0.070000000000000007,0.13,0.91000000000000003
1338,1782579572507,0.059999999999999998,0.14999999999999999,0.91000000000000003
1339,1782579572523,0.059999999999999998,0.16,0.91000000000000003
1340,1782579572540,0.050000000000000003,0.16,0.98999999999999999
1341,1782579572573,0.040000000000000001,0.16,0.98999999999999999
1342,1782579572640,0.01,0.16,1.0900000000000001
1343,1782579572806,-0.050000000000000003,0.19,1.1000000000000001
1344,1782579572856,-0.050000000000000003,0.17000000000000001,1.1399999999999999
1345,1782579572873,-0.050000000000000003,0.17000000000000001,1.1399999999999999
1346,1782579572922,0.040000000000000001,0.14999999999999999,1.1799999999999999
1347,1782579573056,0.029999999999999999,0.17000000000000001,1
1348,1782579573089,0.029999999999999999,0.14999999999999999,1.05
1349,1782579573156,0.029999999999999999,0.14000000000000001,1.1299999999999999
1350,1782579573190,0.02,0.14000000000000001,1.1299999999999999
1351,1782579573222,0.029999999999999999,0.089999999999999997,1.1200000000000001
1352,1782579573322,0.040000000000000001,0.089999999999999997,1.03
1353,1782579573406,0.040000000000000001,0.089999999999999997,1.03
1354,1782579573472,0.040000000000000001,0.089999999999999997,0.94999999999999996
1355,1782579573506,0.070000000000000007,0.17000000000000001,1.01
1356,1782579573556,0.070000000000000007,0.13,1.04
1357,1782579573622,0.070000000000000007,0.12,1.04
1358,1782579573788,-0.01,0.14000000000000001,0.91000000000000003
1359,1782579573855,-0.029999999999999999,0.13,0.97999999999999998
1360,1782579573888,-0.029999999999999999,0.12,0.97999999999999998
1361,1782579573939,-0.040000000000000001,0.11,0.97999999999999998
1362,1782579573972,0.040000000000000001,0.12,1.0600000000000001
1363,1782579574105,0.040000000000000001,0.11,1.05
1364,1782579574138,0.050000000000000003,0.10000000000000001,1.03
1365,1782579574155,0.059999999999999998,0.059999999999999998,1.01
1366,1782579574172,0.080000000000000002,0.059999999999999998,0.92000000000000004
1367,1782579574288,-0.02,0.080000000000000002,0.90000000000000002
1368,1782579574371,-0.029999999999999999,0.10000000000000001,0.90000000000000002
1369,1782579574454,-0.040000000000000001,0.10000000000000001,0.91000000000000003
1370,1782579574488,-0.040000000000000001,0.10000000000000001,0.94999999999999996
1371,1782579574521,-0.040000000000000001,0.10000000000000001,1.0600000000000001
1372,1782579574554,-0,0.089999999999999997,1.02
1373,1782579574621,-0,0.089999999999999997,1.0900000000000001
1374,1782579574704,-0.01,0.080000000000000002,1.0900000000000001
1375,1782579574738,-0.01,0.080000000000000002,1.0900000000000001
1376,1782579574754,-0.01,0.080000000000000002,1.0900000000000001
1377,1782579574788,-0.029999999999999999,0.080000000000000002,0.98999999999999999
1378,1782579574805,-0.029999999999999999,0.059999999999999998,0.98999999999999999
1379,1782579574821,0,0.080000000000000002,0.94999999999999996
1380,1782579574854,-0.02,0.02,1.0900000000000001
1381,1782579574938,0.01,0.02,1.0900000000000001
1382,1782579574954,0.02,0.02,1.02
1383,1782579574988,0.040000000000000001,0.02,1.02
1384,1782579575005,0.040000000000000001,0.02,1.01
1385,1782579575038,0.040000000000000001,0.02,0.96999999999999997
1386,1782579575087,0.02,0.02,0.96999999999999997
1387,1782579575121,0.040000000000000001,0.01,1.01
1388,1782579575171,0.029999999999999999,0.01,1
1389,1782579575371,-0.01,0.01,1.02
1390,1782579575437,-0.01,0.02,1.02
1391,1782579575521,0.01,0.029999999999999999,1.01
1392,1782579575587,-0.01,0.029999999999999999,1.01
1393,1782579575654,0.050000000000000003,-0,0.90000000000000002
1394,1782579575687,0.050000000000000003,-0,0.90000000000000002
1395,1782579575754,0.050000000000000003,0.01,0.90000000000000002
1396,1782579575820,0.029999999999999999,0.040000000000000001,0.90000000000000002
1397,1782579575920,-0.02,0.029999999999999999,0.94999999999999996
1398,1782579575987,-0.029999999999999999,-0.029999999999999999,1.0600000000000001
1399,1782579576054,-0.029999999999999999,-0.040000000000000001,1.1299999999999999
1400,1782579576103,-0.029999999999999999,-0.050000000000000003,1.1299999999999999
1401,1782579576203,0,-0.17000000000000001,0.94999999999999996
1402,1782579576253,0,-0.17000000000000001,0.93999999999999995
1403,1782579576270,0.01,-0.16,0.93000000000000005
1404,1782579576336,0.02,-0.14000000000000001,0.93000000000000005
1405,1782579576370,0.02,-0.16,0.93000000000000005
1406,1782579576403,0.080000000000000002,-0.17000000000000001,1.04
1407,1782579576453,0.080000000000000002,-0.17000000000000001,1.04
1408,1782579576486,0.080000000000000002,-0.16,1.02
1409,1782579576536,0.080000000000000002,-0.14999999999999999,1.02
1410,1782579576603,0.040000000000000001,-0.14000000000000001,1.02
1411,1782579576636,0.040000000000000001,-0.14000000000000001,1.02
1412,1782579576653,0.01,-0.17999999999999999,1.03
1413,1782579576686,0.01,-0.17999999999999999,1.03
1414,1782579576736,0.01,-0.19,1.04
1415,1782579576836,0.029999999999999999,-0.19,1.04
1416,1782579576919,0.029999999999999999,-0.22,1.04
1417,1782579576986,0.050000000000000003,-0.16,0.92000000000000004
1418,1782579577036,0.029999999999999999,-0.14999999999999999,0.91000000000000003
1419,1782579577102,0.029999999999999999,-0.14000000000000001,0.89000000000000001
1420,1782579577135,0.029999999999999999,-0.14000000000000001,0.89000000000000001
1421,1782579577186,0.029999999999999999,-0.14000000000000001,0.91000000000000003
1422,1782579577219,0.040000000000000001,-0.14000000000000001,0.96999999999999997
1423,1782579577236,0.040000000000000001,-0.14000000000000001,0.97999999999999998
1424,1782579577336,0.080000000000000002,-0.19,1.0600000000000001
1425,1782579577369,0.080000000000000002,-0.17999999999999999,1.02
1426,1782579577435,0.10000000000000001,-0.17999999999999999,1.0600000000000001
1427,1782579577469,0.10000000000000001,-0.17999999999999999,1.02
1428,1782579577485,0.10000000000000001,-0.17000000000000001,1.02
1429,1782579577535,0.070000000000000007,-0.19,0.96999999999999997
1430,1782579577635,0.059999999999999998,-0.20000000000000001,0.96999999999999997
1431,1782579577685,0.040000000000000001,-0.20000000000000001,0.95999999999999996
1432,1782579577735,0.029999999999999999,-0.20000000000000001,0.95999999999999996
1433,1782579577802,0.070000000000000007,-0.089999999999999997,0.98999999999999999
1434,1782579577868,0.040000000000000001,-0.089999999999999997,0.98999999999999999
1435,1782579577918,0.040000000000000001,-0.089999999999999997,0.98999999999999999
1436,1782579577952,0.040000000000000001,-0.089999999999999997,0.97999999999999998
1437,1782579578019,0.040000000000000001,-0.11,0.98999999999999999
1438,1782579578119,0.059999999999999998,-0.26000000000000001,1.1899999999999999
1439,1782579578186,0.059999999999999998,-0.27000000000000002,1.1899999999999999
1440,1782579578235,0.050000000000000003,-0.27000000000000002,1.1899999999999999
1441,1782579578268,0.059999999999999998,-0.14999999999999999,1.1100000000000001
1442,1782579578302,0.050000000000000003,-0.14999999999999999,1.04
1443,1782579578318,0.040000000000000001,-0.12,1.04
1444,1782579578385,0.040000000000000001,-0.12,0.98999999999999999
1445,1782579578501,0.01,-0.12,0.98999999999999999
1446,1782579578518,0.089999999999999997,-0.19,0.91000000000000003
1447,1782579578585,0.059999999999999998,-0.17000000000000001,0.89000000000000001
1448,1782579578601,0.059999999999999998,-0.17000000000000001,0.89000000000000001
1449,1782579578634,0.059999999999999998,-0.17000000000000001,0.91000000000000003
1450,1782579578651,0.050000000000000003,-0.20999999999999999,0.98999999999999999
1451,1782579578701,0.059999999999999998,-0.26000000000000001,1.05
1452,1782579578818,-0.02,-0.080000000000000002,0.80000000000000004
1453,1782579578901,-0.029999999999999999,-0.080000000000000002,0.87
1454,1782579578951,-0.050000000000000003,-0.089999999999999997,0.96999999999999997
1455,1782579579001,-0.050000000000000003,-0.17000000000000001,1.01
1456,1782579579017,-0.029999999999999999,-0.23999999999999999,1.2
1457,1782579579034,-0.029999999999999999,-0.26000000000000001,1.23
1458,1782579579101,0.02,-0.29999999999999999,1.1499999999999999
1459,1782579579184,0.029999999999999999,-0.28000000000000003,1.1100000000000001
1460,1782579579251,0.029999999999999999,-0.28000000000000003,1.1100000000000001
1461,1782579579317,0.029999999999999999,-0.26000000000000001,1.0700000000000001
1462,1782579579350,0.070000000000000007,-0.14999999999999999,1.1399999999999999
1463,1782579579417,0.089999999999999997,-0.16,1.1299999999999999
1464,1782579579450,0.089999999999999997,-0.17000000000000001,1.1000000000000001
1465,1782579579500,0.089999999999999997,-0.17999999999999999,1.0900000000000001
1466,1782579579550,0.089999999999999997,-0.23999999999999999,1.03
1467,1782579579584,0.080000000000000002,-0.25,1.01
1468,1782579579617,0.080000000000000002,-0.25,1.03
1469,1782579579650,0.080000000000000002,-0.25,1.05
1470,1782579579701,0.029999999999999999,-0.19,1.05
1471,1782579579767,0.040000000000000001,-0.19,1.04
1472,1782579579817,0.050000000000000003,-0.20000000000000001,0.94999999999999996
1473,1782579579867,0.040000000000000001,-0.20999999999999999,0.94999999999999996
1474,1782579579900,0.059999999999999998,-0.22,0.93999999999999995
1475,1782579579934,0.050000000000000003,-0.19,0.93000000000000005
1476,1782579579967,0.050000000000000003,-0.19,0.95999999999999996
1477,1782579580033,0.050000000000000003,-0.20000000000000001,0.95999999999999996
1478,1782579580100,0.050000000000000003,-0.20999999999999999,0.98999999999999999
1479,1782579580166,0.050000000000000003,-0.25,1.0700000000000001
1480,1782579580233,0.050000000000000003,-0.12,0.93000000000000005
1481,1782579580266,0.059999999999999998,-0.14999999999999999,0.95999999999999996
1482,1782579580317,0.070000000000000007,-0.17000000000000001,1.04
1483,1782579580383,0.080000000000000002,-0.17000000000000001,0.95999999999999996
1484,1782579580466,0.02,-0.17999999999999999,1
1485,1782579580483,0.02,-0.12,1.02
1486,1782579580550,0.01,-0.12,1.02
1487,1782579580633,0.01,-0.12,1.02
1488,1782579580700,0.01,-0.16,1.0800000000000001
1489,1782579580717,0.040000000000000001,-0.11,0.93999999999999995
1490,1782579580849,0.070000000000000007,-0.14999999999999999,1.01
1491,1782579580899,0.070000000000000007,-0.14999999999999999,1.03
1492,1782579580967,0.029999999999999999,-0.17000000000000001,1
1493,1782579581000,0.02,-0.20000000000000001,1.05
1494,1782579581032,0.02,-0.20000000000000001,1.05
1495,1782579581049,0.02,-0.22,1.05
1496,1782579581066,0.02,-0.22,1.0600000000000001
1497,1782579581150,0.02,-0.20000000000000001,1.05
1498,1782579581249,0.070000000000000007,-0.19,1.03
1499,1782579581299,0.070000000000000007,-0.17999999999999999,0.93000000000000005
1500,1782579581349,0.070000000000000007,-0.17999999999999999,0.93000000000000005
1501,1782579581382,0.029999999999999999,-0.17999999999999999,0.90000000000000002
1502,1782579581415,0.029999999999999999,-0.17999999999999999,0.85999999999999999
1503,1782579581432,0.029999999999999999,-0.17000000000000001,0.84999999999999998
1504,1782579581549,0.040000000000000001,-0.23999999999999999,1.0700000000000001
1505,1782579581582,0.26000000000000001,-0.19,1.2
1506,1782579581648,0.040000000000000001,-0.17999999999999999,1.01
1507,1782579581732,0.040000000000000001,-0.17999999999999999,1.01
1508,1782579581748,0.029999999999999999,-0.17999999999999999,1.0800000000000001
1509,1782579581815,0.029999999999999999,-0.17999999999999999,1.0900000000000001
1510,1782579581882,0.040000000000000001,-0.17999999999999999,1.1200000000000001
1511,1782579581932,0.050000000000000003,-0.19,1.1200000000000001
1512,1782579581982,0.050000000000000003,-0.19,1.1200000000000001
1513,1782579581998,0.050000000000000003,-0.19,1.1200000000000001
1514,1782579582015,0.050000000000000003,-0.19,1.0900000000000001
1515,1782579582048,0.070000000000000007,-0.17999999999999999,1.0700000000000001
1516,1782579582065,0.070000000000000007,-0.17000000000000001,1.03
1517,1782579582115,0.059999999999999998,-0.22,1.02
1518,1782579582132,0.040000000000000001,-0.19,0.96999999999999997
1519,1782579582232,0.02,-0.17999999999999999,0.96999999999999997
1520,1782579582281,0.02,-0.16,1.04
1521,1782579582298,0.02,-0.16,1.02
1522,1782579582365,0.02,-0.14000000000000001,1.0800000000000001
1523,1782579582431,0.02,-0.14000000000000001,1.0800000000000001
1524,1782579582482,0,-0.20000000000000001,1.1599999999999999
1525,1782579582514,0,-0.23000000000000001,1.0800000000000001
1526,1782579582631,0.070000000000000007,-0.32000000000000001,1.0900000000000001
1527,1782579582698,0.070000000000000007,-0.28999999999999998,1
1528,1782579582748,0.070000000000000007,-0.23999999999999999,1
1529,1782579582781,0.070000000000000007,-0.16,0.93999999999999995
1530,1782579582881,0.029999999999999999,-0.27000000000000002,1.02
1531,1782579582931,0.029999999999999999,-0.27000000000000002,0.93999999999999995
1532,1782579582981,0.029999999999999999,-0.26000000000000001,0.93999999999999995
1533,1782579583081,0.059999999999999998,-0.23000000000000001,0.93999999999999995
1534,1782579583131,0,-0.17999999999999999,1.04
1535,1782579583164,0.02,-0.17999999999999999,1.04
1536,1782579583298,0.040000000000000001,-0.17999999999999999,1.04
1537,1782579583331,0.050000000000000003,-0.17999999999999999,1.03
1538,1782579583364,0.070000000000000007,-0.31,1.0600000000000001
1539,1782579583381,0.089999999999999997,-0.23000000000000001,1.05
1540,1782579583398,0.089999999999999997,-0.20999999999999999,0.95999999999999996
1541,1782579583430,0.089999999999999997,-0.17000000000000001,0.95999999999999996
1542,1782579583497,0.029999999999999999,-0.17000000000000001,0.95999999999999996
1543,1782579583597,0.029999999999999999,-0.17000000000000001,0.95999999999999996
1544,1782579583630,0.050000000000000003,-0.28000000000000003,0.94999999999999996
1545,1782579583681,0.070000000000000007,-0.28000000000000003,0.94999999999999996
1546,1782579583730,0.070000000000000007,-0.26000000000000001,0.94999999999999996
1547,1782579583747,0.070000000000000007,-0.26000000000000001,0.94999999999999996
1548,1782579583764,0.080000000000000002,-0.25,0.91000000000000003
1549,1782579583797,0.080000000000000002,-0.25,0.91000000000000003
1550,1782579583880,0.070000000000000007,-0.23999999999999999,0.91000000000000003
1551,1782579583963,0.089999999999999997,-0.31,1.1499999999999999
1552,1782579584030,0.089999999999999997,-0.31,1.1599999999999999
1553,1782579584113,0.089999999999999997,-0.29999999999999999,1.1599999999999999
1554,1782579584180,0.10000000000000001,-0.23999999999999999,0.97999999999999998
1555,1782579584246,0.10000000000000001,-0.23999999999999999,1.05
1556,1782579584280,0.10000000000000001,-0.26000000000000001,1.05
1557,1782579584347,0.10000000000000001,-0.27000000000000002,1.1200000000000001
1558,1782579584380,0.070000000000000007,-0.28999999999999998,1.1200000000000001
1559,1782579584396,0.070000000000000007,-0.28999999999999998,1.05
1560,1782579584429,0.070000000000000007,-0.27000000000000002,1.04
1561,1782579584446,0.040000000000000001,-0.27000000000000002,1.01
1562,1782579584479,0.059999999999999998,-0.25,0.98999999999999999
1563,1782579584530,0.10000000000000001,-0.23999999999999999,1.1399999999999999
1564,1782579584612,0.10000000000000001,-0.28999999999999998,1.1799999999999999
1565,1782579584663,0.089999999999999997,-0.31,1.1799999999999999
1566,1782579584679,0.080000000000000002,-0.31,1.1399999999999999
1567,1782579584730,0.070000000000000007,-0.31,1.1000000000000001
1568,1782579584796,0.12,-0.29999999999999999,0.93999999999999995
1569,1782579584829,0.12,-0.29999999999999999,0.93999999999999995
1570,1782579584879,0.13,-0.29999999999999999,0.93999999999999995
1571,1782579584962,0.13,-0.29999999999999999,1
1572,1782579585029,0.02,-0.19,1.03
1573,1782579585112,0.02,-0.22,1.22
1574,1782579585145,0.02,-0.23000000000000001,1.22
1575,1782579585195,0.040000000000000001,-0.23999999999999999,1.22
1576,1782579585262,0.089999999999999997,-0.23999999999999999,1.1200000000000001
1577,1782579585445,0.070000000000000007,-0.22,1.03
1578,1782579585512,0.070000000000000007,-0.22,1.0600000000000001
1579,1782579585529,0.12,-0.46000000000000002,0.91000000000000003
1580,1782579585545,0.14000000000000001,-0.46000000000000002,0.91000000000000003
1581,1782579585629,0.16,-0.46000000000000002,0.95999999999999996
1582,1782579585712,0.17000000000000001,-0.45000000000000001,0.92000000000000004
1583,1782579585795,0.12,-0.29999999999999999,1.04
1584,1782579585845,0.12,-0.31,1.04
1585,1782579585862,0.080000000000000002,-0.37,1.04
1586,1782579585895,0.080000000000000002,-0.37,0.93000000000000005
1587,1782579585911,0.080000000000000002,-0.32000000000000001,0.92000000000000004
1588,1782579585945,0.080000000000000002,-0.31,0.89000000000000001
1589,1782579586045,0.16,-0.28999999999999998,0.98999999999999999
1590,1782579586061,0.12,-0.23000000000000001,0.94999999999999996
1591,1782579586161,0.10000000000000001,-0.20999999999999999,0.94999999999999996
1592,1782579586228,0.10000000000000001,-0.17000000000000001,0.93999999999999995
1593,1782579586228,0.080000000000000002,-0.16,0.93999999999999995
1594,1782579586261,0.070000000000000007,-0.16,0.93999999999999995
1595,1782579586462,-0,-0.31,1.1200000000000001
1596,1782579586528,0.029999999999999999,-0.31,1.1100000000000001
1597,1782579586561,0.14999999999999999,-0.37,1.1399999999999999
1598,1782579586611,0.14999999999999999,-0.37,1.01
1599,1782579586678,0.14000000000000001,-0.23999999999999999,0.98999999999999999
1600,1782579586744,0.10000000000000001,-0.13,0.93999999999999995
1601,1782579586777,0.050000000000000003,-0.070000000000000007,0.85999999999999999
1602,1782579586828,0.050000000000000003,-0.070000000000000007,0.85999999999999999
1603,1782579586910,0.029999999999999999,-0.17000000000000001,1.1699999999999999
1604,1782579586961,-0.089999999999999997,-0.16,0.95999999999999996
1605,1782579587094,-0.089999999999999997,-0.12,0.85999999999999999
1606,1782579587144,0.02,-0.31,1.3700000000000001
1607,1782579587294,0.01,-0.31,1.3700000000000001
1608,1782579587327,0.01,-0.32000000000000001,1.25
1609,1782579587361,0.01,-0.32000000000000001,1.1799999999999999
1610,1782579587378,0.17999999999999999,-0.60999999999999999,1.03
1611,1782579587444,0.19,-0.57999999999999996,0.90000000000000002
1612,1782579587511,0.19,-0.53000000000000003,0.81000000000000005
1613,1782579587727,0.25,-0.51000000000000001,1.1299999999999999
1614,1782579587743,0.25,-0.51000000000000001,1.1299999999999999
1615,1782579587761,0.25,-0.41999999999999998,0.95999999999999996
1616,1782579587777,0.25,-0.31,0.92000000000000004
1617,1782579587810,0.28999999999999998,-0.28999999999999998,0.85999999999999999
1618,1782579588010,0.080000000000000002,-0.28000000000000003,0.93000000000000005
1619,1782579588026,0.10000000000000001,-0.28000000000000003,0.94999999999999996
1620,1782579588094,0.10000000000000001,-0.28999999999999998,0.98999999999999999
1621,1782579588110,0.080000000000000002,-0.34000000000000002,1.1100000000000001
1622,1782579588193,0.070000000000000007,-0.22,0.95999999999999996
1623,1782579588326,0.070000000000000007,-0.22,0.98999999999999999
1624,1782579588359,0.059999999999999998,-0.23999999999999999,1.04
1625,1782579588393,0.13,-0.16,1.1399999999999999
1626,1782579588459,0.11,-0.14999999999999999,0.96999999999999997
1627,1782579588526,0.059999999999999998,-0.12,0.96999999999999997
1628,1782579588560,0.040000000000000001,-0.070000000000000007,0.94999999999999996
1629,1782579588710,0.01,-0.01,1.1000000000000001
1630,1782579588743,0.01,-0.01,1.1699999999999999
1631,1782579588809,0.040000000000000001,-0.070000000000000007,1.2
1632,1782579588859,0.050000000000000003,-0.070000000000000007,1.2
1633,1782579588909,0.040000000000000001,0.059999999999999998,1.1100000000000001
1634,1782579588959,0.070000000000000007,0.050000000000000003,1.1100000000000001
1635,1782579589042,0.089999999999999997,0.050000000000000003,1.1100000000000001
1636,1782579589076,0.10000000000000001,0.059999999999999998,0.95999999999999996
1637,1782579589092,0.10000000000000001,0.14000000000000001,0.95999999999999996
1638,1782579589109,0.10000000000000001,0.14000000000000001,0.95999999999999996
1639,1782579589175,0.089999999999999997,0.14999999999999999,0.95999999999999996
1640,1782579589242,0.089999999999999997,0.14999999999999999,1.04
1641,1782579589276,-0.01,0.19,1.05
1642,1782579589326,0.040000000000000001,0.17999999999999999,1.1100000000000001
1643,1782579589409,0.040000000000000001,0.17000000000000001,1.1100000000000001
1644,1782579589525,-0.029999999999999999,0.34999999999999998,1.0700000000000001
1645,1782579589542,-0.029999999999999999,0.34999999999999998,1.0700000000000001
1646,1782579589575,0.050000000000000003,0.37,1.0600000000000001
1647,1782579589625,0.059999999999999998,0.37,0.93999999999999995
1648,1782579589709,0.10000000000000001,0.38,0.93000000000000005
1649,1782579589775,0.080000000000000002,0.19,0.94999999999999996
1650,1782579589842,0.089999999999999997,0.19,0.91000000000000003
1651,1782579589876,0.089999999999999997,0.19,0.88
1652,1782579589908,0.070000000000000007,0.19,0.91000000000000003
1653,1782579589942,0.040000000000000001,0.20999999999999999,0.93999999999999995
1654,1782579589975,0.029999999999999999,0.23000000000000001,0.85999999999999999
1655,1782579590058,0.040000000000000001,0.26000000000000001,0.85999999999999999
1656,1782579590092,0.02,0.28999999999999998,0.82999999999999996
1657,1782579590191,0,0.31,0.82999999999999996
1658,1782579590258,0,0.31,0.85999999999999999
1659,1782579590291,0.029999999999999999,0.28999999999999998,0.79000000000000004
1660,1782579590375,0.02,0.28000000000000003,0.89000000000000001
1661,1782579590441,0.029999999999999999,0.26000000000000001,1.0700000000000001
1662,1782579590541,-0.02,0.27000000000000002,0.95999999999999996
1663,1782579590591,-0,0.27000000000000002,0.93000000000000005
1664,1782579590658,-0,0.27000000000000002,0.95999999999999996
1665,1782579590724,-0.02,0.26000000000000001,0.95999999999999996
1666,1782579590824,-0.01,0.25,0.93000000000000005
1667,1782579590891,-0.01,0.27000000000000002,0.88
1668,1782579590957,-0.01,0.27000000000000002,0.81000000000000005
1669,1782579590991,0,0.27000000000000002,0.81000000000000005
1670,1782579591041,0.070000000000000007,0.28999999999999998,0.88
1671,1782579591074,0.029999999999999999,0.23000000000000001,0.84999999999999998
1672,1782579591091,0.029999999999999999,0.22,0.88
1673,1782579591207,0.01,0.22,0.96999999999999997
1674,1782579591240,-0.02,0.20999999999999999,1.05
1675,1782579591291,-0.029999999999999999,0.34000000000000002,1.0800000000000001
1676,1782579591340,-0.01,0.34000000000000002,1.0600000000000001
1677,1782579591390,-0.01,0.34000000000000002,1.05
1678,1782579591440,-0.01,0.31,1.0600000000000001
1679,1782579591457,0,0.29999999999999999,1.05
1680,1782579591525,0.040000000000000001,0.27000000000000002,1.05
1681,1782579591573,0.059999999999999998,0.27000000000000002,1.02
1682,1782579591607,0.059999999999999998,0.27000000000000002,0.93000000000000005
1683,1782579591640,0,0.33000000000000002,0.89000000000000001
1684,1782579591690,-0.01,0.34000000000000002,0.96999999999999997
1685,1782579591740,-0.029999999999999999,0.34999999999999998,0.96999999999999997
1686,1782579591823,-0.029999999999999999,0.34999999999999998,1.03
1687,1782579591907,0.059999999999999998,0.23000000000000001,1.05
1688,1782579591990,0.02,0.23999999999999999,0.95999999999999996
1689,1782579592023,0.02,0.27000000000000002,0.95999999999999996
1690,1782579592073,0.02,0.33000000000000002,0.91000000000000003
1691,1782579592156,0.029999999999999999,0.40999999999999998,0.90000000000000002
1692,1782579592257,-0,0.40000000000000002,1.1399999999999999
1693,1782579592339,-0.01,0.37,1.1799999999999999
1694,1782579592373,-0.050000000000000003,0.35999999999999999,1.1799999999999999
1695,1782579592390,-0.050000000000000003,0.35999999999999999,1.1799999999999999
1696,1782579592407,0.059999999999999998,0.33000000000000002,1.1200000000000001
1697,1782579592457,-0.01,0.34999999999999998,1.1200000000000001
1698,1782579592506,-0.029999999999999999,0.35999999999999999,1.1000000000000001
1699,1782579592556,-0.050000000000000003,0.38,1.1000000000000001
1700,1782579592606,-0.050000000000000003,0.42999999999999999,1.1000000000000001
1701,1782579592639,-0.050000000000000003,0.42999999999999999,1.1000000000000001
1702,1782579592706,-0.050000000000000003,0.27000000000000002,1.1200000000000001
1703,1782579592772,0.080000000000000002,0.26000000000000001,1.1299999999999999
1704,1782579592839,0.080000000000000002,0.26000000000000001,1.1899999999999999
1705,1782579592889,0.089999999999999997,0.26000000000000001,1.1899999999999999
1706,1782579593022,0.029999999999999999,0.25,0.93000000000000005
1707,1782579593072,0.02,0.23999999999999999,0.92000000000000004
1708,1782579593289,0.029999999999999999,0.28000000000000003,0.96999999999999997
1709,1782579593355,0.029999999999999999,0.28000000000000003,0.96999999999999997
1710,1782579593422,0.029999999999999999,0.28000000000000003,0.95999999999999996
1711,1782579593472,0.040000000000000001,0.38,0.98999999999999999
1712,1782579593522,0.040000000000000001,0.38,0.98999999999999999
1713,1782579593656,0.029999999999999999,0.38,1.02
1714,1782579593672,0.029999999999999999,0.38,0.98999999999999999
1715,1782579593722,0.01,0.33000000000000002,0.93999999999999995
1716,1782579593772,-0.029999999999999999,0.33000000000000002,0.97999999999999998
1717,1782579593788,-0.040000000000000001,0.33000000000000002,1.1200000000000001
1718,1782579593805,-0.040000000000000001,0.33000000000000002,1.1200000000000001
1719,1782579593872,-0.029999999999999999,0.33000000000000002,1.1200000000000001
1720,1782579593922,-0.02,0.39000000000000001,1.0600000000000001
1721,1782579593972,0,0.39000000000000001,1.05
1722,1782579594006,0.01,0.39000000000000001,1.02
1723,1782579594038,0.01,0.39000000000000001,1.04
1724,1782579594122,0.01,0.28999999999999998,0.96999999999999997
1725,1782579594171,0,0.28999999999999998,0.95999999999999996
1726,1782579594221,0,0.28999999999999998,0.93000000000000005
1727,1782579594288,-0.02,0.29999999999999999,0.93000000000000005
1728,1782579594371,-0.029999999999999999,0.32000000000000001,0.96999999999999997
1729,1782579594421,-0.029999999999999999,0.28000000000000003,1.0700000000000001
1730,1782579594454,-0.02,0.23999999999999999,1.0700000000000001
1731,1782579594538,-0.02,0.23000000000000001,1.0800000000000001
1732,1782579594654,0.050000000000000003,0.32000000000000001,0.98999999999999999
1733,1782579594704,0.080000000000000002,0.32000000000000001,0.95999999999999996
1734,1782579594754,0.080000000000000002,0.32000000000000001,0.94999999999999996
1735,1782579594804,0.080000000000000002,0.29999999999999999,0.94999999999999996
1736,1782579594871,0.070000000000000007,0.19,0.85999999999999999
1737,1782579594921,0.070000000000000007,0.19,0.81999999999999995
1738,1782579594971,0.02,0.19,0.81999999999999995
1739,1782579594987,0.02,0.22,0.81999999999999995
1740,1782579595120,0,0.22,1.0700000000000001
1741,1782579595171,0.02,0.22,1.0700000000000001
1742,1782579595220,0.02,0.22,1.0700000000000001
1743,1782579595271,0.02,0.23000000000000001,1.02
1744,1782579595304,0.02,0.26000000000000001,1.01
1745,1782579595354,0.02,0.28000000000000003,1.01
1746,1782579595370,0.01,0.26000000000000001,0.93999999999999995
1747,1782579595420,0.01,0.28999999999999998,0.93999999999999995
1748,1782579595470,0.01,0.28999999999999998,0.97999999999999998
1749,1782579595520,0.01,0.29999999999999999,0.94999999999999996
1750,1782579595587,-0.01,0.31,0.97999999999999998
1751,1782579595653,-0.029999999999999999,0.23999999999999999,0.88
1752,1782579595704,-0.059999999999999998,0.32000000000000001,0.88
1753,1782579595770,-0.059999999999999998,0.32000000000000001,0.88
1754,1782579595837,-0.029999999999999999,0.32000000000000001,0.96999999999999997
1755,1782579595903,0.01,0.20000000000000001,1.04
1756,1782579595987,0.040000000000000001,0.20000000000000001,1.03
1757,1782579596070,0.040000000000000001,0.20000000000000001,1.02
1758,1782579596136,0.040000000000000001,0.20999999999999999,0.95999999999999996
1759,1782579596154,-0.029999999999999999,0.34000000000000002,1.1200000000000001
1760,1782579596170,0.089999999999999997,0.40999999999999998,0.96999999999999997
1761,1782579596203,0.10000000000000001,0.40999999999999998,1.1100000000000001
1762,1782579596270,0.10000000000000001,0.40999999999999998,1.1100000000000001
1763,1782579596320,0.10000000000000001,0.29999999999999999,1.1200000000000001
1764,1782579596370,0.070000000000000007,0.20999999999999999,1.1100000000000001
1765,1782579596419,0.070000000000000007,0.17000000000000001,1.1100000000000001
1766,1782579596469,0.02,0.17000000000000001,0.93000000000000005
1767,1782579596519,0.040000000000000001,0.23999999999999999,1.5
1768,1782579596570,0.040000000000000001,0.19,1.5
1769,1782579596619,0.059999999999999998,0.14000000000000001,1.5
1770,1782579596670,0.080000000000000002,0.14000000000000001,1.1899999999999999
1771,1782579596720,0.12,0.14000000000000001,0.91000000000000003
1772,1782579596769,0.12,0.14000000000000001,0.81000000000000005
1773,1782579596819,0.12,0.17000000000000001,1.02
1774,1782579596902,0.13,0.12,1.02
1775,1782579596952,0.13,0.12,0.98999999999999999
1776,1782579597052,0,0.23999999999999999,0.98999999999999999
1777,1782579597119,-0,0.23000000000000001,1
1778,1782579597169,0,0.23000000000000001,1.02
1779,1782579597235,0,0.22,1.02
1780,1782579597285,0.01,0.22,1.01
1781,1782579597335,-0,0.11,0.93999999999999995
1782,1782579597435,-0.01,0.13,0.94999999999999996
1783,1782579597469,-0.02,0.14000000000000001,0.94999999999999996
1784,1782579597518,-0.02,0.16,0.96999999999999997
1785,1782579597568,0.029999999999999999,0.17999999999999999,1.1399999999999999
1786,1782579597602,0.029999999999999999,0.14999999999999999,1.1299999999999999
1787,1782579597635,0.029999999999999999,0.11,1.1299999999999999
1788,1782579597668,0.029999999999999999,0.11,1.1299999999999999
1789,1782579597735,0.01,0.11,0.91000000000000003
1790,1782579597768,-0.02,0.20999999999999999,0.87
1791,1782579597818,-0.02,0.23999999999999999,0.87
1792,1782579597852,-0.070000000000000007,0.28000000000000003,1.05
1793,1782579597935,-0.070000000000000007,0.28000000000000003,1.1200000000000001
1794,1782579597968,-0.070000000000000007,0.22,1.29
1795,1782579598018,-0.01,0.19,1.29
1796,1782579598084,-0,0.23000000000000001,1.1000000000000001
1797,1782579598135,0.01,0.23000000000000001,1.1200000000000001
1798,1782579598184,0.01,0.23000000000000001,1.1200000000000001
1799,1782579598218,0.01,0.23000000000000001,1.1100000000000001
1800,1782579598318,0.01,0.23000000000000001,1.1100000000000001
1801,1782579598402,0.029999999999999999,0.14999999999999999,0.93999999999999995
1802,1782579598451,0,0.16,0.93999999999999995
1803,1782579598501,0,0.23000000000000001,0.92000000000000004
1804,1782579598568,-0.040000000000000001,0.23000000000000001,0.92000000000000004
1805,1782579598617,-0.050000000000000003,0.23000000000000001,0.92000000000000004
1806,1782579598634,-0.070000000000000007,0.23999999999999999,1.04
1807,1782579598684,-0.070000000000000007,0.25,1.0800000000000001
1808,1782579598751,-0.070000000000000007,0.25,1.1200000000000001
1809,1782579598834,-0.070000000000000007,0.25,1.1499999999999999
1810,1782579598884,-0.070000000000000007,0.25,1.1200000000000001
1811,1782579598934,-0.040000000000000001,0.23000000000000001,1.1200000000000001
1812,1782579598984,0.13,0.13,1
1813,1782579599018,0.10000000000000001,0.12,1
1814,1782579599084,0.070000000000000007,0.13,0.98999999999999999
1815,1782579599151,0.059999999999999998,0.14999999999999999,0.98999999999999999
1816,1782579599184,0.01,0.14999999999999999,0.98999999999999999
1817,1782579599284,-0.01,0.20000000000000001,1.02
1818,1782579599384,-0.029999999999999999,0.20000000000000001,1.02
1819,1782579599517,-0.050000000000000003,0.10000000000000001,1.04
1820,1782579599583,-0.050000000000000003,0.089999999999999997,1.0600000000000001
1821,1782579599701,-0.050000000000000003,0.089999999999999997,1.0600000000000001
1822,1782579599750,-0.029999999999999999,0.059999999999999998,1.0900000000000001
1823,1782579599767,-0.02,0.070000000000000007,1.05
1824,1782579599833,-0.040000000000000001,0.070000000000000007,1.04
1825,1782579599883,-0.040000000000000001,0.070000000000000007,1.04
1826,1782579600017,0.01,0.01,1.04
1827,1782579600083,-0.01,-0.029999999999999999,1.01
1828,1782579600100,-0.02,-0.029999999999999999,1.03
1829,1782579600117,-0.02,-0.029999999999999999,1.01
1830,1782579600217,-0.02,-0.059999999999999998,1.03
1831,1782579600250,0.040000000000000001,-0.10000000000000001,0.96999999999999997
1832,1782579600300,0.040000000000000001,-0.12,0.97999999999999998
1833,1782579600416,0.040000000000000001,-0.12,1.01
1834,1782579600466,0.01,-0.14000000000000001,1.05
1835,1782579600483,-0.02,-0.14000000000000001,1.0600000000000001
1836,1782579600533,0.01,-0.14999999999999999,0.98999999999999999
1837,1782579600616,0.029999999999999999,-0.14999999999999999,1.04
1838,1782579600716,0.080000000000000002,-0.17999999999999999,1.0900000000000001
1839,1782579600799,0.029999999999999999,-0.25,1.05
1840,1782579600833,0.040000000000000001,-0.25,1.04
1841,1782579600932,0.050000000000000003,-0.25,1.05
1842,1782579600999,0.050000000000000003,-0.25,1.04
1843,1782579601049,0.11,-0.25,0.83999999999999997
1844,1782579601082,0.089999999999999997,-0.23999999999999999,0.83999999999999997
1845,1782579601149,0.070000000000000007,-0.20999999999999999,0.83999999999999997
1846,1782579601232,0.070000000000000007,-0.20000000000000001,0.83999999999999997
1847,1782579601299,0.040000000000000001,-0.20000000000000001,0.90000000000000002
1848,1782579601332,0.040000000000000001,-0.20999999999999999,0.93000000000000005
1849,1782579601382,0.12,-0.20000000000000001,0.90000000000000002
1850,1782579601449,0.11,-0.19,0.88
1851,1782579601482,0.10000000000000001,-0.14000000000000001,0.80000000000000004
1852,1782579601516,0.089999999999999997,-0.14000000000000001,0.80000000000000004
1853,1782579601532,0.089999999999999997,-0.20000000000000001,0.88
1854,1782579601615,0.040000000000000001,-0.20000000000000001,0.90000000000000002
1855,1782579601648,0.029999999999999999,-0.14000000000000001,0.81999999999999995
1856,1782579601682,0.029999999999999999,-0.14999999999999999,0.82999999999999996
1857,1782579601782,0.050000000000000003,-0.17999999999999999,0.85999999999999999
1858,1782579601882,0.059999999999999998,-0.17999999999999999,1.1000000000000001
1859,1782579601949,0.070000000000000007,-0.23999999999999999,1.1000000000000001
1860,1782579601998,0.11,-0.26000000000000001,0.96999999999999997
1861,1782579602065,0.11,-0.28000000000000003,1.1000000000000001
1862,1782579602098,0.11,-0.26000000000000001,0.98999999999999999
1863,1782579602165,0.040000000000000001,-0.16,1.1000000000000001
1864,1782579602198,0.040000000000000001,-0.16,1.1100000000000001
1865,1782579602248,0.040000000000000001,-0.17000000000000001,1.1000000000000001
1866,1782579602314,0.040000000000000001,-0.17999999999999999,1.03
1867,1782579602348,0.040000000000000001,-0.19,1.02
1868,1782579602448,0.10000000000000001,-0.42999999999999999,0.91000000000000003
1869,1782579602481,0.10000000000000001,-0.33000000000000002,0.88
1870,1782579602498,0.10000000000000001,-0.25,0.84999999999999998
1871,1782579602532,0.10000000000000001,-0.14999999999999999,0.84999999999999998
1872,1782579602697,0.10000000000000001,-0.14000000000000001,0.88
1873,1782579602747,0.10000000000000001,-0.17000000000000001,0.88
1874,1782579602814,0.10000000000000001,-0.19,0.93000000000000005
1875,1782579602881,0.059999999999999998,-0.23999999999999999,0.88
1876,1782579602898,0.059999999999999998,-0.26000000000000001,0.81000000000000005
1877,1782579602914,0.029999999999999999,-0.17000000000000001,0.93999999999999995
1878,1782579602981,0.029999999999999999,-0.17000000000000001,0.93000000000000005
1879,1782579603030,0.029999999999999999,-0.17000000000000001,0.93000000000000005
1880,1782579603147,0.059999999999999998,-0.20000000000000001,1.04
1881,1782579603180,0.070000000000000007,-0.29999999999999999,0.95999999999999996
1882,1782579603231,0.02,-0.28000000000000003,0.93000000000000005
1883,1782579603297,0.01,-0.19,0.93000000000000005
1884,1782579603430,0.02,-0.23000000000000001,1.02
1885,1782579603497,0.02,-0.23000000000000001,1.03
1886,1782579603564,0.02,-0.23000000000000001,1.0600000000000001
1887,1782579603630,0.050000000000000003,-0.22,1.1100000000000001
1888,1782579603680,0.059999999999999998,-0.22,1.1200000000000001
1889,1782579603731,0.059999999999999998,-0.22,1.1200000000000001
1890,1782579603796,0.059999999999999998,-0.14999999999999999,0.80000000000000004
1891,1782579603846,0.040000000000000001,-0.14999999999999999,0.80000000000000004
1892,1782579603896,0.040000000000000001,-0.17000000000000001,0.81000000000000005
1893,1782579603947,0.040000000000000001,-0.17999999999999999,0.93999999999999995
1894,1782579603964,0.040000000000000001,-0.20000000000000001,1
1895,1782579604013,0.040000000000000001,-0.23999999999999999,1
1896,1782579604096,0.040000000000000001,-0.14000000000000001,0.97999999999999998
1897,1782579604213,0.040000000000000001,-0.14000000000000001,0.97999999999999998
1898,1782579604263,0.040000000000000001,-0.14000000000000001,0.98999999999999999
1899,1782579604296,0.059999999999999998,-0.23000000000000001,1.1399999999999999
1900,1782579604346,0.059999999999999998,-0.23000000000000001,1.1399999999999999
1901,1782579604430,0.059999999999999998,-0.23000000000000001,1.1299999999999999
1902,1782579604463,0.059999999999999998,-0.20999999999999999,1.0600000000000001
1903,1782579604513,0.050000000000000003,-0.17000000000000001,1.0600000000000001
1904,1782579604530,0.050000000000000003,-0.20000000000000001,1.1299999999999999
1905,1782579604546,0.050000000000000003,-0.19,1.05
1906,1782579604563,0.040000000000000001,-0.17999999999999999,1.02
1907,1782579604646,0.040000000000000001,-0.17000000000000001,0.98999999999999999
1908,1782579604696,0.10000000000000001,-0.16,0.97999999999999998
1909,1782579604763,0.10000000000000001,-0.12,0.83999999999999997
1910,1782579604829,0.12,-0.19,0.95999999999999996
1911,1782579604880,0.10000000000000001,-0.13,0.89000000000000001
1912,1782579604913,0.029999999999999999,-0.11,0.89000000000000001
1913,1782579604962,-0,-0.070000000000000007,0.89000000000000001
1914,1782579605079,-0.050000000000000003,-0.20000000000000001,0.98999999999999999
1915,1782579605146,-0.050000000000000003,-0.20000000000000001,1.03
1916,1782579605195,-0.050000000000000003,-0.20000000000000001,1.1200000000000001
1917,1782579605295,-0.050000000000000003,-0.20000000000000001,1.1499999999999999
1918,1782579605378,-0.040000000000000001,-0.32000000000000001,1.01
1919,1782579605445,-0.059999999999999998,-0.31,1.02
1920,1782579605512,-0.040000000000000001,-0.29999999999999999,1.01
1921,1782579605562,0.02,-0.28000000000000003,0.91000000000000003
1922,1782579605662,0.029999999999999999,-0.28999999999999998,0.91000000000000003
1923,1782579605729,0.029999999999999999,-0.28999999999999998,0.91000000000000003
1924,1782579605795,-0.059999999999999998,-0.27000000000000002,0.94999999999999996
1925,1782579605811,-0.029999999999999999,-0.28000000000000003,0.98999999999999999
1926,1782579605845,-0.070000000000000007,-0.34999999999999998,1.05
1927,1782579605861,-0.070000000000000007,-0.34999999999999998,1.0600000000000001
1928,1782579605896,-0.080000000000000002,-0.34999999999999998,1.0600000000000001
1929,1782579605928,-0.070000000000000007,-0.37,1.0600000000000001
1930,1782579606028,-0.070000000000000007,-0.37,1.0900000000000001
1931,1782579606112,-0.050000000000000003,-0.34999999999999998,1.0900000000000001
1932,1782579606145,0.02,-0.28000000000000003,0.85999999999999999
1933,1782579606211,0.02,-0.27000000000000002,0.85999999999999999
1934,1782579606261,-0.01,-0.27000000000000002,0.85999999999999999
1935,1782579606311,-0.029999999999999999,-0.27000000000000002,0.93999999999999995
1936,1782579606361,-0.040000000000000001,-0.38,0.97999999999999998
1937,1782579606411,-0.040000000000000001,-0.40999999999999998,1.0700000000000001
1938,1782579606478,-0.02,-0.42999999999999999,0.98999999999999999
1939,1782579606594,0,-0.44,1.0600000000000001
1940,1782579606628,0.01,-0.46000000000000002,1.0800000000000001
1941,1782579606677,0.01,-0.35999999999999999,0.97999999999999998
1942,1782579606744,0.02,-0.35999999999999999,0.97999999999999998
1943,1782579606761,0.040000000000000001,-0.35999999999999999,0.95999999999999996
1944,1782579606894,0.050000000000000003,-0.37,0.97999999999999998
1945,1782579606961,0.070000000000000007,-0.37,0.98999999999999999
1946,1782579606994,0.040000000000000001,-0.23999999999999999,0.84999999999999998
1947,1782579607027,-0.01,-0.17999999999999999,0.84999999999999998
1948,1782579607044,-0.040000000000000001,-0.17999999999999999,0.84999999999999998
1949,1782579607094,-0.040000000000000001,-0.17999999999999999,0.85999999999999999
1950,1782579607160,-0.059999999999999998,-0.20999999999999999,0.93000000000000005
1951,1782579607227,0,-0.34000000000000002,1.1899999999999999
1952,1782579607294,0,-0.34000000000000002,1.1299999999999999
1953,1782579607361,0.01,-0.28999999999999998,1.1100000000000001
1954,1782579607394,0,-0.28000000000000003,1.05
1955,1782579607444,0.10000000000000001,-0.57999999999999996,0.98999999999999999
1956,1782579607544,0.11,-0.54000000000000004,0.98999999999999999
1957,1782579607594,0.089999999999999997,-0.51000000000000001,0.98999999999999999
1958,1782579607660,0.14999999999999999,-0.5,0.98999999999999999
1959,1782579607693,0.14999999999999999,-0.5,0.93999999999999995
1960,1782579607727,0.11,-0.48999999999999999,1.01
1961,1782579607843,0.10000000000000001,-0.46000000000000002,1.01
1962,1782579607910,0.089999999999999997,-0.45000000000000001,0.98999999999999999
1963,1782579607961,0.20000000000000001,-0.68000000000000005,1.04
1964,1782579607976,0.20000000000000001,-0.63,1.04
1965,1782579608010,0.20000000000000001,-0.63,1.04
1966,1782579608026,0.19,-0.59999999999999998,1.01
1967,1782579608061,0.19,-0.56000000000000005,0.96999999999999997
1968,1782579608326,0.13,-0.34000000000000002,0.96999999999999997
1969,1782579608377,0.11,-0.34000000000000002,1.01
1970,1782579608410,0.13,-0.34000000000000002,1.0700000000000001
1971,1782579608426,0.11,-0.41999999999999998,1.1100000000000001
1972,1782579608543,0.11,-0.41999999999999998,1.1100000000000001
1973,1782579608576,-0.01,-0.5,0.80000000000000004
1974,1782579608626,0,-0.29999999999999999,0.80000000000000004
1975,1782579608693,0.040000000000000001,-0.28999999999999998,0.68000000000000005
1976,1782579608726,0.040000000000000001,-0.28000000000000003,0.68000000000000005
1977,1782579608776,0.089999999999999997,-0.28000000000000003,0.81000000000000005
1978,1782579608826,-0.02,-0.28000000000000003,0.58999999999999997
1979,1782579608893,-0.02,-0.28000000000000003,0.58999999999999997
1980,1782579608959,-0.02,-0.28000000000000003,0.62
1981,1782579609042,0.01,-0.33000000000000002,0.85999999999999999
1982,1782579609075,0.080000000000000002,-0.39000000000000001,0.71999999999999997
1983,1782579609159,0.080000000000000002,-0.38,0.65000000000000002
1984,1782579609176,0.089999999999999997,-0.38,0.71999999999999997
1985,1782579609292,0.12,-0.42999999999999999,0.90000000000000002
1986,1782579609342,0,-0.48999999999999999,0.82999999999999996
1987,1782579609392,0,-0.5,0.89000000000000001
1988,1782579609492,0.01,-0.54000000000000004,0.85999999999999999
1989,1782579609592,0.20000000000000001,-0.77000000000000002,1.2
1990,1782579609642,0.20000000000000001,-0.77000000000000002,1.2
1991,1782579609692,0.17999999999999999,-0.5,0.89000000000000001
1992,1782579609875,0.10000000000000001,-0.55000000000000004,0.96999999999999997
1993,1782579609908,0.10000000000000001,-0.46999999999999997,0.81999999999999995
1994,1782579609975,0.10000000000000001,-0.46000000000000002,0.81999999999999995
1995,1782579610042,0.11,-0.46000000000000002,0.80000000000000004
1996,1782579610125,0.25,-0.71999999999999997,0.85999999999999999
1997,1782579610141,0.20000000000000001,-0.68999999999999995,0.82999999999999996
1998,1782579610175,0.20000000000000001,-0.66000000000000003,0.82999999999999996
1999,1782579610208,0.19,-0.65000000000000002,0.81999999999999995
2000,1782579610308,0.17000000000000001,-0.65000000000000002,0.81999999999999995
2001,1782579610391,0.089999999999999997,-0.51000000000000001,0.81999999999999995
2002,1782579610408,0.089999999999999997,-0.51000000000000001,0.81999999999999995
2003,1782579610458,0.089999999999999997,-0.51000000000000001,0.81999999999999995
2004,1782579610524,0.10000000000000001,-0.51000000000000001,0.88
2005,1782579610558,0.12,-0.55000000000000004,1.01
2006,1782579610575,0.10000000000000001,-0.68999999999999995,1.1000000000000001
2007,1782579610591,0.080000000000000002,-0.44,0.94999999999999996
2008,1782579610658,0.10000000000000001,-0.44,0.93000000000000005
2009,1782579610691,0.080000000000000002,-0.41999999999999998,0.93000000000000005
2010,1782579610774,0.080000000000000002,-0.40000000000000002,0.89000000000000001
2011,1782579610907,0.11,-0.029999999999999999,0.81999999999999995
2012,1782579610957,0.11,0.14000000000000001,0.81999999999999995
2013,1782579611024,0.13,0.22,0.81999999999999995
2014,1782579611041,0.13,0.22,0.81999999999999995
2015,1782579611057,0.11,0.23999999999999999,0.84999999999999998
2016,1782579611075,-0.01,0.23999999999999999,0.93000000000000005
2017,1782579611107,-0.01,0.17999999999999999,1.28
2018,1782579611141,-0.01,0.080000000000000002,1.28
2019,1782579611240,0.059999999999999998,0.41999999999999998,1.0600000000000001
2020,1782579611257,0.12,0.38,1.0600000000000001
2021,1782579611425,0.12,0.38,1.01
2022,1782579611441,0.029999999999999999,0.41999999999999998,0.92000000000000004
2023,1782579611473,0.02,0.35999999999999999,0.95999999999999996
2024,1782579611524,-0.01,0.28000000000000003,1.05
2025,1782579611591,-0.01,0.28000000000000003,1.05
2026,1782579611674,0,0.25,1.0700000000000001
2027,1782579611740,0.10000000000000001,0.34000000000000002,0.92000000000000004
2028,1782579611890,0.10000000000000001,0.34000000000000002,0.97999999999999998
2029,1782579611990,-0,0.51000000000000001,1.2
2030,1782579612023,-0,0.51000000000000001,1.22
2031,1782579612089,0.02,0.51000000000000001,1.22
2032,1782579612139,0.02,0.51000000000000001,1.22
2033,1782579612239,0.02,0.5,1.1000000000000001
2034,1782579612340,0.029999999999999999,0.5,0.87
2035,1782579612406,0.050000000000000003,0.51000000000000001,0.84999999999999998
2036,1782579612472,0.02,0.5,0.85999999999999999
2037,1782579612523,0.02,0.47999999999999998,0.91000000000000003
2038,1782579612589,0.02,0.44,0.93999999999999995
2039,1782579612606,0.029999999999999999,0.40000000000000002,0.93999999999999995
2040,1782579612672,0.050000000000000003,0.40000000000000002,0.93000000000000005
2041,1782579612739,-0,0.48999999999999999,0.70999999999999996
2042,1782579612789,-0.02,0.48999999999999999,0.88
2043,1782579612856,-0.070000000000000007,0.48999999999999999,1
2044,1782579612922,-0.12,0.48999999999999999,1.0600000000000001
2045,1782579613022,-0.12,0.55000000000000004,0.96999999999999997
2046,1782579613072,-0.12,0.53000000000000003,1.0600000000000001
2047,1782579613139,-0.12,0.53000000000000003,1.0700000000000001
2048,1782579613189,-0.059999999999999998,0.52000000000000002,1.0800000000000001
2049,1782579613306,-0.02,0.47999999999999998,1.1399999999999999
2050,1782579613338,-0.02,0.47999999999999998,1.1399999999999999
2051,1782579613388,0.01,0.47999999999999998,1.03
2052,1782579613439,0.01,0.47999999999999998,1.03
2053,1782579613506,-0.050000000000000003,0.47999999999999998,1.03
2054,1782579613538,0.01,0.39000000000000001,1.05
2055,1782579613605,0.02,0.40999999999999998,1.23
2056,1782579613639,0.02,0.40999999999999998,1.23
2057,1782579613705,-0,0.40999999999999998,1.1000000000000001
2058,1782579613756,-0.02,0.56000000000000005,1.01
2059,1782579613821,-0.02,0.56000000000000005,0.98999999999999999
2060,1782579613971,-0.070000000000000007,0.67000000000000004,1.26
2061,1782579614022,-0.080000000000000002,0.60999999999999999,1.26
2062,1782579614055,-0.050000000000000003,0.63,1.1100000000000001
2063,1782579614071,0.01,0.63,1.1499999999999999
2064,1782579614104,0.02,0.60999999999999999,1.1499999999999999
2065,1782579614138,0.040000000000000001,0.53000000000000003,1.1499999999999999
2066,1782579614288,0.02,0.53000000000000003,1.01
2067,1782579614354,0.029999999999999999,0.59999999999999998,1.1100000000000001
2068,1782579614405,0.01,0.58999999999999997,1.1100000000000001
2069,1782579614421,0.01,0.58999999999999997,1.01
2070,1782579614588,-0.050000000000000003,0.56999999999999995,0.96999999999999997
2071,1782579614671,-0.059999999999999998,0.62,1.0600000000000001
2072,1782579614738,-0.059999999999999998,0.62,1.0900000000000001
2073,1782579614854,-0.059999999999999998,0.66000000000000003,0.93999999999999995
2074,1782579614938,-0.040000000000000001,0.66000000000000003,0.93999999999999995
2075,1782579615004,-0.059999999999999998,0.66000000000000003,0.93999999999999995
2076,1782579615087,-0.050000000000000003,0.70999999999999996,0.76000000000000001
2077,1782579615154,-0.01,0.70999999999999996,0.79000000000000004
2078,1782579615171,-0.01,0.70999999999999996,0.87
2079,1782579615238,-0.01,0.68999999999999995,1.03
2080,1782579615271,-0.01,0.54000000000000004,1.1399999999999999
2081,1782579615304,-0.089999999999999997,0.65000000000000002,0.97999999999999998
2082,1782579615354,-0.089999999999999997,0.65000000000000002,0.97999999999999998
2083,1782579615453,-0.070000000000000007,0.65000000000000002,0.97999999999999998
2084,1782579615486,-0.080000000000000002,0.64000000000000001,0.98999999999999999
2085,1782579615520,-0.070000000000000007,0.64000000000000001,1.05
2086,1782579615537,-0.059999999999999998,0.65000000000000002,1.0600000000000001
2087,1782579615570,-0.070000000000000007,0.67000000000000004,0.83999999999999997
2088,1782579615620,-0.050000000000000003,0.68999999999999995,0.83999999999999997
2089,1782579615686,-0.070000000000000007,0.68999999999999995,0.83999999999999997
2090,1782579615754,-0.070000000000000007,0.68999999999999995,0.95999999999999996
2091,1782579615787,-0.040000000000000001,0.59999999999999998,1.02
2092,1782579615820,-0.040000000000000001,0.58999999999999997,1.22
2093,1782579615853,-0.040000000000000001,0.58999999999999997,1.27
2094,1782579615870,-0.02,0.58999999999999997,1.27
2095,1782579615920,0.050000000000000003,0.55000000000000004,1.29
2096,1782579615970,0.050000000000000003,0.68000000000000005,1.0800000000000001
2097,1782579616153,-0.01,0.68999999999999995,1.01
2098,1782579616203,-0.089999999999999997,0.28999999999999998,0.89000000000000001
2099,1782579616270,-0.089999999999999997,0.28999999999999998,0.83999999999999997
2100,1782579616286,-0.050000000000000003,0.28999999999999998,0.83999999999999997
2101,1782579616336,-0.029999999999999999,0.28999999999999998,0.83999999999999997
2102,1782579616370,-0.02,0.28999999999999998,0.83999999999999997
2103,1782579616453,0.01,0.78000000000000003,0.68000000000000005
2104,1782579616519,-0.10000000000000001,0.78000000000000003,0.68000000000000005
2105,1782579616553,-0.10000000000000001,0.77000000000000002,0.68000000000000005
2106,1782579616719,0.02,0.72999999999999998,0.56000000000000005
2107,1782579616770,-0.01,0.68000000000000005,0.56000000000000005
2108,1782579616819,-0.070000000000000007,0.53000000000000003,0.65000000000000002
2109,1782579616969,-0.27000000000000002,0.62,0.91000000000000003
2110,1782579617036,-0.20999999999999999,0.62,1.27
2111,1782579617119,-0.19,0.34000000000000002,1.3200000000000001
2112,1782579617219,0.12,0.34000000000000002,1.27
2113,1782579617252,0.11,0.34000000000000002,1.27
2114,1782579617302,0.11,0.27000000000000002,1.27
2115,1782579617352,0.13,0.31,1.23
2116,1782579617452,-0.080000000000000002,0.63,1.49
2117,1782579617502,-0.059999999999999998,0.47999999999999998,1.49
2118,1782579617552,-0.059999999999999998,0.47999999999999998,1.49
2119,1782579617585,-0.080000000000000002,0.47999999999999998,0.98999999999999999
2120,1782579617685,0.070000000000000007,0.40999999999999998,1.49
2121,1782579617752,0.040000000000000001,0.42999999999999999,0.76000000000000001
2122,1782579617785,0.040000000000000001,0.46999999999999997,0.75
2123,1782579617852,0.040000000000000001,0.58999999999999997,0.73999999999999999
2124,1782579617902,0.040000000000000001,0.68000000000000005,0.57999999999999996
2125,1782579617985,0.070000000000000007,0.78000000000000003,0.78000000000000003
2126,1782579618018,0.02,0.78000000000000003,0.70999999999999996
2127,1782579618084,-0.10000000000000001,0.78000000000000003,0.70999999999999996
2128,1782579618135,-0.10000000000000001,0.77000000000000002,0.70999999999999996
2129,1782579618218,-0.12,0.73999999999999999,0.96999999999999997
2130,1782579618285,-0.16,0.46999999999999997,1.22
2131,1782579618334,-0.14999999999999999,0.46999999999999997,1.25
2132,1782579618384,-0.14999999999999999,0.46999999999999997,1.25
2133,1782579618401,-0.14999999999999999,0.48999999999999999,1.22
2134,1782579618434,-0.12,0.48999999999999999,1.1599999999999999
2135,1782579618451,-0.12,0.48999999999999999,1.0800000000000001
2136,1782579618467,-0.12,0.48999999999999999,1.05
2137,1782579618567,-0.12,0.25,1.28
2138,1782579618617,-0.12,0.25,1.3300000000000001
2139,1782579618701,-0.10000000000000001,0.25,1.28
2140,1782579618751,-0.089999999999999997,0.29999999999999999,1.1599999999999999
