index,date,GYRO_X,GYRO_Y,GYRO_Z
0,1782582316213,0.20999999999999999,-0.48999999999999999,0.070000000000000007
1,1782582316281,0.20999999999999999,-0.56000000000000005,0
2,1782582316331,0.14000000000000001,-0.56000000000000005,0.070000000000000007
3,1782582316413,0.20999999999999999,-0.56000000000000005,0
4,1782582316531,0.14000000000000001,-0.48999999999999999,0.070000000000000007
5,1782582316596,0.14000000000000001,-0.56000000000000005,0.070000000000000007
6,1782582316630,0.20999999999999999,-0.34999999999999998,0.070000000000000007
7,1782582316681,0.20999999999999999,-0.48999999999999999,0.070000000000000007
8,1782582316764,0.20999999999999999,-0.48999999999999999,0.070000000000000007
9,1782582316914,0.20999999999999999,-0.56000000000000005,0.070000000000000007
10,1782582316931,0.20999999999999999,-0.56000000000000005,0.070000000000000007
11,1782582316964,0.20999999999999999,-0.56000000000000005,0.070000000000000007
12,1782582316980,0.20999999999999999,-0.48999999999999999,0.070000000000000007
13,1782582317164,0.28000000000000003,-0.48999999999999999,0.070000000000000007
14,1782582317213,0.28000000000000003,-0.56000000000000005,0.070000000000000007
15,1782582317279,0.28000000000000003,-0.48999999999999999,0.070000000000000007
16,1782582317329,0.28000000000000003,-0.48999999999999999,0.070000000000000007
17,1782582317412,0.28000000000000003,-0.56000000000000005,0.14000000000000001
18,1782582317479,0.28000000000000003,-0.56000000000000005,0.14000000000000001
19,1782582317579,0.28000000000000003,-0.56000000000000005,0.14000000000000001
20,1782582317629,0.28000000000000003,-0.56000000000000005,0.14000000000000001
21,1782582317679,0.28000000000000003,-0.48999999999999999,0.070000000000000007
22,1782582317729,0.28000000000000003,-0.48999999999999999,0.070000000000000007
23,1782582317795,0.28000000000000003,-0.48999999999999999,0.070000000000000007
24,1782582317829,0.28000000000000003,-0.48999999999999999,0.070000000000000007
25,1782582317896,0.14000000000000001,-0.48999999999999999,0.070000000000000007
26,1782582317946,0.20999999999999999,-0.56000000000000005,0.070000000000000007
27,1782582317996,0.28000000000000003,-0.48999999999999999,0
28,1782582318029,0.20999999999999999,-0.48999999999999999,0
29,1782582318079,0.20999999999999999,-0.48999999999999999,0
30,1782582318146,0.20999999999999999,-0.56000000000000005,0
31,1782582318179,0.20999999999999999,-0.56000000000000005,0
32,1782582318245,0.20999999999999999,-0.48999999999999999,0.070000000000000007
33,1782582318345,0.20999999999999999,-0.56000000000000005,0.070000000000000007
34,1782582318412,0.20999999999999999,-0.48999999999999999,0.070000000000000007
35,1782582318478,0.20999999999999999,-0.48999999999999999,0.070000000000000007
36,1782582318495,0.28000000000000003,-0.48999999999999999,0.070000000000000007
37,1782582318512,0.20999999999999999,-0.48999999999999999,0.070000000000000007
38,1782582318612,0.20999999999999999,-0.48999999999999999,0
39,1782582318711,0.20999999999999999,-0.48999999999999999,0
40,1782582318796,0.20999999999999999,-0.56000000000000005,0
41,1782582318828,0.20999999999999999,-0.56000000000000005,0.070000000000000007
42,1782582318895,0.20999999999999999,-0.56000000000000005,0.070000000000000007
43,1782582318928,0.14000000000000001,-0.48999999999999999,0.070000000000000007
44,1782582319095,0.070000000000000007,-0.56000000000000005,0.070000000000000007
45,1782582319144,0.070000000000000007,-0.56000000000000005,0.070000000000000007
46,1782582319194,0.20999999999999999,-0.56000000000000005,0.070000000000000007
47,1782582319261,0.14000000000000001,-0.56000000000000005,0.070000000000000007
48,1782582319361,0.20999999999999999,-0.63,0.070000000000000007
49,1782582319378,0.20999999999999999,-0.63,0.070000000000000007
50,1782582319444,0.20999999999999999,-0.63,0.070000000000000007
51,1782582319494,0.14000000000000001,-0.63,0.070000000000000007
52,1782582319511,0.20999999999999999,-0.48999999999999999,0
53,1782582319577,0.20999999999999999,-0.48999999999999999,0
54,1782582319678,0.20999999999999999,-0.48999999999999999,0
55,1782582319744,0.20999999999999999,-0.48999999999999999,0.070000000000000007
56,1782582319794,0.20999999999999999,-0.56000000000000005,0.070000000000000007
57,1782582319844,0.20999999999999999,-0.56000000000000005,0.070000000000000007
58,1782582319910,0.20999999999999999,-0.56000000000000005,0
59,1782582319944,0.20999999999999999,-0.56000000000000005,0.070000000000000007
60,1782582319977,0.20999999999999999,-0.48999999999999999,0
61,1782582320044,0.20999999999999999,-0.48999999999999999,0
62,1782582320094,0.20999999999999999,-0.48999999999999999,0
63,1782582320144,0.28000000000000003,-0.48999999999999999,0.070000000000000007
64,1782582320193,0.34999999999999998,-0.56000000000000005,0
65,1782582320210,0.20999999999999999,-0.56000000000000005,0
66,1782582320227,0.20999999999999999,-0.56000000000000005,0.070000000000000007
67,1782582320260,0.28000000000000003,-0.56000000000000005,0.070000000000000007
68,1782582320277,0.28000000000000003,-0.56000000000000005,0.070000000000000007
69,1782582320326,0.14000000000000001,-0.56000000000000005,0.070000000000000007
70,1782582320377,0.20999999999999999,-0.56000000000000005,0
71,1782582320460,0.20999999999999999,-0.48999999999999999,0
72,1782582320493,0.20999999999999999,-0.56000000000000005,0
73,1782582320560,0.28000000000000003,-0.48999999999999999,0
74,1782582320577,0.28000000000000003,-0.48999999999999999,0
75,1782582320660,0.28000000000000003,-0.56000000000000005,0.070000000000000007
76,1782582320710,0.28000000000000003,-0.48999999999999999,0.070000000000000007
77,1782582320776,0.28000000000000003,-0.48999999999999999,0.070000000000000007
78,1782582320826,0.14000000000000001,-0.48999999999999999,0.070000000000000007
79,1782582320860,0.14000000000000001,-0.56000000000000005,0.070000000000000007
80,1782582320910,0.14000000000000001,-0.56000000000000005,0.070000000000000007
81,1782582320993,0.14000000000000001,-0.48999999999999999,0.070000000000000007
82,1782582321043,0.14000000000000001,-0.56000000000000005,0
83,1782582321126,0.28000000000000003,-0.63,0
84,1782582321143,0.34999999999999998,-0.56000000000000005,0.070000000000000007
85,1782582321226,0.34999999999999998,-0.56000000000000005,0.070000000000000007
86,1782582321326,0.34999999999999998,-0.56000000000000005,0.070000000000000007
87,1782582321393,0.20999999999999999,-0.41999999999999998,0.070000000000000007
88,1782582321443,0.20999999999999999,-0.41999999999999998,0.070000000000000007
89,1782582321459,0.20999999999999999,-0.48999999999999999,0
90,1782582321542,0.14000000000000001,-0.48999999999999999,0
91,1782582321559,0.14000000000000001,-0.48999999999999999,0
92,1782582321592,0.070000000000000007,-0.56000000000000005,0.070000000000000007
93,1782582321709,0.20999999999999999,-0.48999999999999999,0.070000000000000007
94,1782582321760,0.20999999999999999,-0.48999999999999999,0.070000000000000007
95,1782582321809,0.20999999999999999,-0.48999999999999999,0.070000000000000007
96,1782582321859,0.20999999999999999,-0.48999999999999999,0.070000000000000007
97,1782582321876,0.28000000000000003,-0.48999999999999999,0.070000000000000007
98,1782582322075,0.28000000000000003,-0.56000000000000005,0
99,1782582322142,0.28000000000000003,-0.48999999999999999,0
100,1782582322142,0.14000000000000001,-0.56000000000000005,0.070000000000000007
101,1782582322176,0.14000000000000001,-0.56000000000000005,0.070000000000000007
102,1782582322225,0.14000000000000001,-0.56000000000000005,0.070000000000000007
103,1782582322308,0.14000000000000001,-0.56000000000000005,0.070000000000000007
104,1782582322375,0.14000000000000001,-0.56000000000000005,0.070000000000000007
105,1782582322425,0.14000000000000001,-0.56000000000000005,0
106,1782582322442,0.14000000000000001,-0.56000000000000005,0
107,1782582322459,0.20999999999999999,-0.56000000000000005,0
108,1782582322492,0.20999999999999999,-0.56000000000000005,0.070000000000000007
109,1782582322508,0.20999999999999999,-0.56000000000000005,0.070000000000000007
110,1782582322575,0.20999999999999999,-0.56000000000000005,0.070000000000000007
111,1782582322625,0.20999999999999999,-0.56000000000000005,0
112,1782582322691,0.20999999999999999,-0.56000000000000005,0
113,1782582322742,0.20999999999999999,-0.48999999999999999,0
114,1782582322791,0.14000000000000001,-0.56000000000000005,0.070000000000000007
115,1782582322942,0.14000000000000001,-0.48999999999999999,0.070000000000000007
116,1782582323041,0.20999999999999999,-0.56000000000000005,0.070000000000000007
117,1782582323058,0.20999999999999999,-0.56000000000000005,0.070000000000000007
118,1782582323091,0.20999999999999999,-0.56000000000000005,0.070000000000000007
119,1782582323141,0.20999999999999999,-0.56000000000000005,0
120,1782582323191,0.20999999999999999,-0.48999999999999999,0
121,1782582323291,0.28000000000000003,-0.56000000000000005,0
122,1782582323407,0.28000000000000003,-0.56000000000000005,0.070000000000000007
123,1782582323458,0.28000000000000003,-0.56000000000000005,0.070000000000000007
124,1782582323491,0.20999999999999999,-0.56000000000000005,0.070000000000000007
125,1782582323574,0.14000000000000001,-0.56000000000000005,0.070000000000000007
126,1782582323608,0.20999999999999999,-0.56000000000000005,0.070000000000000007
127,1782582323674,0.20999999999999999,-0.56000000000000005,0.070000000000000007
128,1782582323824,0.20999999999999999,-0.48999999999999999,0.070000000000000007
129,1782582323857,0.20999999999999999,-0.48999999999999999,0.070000000000000007
130,1782582323957,0.20999999999999999,-0.48999999999999999,0.070000000000000007
131,1782582324007,0.28000000000000003,-0.48999999999999999,0.070000000000000007
132,1782582324074,0.20999999999999999,-0.56000000000000005,0
133,1782582324124,0.20999999999999999,-0.56000000000000005,0
134,1782582324140,0.20999999999999999,-0.56000000000000005,0
135,1782582324174,0.20999999999999999,-0.56000000000000005,0.070000000000000007
136,1782582324224,0.20999999999999999,-0.56000000000000005,0.070000000000000007
137,1782582324307,0.34999999999999998,-0.56000000000000005,0.070000000000000007
138,1782582324341,0.34999999999999998,-0.56000000000000005,0.070000000000000007
139,1782582324474,0.20999999999999999,-0.56000000000000005,0.070000000000000007
140,1782582324523,0.20999999999999999,-0.56000000000000005,0.14000000000000001
141,1782582324540,0.28000000000000003,-0.56000000000000005,0.070000000000000007
142,1782582324607,0.28000000000000003,-0.56000000000000005,0.070000000000000007
143,1782582324657,0.34999999999999998,-0.56000000000000005,0.070000000000000007
144,1782582324706,0.83999999999999997,-0.56000000000000005,0.070000000000000007
145,1782582324806,0.41999999999999998,-0.63,-0.070000000000000007
146,1782582324873,0.48999999999999999,-0.69999999999999996,-0.14000000000000001
147,1782582324907,0.48999999999999999,-0.69999999999999996,-0.20999999999999999
148,1782582324956,0.48999999999999999,-0.63,-0.20999999999999999
149,1782582325023,0.34999999999999998,-0.63,-0.28000000000000003
150,1782582325073,0.34999999999999998,-0.69999999999999996,-0.28000000000000003
151,1782582325122,0.28000000000000003,-0.63,-0.34999999999999998
152,1782582325156,0.14000000000000001,-0.48999999999999999,0.14000000000000001
153,1782582325223,0.070000000000000007,-0.48999999999999999,0.34999999999999998
154,1782582325289,0.070000000000000007,-0.56000000000000005,0.41999999999999998
155,1782582325339,0.070000000000000007,-0.63,0.41999999999999998
156,1782582325373,0.14000000000000001,-0.63,0.41999999999999998
157,1782582325389,0.20999999999999999,-0.63,0.28000000000000003
158,1782582325423,0.20999999999999999,-0.56000000000000005,0
159,1782582325539,0.20999999999999999,-0.56000000000000005,-0.070000000000000007
160,1782582325606,0.28000000000000003,-0.48999999999999999,-0.14000000000000001
161,1782582325672,0.28000000000000003,-0.56000000000000005,-0.070000000000000007
162,1782582325690,0.28000000000000003,-0.34999999999999998,0
163,1782582325706,0.28000000000000003,-0.69999999999999996,0.070000000000000007
164,1782582325772,0.28000000000000003,-0.69999999999999996,0.070000000000000007
165,1782582325839,0.28000000000000003,-0.48999999999999999,0.070000000000000007
166,1782582325905,0.20999999999999999,-0.56000000000000005,0.20999999999999999
167,1782582326022,0.28000000000000003,-0.56000000000000005,0.14000000000000001
168,1782582326122,0.20999999999999999,-0.56000000000000005,0.070000000000000007
169,1782582326139,0.20999999999999999,-0.56000000000000005,0.070000000000000007
170,1782582326155,0.28000000000000003,-0.56000000000000005,0
171,1782582326222,0.28000000000000003,-0.56000000000000005,0
172,1782582326255,0.28000000000000003,-0.48999999999999999,0
173,1782582326355,0.20999999999999999,-0.48999999999999999,0
174,1782582326438,0.20999999999999999,-0.56000000000000005,0.070000000000000007
175,1782582326488,0.20999999999999999,-0.48999999999999999,0.070000000000000007
176,1782582326555,0.20999999999999999,-0.48999999999999999,0.070000000000000007
177,1782582326605,0.20999999999999999,-0.48999999999999999,0.070000000000000007
178,1782582326655,0.41999999999999998,-0.48999999999999999,0.070000000000000007
179,1782582328836,0.14000000000000001,-0.63,0.20999999999999999
180,1782582328903,0.20999999999999999,-0.91000000000000003,0.14000000000000001
181,1782582328970,0.28000000000000003,-0.91000000000000003,0.070000000000000007
182,1782582329020,0.28000000000000003,-0.91000000000000003,0.070000000000000007
183,1782582329053,0.48999999999999999,-0.56000000000000005,-0.070000000000000007
184,1782582329119,0.41999999999999998,-0.41999999999999998,-0.14000000000000001
185,1782582329153,0.41999999999999998,-0.41999999999999998,-0.14000000000000001
186,1782582329153,0.63,-0.41999999999999998,0.20999999999999999
187,1782582329219,0.48999999999999999,-0.56000000000000005,0.20999999999999999
188,1782582329236,-0.070000000000000007,-0.63,0.20999999999999999
189,1782582329253,-0.070000000000000007,-0.56000000000000005,0.20999999999999999
190,1782582329286,-0.070000000000000007,-0.56000000000000005,0.070000000000000007
191,1782582329303,-0.070000000000000007,-0.48999999999999999,-0.070000000000000007
192,1782582329336,0.20999999999999999,-0.48999999999999999,-0.070000000000000007
193,1782582329386,0.48999999999999999,-0.41999999999999998,-0.070000000000000007
194,1782582329436,0.48999999999999999,-0.41999999999999998,-0.14000000000000001
195,1782582329486,0.48999999999999999,-0.41999999999999998,-0.14000000000000001
196,1782582329536,-0.14000000000000001,-0.56000000000000005,0
197,1782582329602,-0.56000000000000005,-0.56000000000000005,0
198,1782582329636,-0.56000000000000005,-0.97999999999999998,0.070000000000000007
199,1782582329719,-0.56000000000000005,-0.97999999999999998,0.14000000000000001
200,1782582329752,0.48999999999999999,-0.91000000000000003,0.070000000000000007
201,1782582329819,1.6100000000000001,-0.56000000000000005,0.070000000000000007
202,1782582329852,1.6100000000000001,-0.41999999999999998,0.070000000000000007
203,1782582329885,0.56000000000000005,-0.83999999999999997,0
204,1782582330019,-0.14000000000000001,-0.83999999999999997,0.20999999999999999
205,1782582330052,-0.14000000000000001,-0.77000000000000002,0.20999999999999999
206,1782582330085,-0.14000000000000001,-0.41999999999999998,0.20999999999999999
207,1782582330102,0.20999999999999999,-0.14000000000000001,0.14000000000000001
208,1782582330119,0.48999999999999999,-0.14000000000000001,0.14000000000000001
209,1782582330152,0.48999999999999999,-0.070000000000000007,0.070000000000000007
210,1782582330202,0.48999999999999999,-0.070000000000000007,0.070000000000000007
211,1782582330268,0.28000000000000003,-0.070000000000000007,0.28000000000000003
212,1782582330318,0.28000000000000003,-0.070000000000000007,0.20999999999999999
213,1782582330369,0.41999999999999998,-0.14000000000000001,0.14000000000000001
214,1782582330418,0.56000000000000005,-0.34999999999999998,0.14000000000000001
215,1782582330518,0.83999999999999997,-0.48999999999999999,0.070000000000000007
216,1782582330568,0.14000000000000001,-0.63,0
217,1782582330618,0,-0.56000000000000005,0.070000000000000007
218,1782582330685,0,-0.41999999999999998,0.070000000000000007
219,1782582330735,0,-0.69999999999999996,0.070000000000000007
220,1782582330785,0.20999999999999999,-0.41999999999999998,0.070000000000000007
221,1782582330834,0.20999999999999999,-0.41999999999999998,0.070000000000000007
222,1782582330851,0.20999999999999999,-0.48999999999999999,0.070000000000000007
223,1782582330868,0.070000000000000007,-0.63,0.070000000000000007
224,1782582330885,0.070000000000000007,-0.56000000000000005,0.070000000000000007
225,1782582330918,0.20999999999999999,-0.48999999999999999,0
226,1782582330952,0.20999999999999999,-0.41999999999999998,0
227,1782582330985,0.28000000000000003,-0.41999999999999998,0.070000000000000007
228,1782582331001,0.28000000000000003,-0.41999999999999998,0.14000000000000001
229,1782582331018,0.28000000000000003,-0.41999999999999998,0.14000000000000001
230,1782582331051,0.28000000000000003,-0.48999999999999999,0.14000000000000001
231,1782582331101,0.28000000000000003,-0.56000000000000005,0.14000000000000001
232,1782582331151,0.28000000000000003,-0.56000000000000005,0.14000000000000001
233,1782582331201,0.070000000000000007,-0.56000000000000005,0.070000000000000007
234,1782582331268,0.070000000000000007,-0.56000000000000005,0.070000000000000007
235,1782582331284,0.20999999999999999,-0.48999999999999999,0.070000000000000007
236,1782582331351,0.20999999999999999,-0.41999999999999998,0.070000000000000007
237,1782582331401,0.20999999999999999,-0.41999999999999998,0.070000000000000007
238,1782582331484,0.20999999999999999,-0.48999999999999999,0.070000000000000007
239,1782582331518,0.20999999999999999,-0.48999999999999999,0.070000000000000007
240,1782582331568,0.28000000000000003,-0.56000000000000005,0.070000000000000007
241,1782582331617,0.34999999999999998,-0.63,0.14000000000000001
242,1782582331634,0.14000000000000001,-0.56000000000000005,0
243,1782582331684,0.14000000000000001,-0.56000000000000005,0
244,1782582331734,0.070000000000000007,-0.56000000000000005,0
245,1782582331751,0.14000000000000001,-0.56000000000000005,0.070000000000000007
246,1782582331784,0.20999999999999999,-0.56000000000000005,0.14000000000000001
247,1782582331834,0.28000000000000003,-0.56000000000000005,0.14000000000000001
248,1782582331867,0.28000000000000003,-0.48999999999999999,0.20999999999999999
249,1782582331900,0.28000000000000003,-0.48999999999999999,0.20999999999999999
250,1782582331967,0.14000000000000001,-0.56000000000000005,-0.070000000000000007
251,1782582331983,0.14000000000000001,-0.41999999999999998,-0.070000000000000007
252,1782582332000,0.14000000000000001,-0.28000000000000003,-0.070000000000000007
253,1782582332034,0.28000000000000003,-0.41999999999999998,-0.070000000000000007
254,1782582332100,0.28000000000000003,-0.48999999999999999,-0.070000000000000007
255,1782582332134,0.28000000000000003,-0.48999999999999999,0
256,1782582332183,0.28000000000000003,-0.63,0
257,1782582332250,0.28000000000000003,-0.63,0
258,1782582332283,0.14000000000000001,-0.48999999999999999,0.070000000000000007
259,1782582332350,0.14000000000000001,-0.56000000000000005,0.070000000000000007
260,1782582332400,0.28000000000000003,-0.63,0
261,1782582332467,0.28000000000000003,-0.34999999999999998,0
262,1782582366155,0.20999999999999999,-0.63,0.070000000000000007
263,1782582366221,0.20999999999999999,-0.63,0
264,1782582366288,0.20999999999999999,-0.77000000000000002,0
265,1782582366338,0.20999999999999999,-0.77000000000000002,0.070000000000000007
266,1782582366388,0.20999999999999999,-0.77000000000000002,0.070000000000000007
267,1782582366438,0.28000000000000003,-0.77000000000000002,0.070000000000000007
268,1782582366472,0.28000000000000003,-0.69999999999999996,0.070000000000000007
269,1782582366472,0.34999999999999998,-0.20999999999999999,-0.070000000000000007
270,1782582366538,0.34999999999999998,-0.34999999999999998,-0.070000000000000007
271,1782582366555,0.28000000000000003,-0.56000000000000005,0
272,1782582366572,0.34999999999999998,-0.34999999999999998,0
273,1782582366605,0.070000000000000007,0.070000000000000007,0.070000000000000007
274,1782582366622,0.070000000000000007,-0.83999999999999997,0.070000000000000007
275,1782582366654,0.20999999999999999,-0.070000000000000007,0.070000000000000007
276,1782582366704,0.28000000000000003,0.070000000000000007,0.070000000000000007
277,1782582366755,0.20999999999999999,-0.070000000000000007,0.070000000000000007
278,1782582366804,0.20999999999999999,-0.41999999999999998,0.070000000000000007
279,1782582366854,0.28000000000000003,-0.56000000000000005,0.070000000000000007
280,1782582366904,0.20999999999999999,-0.56000000000000005,0
281,1782582366955,0.20999999999999999,-0.56000000000000005,0.070000000000000007
282,1782582367004,0.20999999999999999,-0.48999999999999999,0.070000000000000007
283,1782582367071,0.20999999999999999,-0.48999999999999999,0
284,1782582367121,0.20999999999999999,-0.48999999999999999,0
285,1782582367170,0.20999999999999999,-0.48999999999999999,0.070000000000000007
286,1782582367321,0.14000000000000001,-0.48999999999999999,0.070000000000000007
287,1782582367371,0.20999999999999999,-0.48999999999999999,0.070000000000000007
288,1782582367387,0.20999999999999999,-0.48999999999999999,0.070000000000000007
289,1782582367404,0.20999999999999999,-0.48999999999999999,0.070000000000000007
290,1782582367437,0.20999999999999999,-0.48999999999999999,0.070000000000000007
291,1782582367454,0.20999999999999999,-0.48999999999999999,0.070000000000000007
292,1782582367504,0.20999999999999999,-0.48999999999999999,0.070000000000000007
293,1782582367554,0.20999999999999999,-0.48999999999999999,0.070000000000000007
294,1782582367570,0.28000000000000003,-0.48999999999999999,0.070000000000000007
295,1782582367620,0.28000000000000003,-0.56000000000000005,0.070000000000000007
296,1782582367670,0.28000000000000003,-0.56000000000000005,0.070000000000000007
297,1782582367737,0.28000000000000003,-0.56000000000000005,0.070000000000000007
298,1782582367820,0.28000000000000003,-0.56000000000000005,0.070000000000000007
299,1782582367887,0.28000000000000003,-0.56000000000000005,0.070000000000000007
300,1782582367920,0.28000000000000003,-0.63,0
301,1782582368003,0.28000000000000003,-0.48999999999999999,0
302,1782582368103,0.20999999999999999,-0.63,0.070000000000000007
303,1782582368154,0.20999999999999999,-0.48999999999999999,0.070000000000000007
304,1782582368170,0.14000000000000001,-0.48999999999999999,0.070000000000000007
305,1782582368186,0.20999999999999999,-0.48999999999999999,0.070000000000000007
306,1782582368220,0.20999999999999999,-0.48999999999999999,0.070000000000000007
307,1782582368253,0.14000000000000001,-0.48999999999999999,0
308,1782582368286,0.14000000000000001,-0.48999999999999999,0
309,1782582368303,0.20999999999999999,-0.48999999999999999,0
310,1782582368320,0.20999999999999999,-0.48999999999999999,0
311,1782582368353,0.20999999999999999,-0.48999999999999999,0.070000000000000007
312,1782582368386,0.28000000000000003,-0.56000000000000005,0.070000000000000007
313,1782582368420,0.20999999999999999,-0.48999999999999999,0.070000000000000007
314,1782582368486,6.7199999999999998,-0.48999999999999999,0.070000000000000007
315,1782582368519,0.20999999999999999,-0.56000000000000005,0.070000000000000007
316,1782582368586,0.20999999999999999,-0.56000000000000005,0.070000000000000007
317,1782582368603,0.20999999999999999,-0.48999999999999999,0.070000000000000007
318,1782582368670,0.20999999999999999,-0.48999999999999999,0.070000000000000007
319,1782582368719,0.20999999999999999,-0.48999999999999999,0.070000000000000007
320,1782582368803,0.20999999999999999,-0.48999999999999999,0.070000000000000007
321,1782582368836,0.20999999999999999,-0.48999999999999999,0.070000000000000007
322,1782582368903,0.20999999999999999,-0.48999999999999999,0.070000000000000007
323,1782582368936,0.20999999999999999,-0.48999999999999999,0.070000000000000007
324,1782582368969,0.14000000000000001,-0.48999999999999999,0.070000000000000007
325,1782582369002,0.14000000000000001,-0.48999999999999999,0.070000000000000007
326,1782582369053,0.20999999999999999,-0.56000000000000005,0.070000000000000007
327,1782582369069,0.14000000000000001,-0.56000000000000005,0.070000000000000007
328,1782582369102,0.14000000000000001,-0.56000000000000005,0
329,1782582369153,0.14000000000000001,-0.56000000000000005,0.070000000000000007
330,1782582369185,0.14000000000000001,-0.48999999999999999,0
331,1782582369220,0.14000000000000001,-0.48999999999999999,0.070000000000000007
332,1782582369286,179.34,-0.48999999999999999,0
333,1782582369303,0.14000000000000001,-0.48999999999999999,0.070000000000000007
334,1782582369319,0.14000000000000001,-0.48999999999999999,0.070000000000000007
335,1782582369352,0.14000000000000001,-0.48999999999999999,0.070000000000000007
336,1782582369419,0.20999999999999999,-0.48999999999999999,0
337,1782582369452,0.20999999999999999,-0.48999999999999999,0
338,1782582369519,0.20999999999999999,-0.48999999999999999,0
339,1782582369569,0.20999999999999999,-0.48999999999999999,0.070000000000000007
340,1782582369618,0.20999999999999999,-0.48999999999999999,0.070000000000000007
341,1782582369669,0.20999999999999999,-0.56000000000000005,0.070000000000000007
342,1782582369719,0.20999999999999999,-0.56000000000000005,0.070000000000000007
343,1782582369786,0.20999999999999999,-0.56000000000000005,0
344,1782582369835,0.20999999999999999,-0.56000000000000005,0
345,1782582369869,0.20999999999999999,-0.56000000000000005,0.070000000000000007
346,1782582369919,0.20999999999999999,-0.56000000000000005,0.070000000000000007
347,1782582369935,0.20999999999999999,-0.56000000000000005,0.070000000000000007
348,1782582370019,0.20999999999999999,-0.56000000000000005,0
349,1782582370068,0.20999999999999999,-0.56000000000000005,0.070000000000000007
350,1782582370118,0.20999999999999999,-0.56000000000000005,0.070000000000000007
351,1782582370135,0.14000000000000001,-0.48999999999999999,0
352,1782582370202,0.14000000000000001,-0.48999999999999999,0
353,1782582370251,0.14000000000000001,-0.48999999999999999,0
354,1782582370269,0.14000000000000001,-0.48999999999999999,0
355,1782582370302,0.14000000000000001,-0.48999999999999999,0
356,1782582370351,0.20999999999999999,-0.48999999999999999,0
357,1782582370418,0.28000000000000003,-0.41999999999999998,0.070000000000000007
358,1782582370518,0.28000000000000003,-0.41999999999999998,0
359,1782582370585,0.14000000000000001,-0.41999999999999998,0
360,1782582370618,0.070000000000000007,-0.41999999999999998,0.070000000000000007
361,1782582370635,0.070000000000000007,-0.41999999999999998,0.070000000000000007
362,1782582370651,0.070000000000000007,-0.56000000000000005,0.070000000000000007
363,1782582370884,0.20999999999999999,-0.48999999999999999,0
364,1782582370951,0.28000000000000003,-0.48999999999999999,0
365,1782582371001,0.20999999999999999,-0.63,0.070000000000000007
366,1782582371068,0.20999999999999999,-0.63,0.070000000000000007
367,1782582371134,0.14000000000000001,-0.63,0.070000000000000007
368,1782582371201,0.20999999999999999,-0.56000000000000005,0.070000000000000007
369,1782582371267,0.20999999999999999,-0.48999999999999999,0.070000000000000007
370,1782582371318,0.20999999999999999,-0.48999999999999999,0.070000000000000007
371,1782582371367,0.20999999999999999,-0.48999999999999999,0.070000000000000007
372,1782582371417,0.20999999999999999,-0.48999999999999999,0.070000000000000007
373,1782582371484,0.20999999999999999,-0.48999999999999999,0.070000000000000007
374,1782582371534,0.20999999999999999,-0.56000000000000005,0.070000000000000007
375,1782582371684,0.20999999999999999,-0.56000000000000005,0.070000000000000007
376,1782582371734,0.20999999999999999,-0.56000000000000005,0.070000000000000007
377,1782582371783,0.20999999999999999,-0.56000000000000005,0.070000000000000007
378,1782582371833,0.20999999999999999,-0.56000000000000005,0
379,1782582371884,0.28000000000000003,-0.56000000000000005,0.070000000000000007
380,1782582371950,0.28000000000000003,-0.56000000000000005,0.14000000000000001
381,1782582371983,0.28000000000000003,-0.48999999999999999,0.070000000000000007
382,1782582372017,0.20999999999999999,-0.48999999999999999,0.070000000000000007
383,1782582372050,0.20999999999999999,-0.48999999999999999,0.070000000000000007
384,1782582372067,0.20999999999999999,-0.48999999999999999,0.070000000000000007
385,1782582372100,0.20999999999999999,-0.48999999999999999,0
386,1782582372133,0.14000000000000001,-0.48999999999999999,0
387,1782582372167,0.20999999999999999,-0.56000000000000005,0.070000000000000007
388,1782582372234,0.20999999999999999,-0.56000000000000005,0.070000000000000007
389,1782582372283,0.20999999999999999,-0.56000000000000005,0.070000000000000007
390,1782582372350,0.20999999999999999,-0.56000000000000005,0
391,1782582372384,0.20999999999999999,-0.56000000000000005,0.070000000000000007
392,1782582372417,0.20999999999999999,-0.48999999999999999,0.070000000000000007
393,1782582372433,0.20999999999999999,-0.56000000000000005,0.070000000000000007
394,1782582372483,0.20999999999999999,-0.56000000000000005,0.070000000000000007
395,1782582372550,0.20999999999999999,-0.56000000000000005,0.070000000000000007
396,1782582372600,0.20999999999999999,-0.48999999999999999,0.070000000000000007
397,1782582372666,0.20999999999999999,-0.48999999999999999,0.070000000000000007
398,1782582372683,0.20999999999999999,-0.48999999999999999,0
399,1782582372699,0.20999999999999999,-0.56000000000000005,0
400,1782582372717,0.34999999999999998,-0.56000000000000005,0.070000000000000007
401,1782582372783,0.28000000000000003,-0.56000000000000005,0
402,1782582372833,0.28000000000000003,-0.56000000000000005,0
403,1782582372949,0.20999999999999999,-0.56000000000000005,0
404,1782582373149,0.28000000000000003,-0.48999999999999999,0.070000000000000007
405,1782582373199,0.28000000000000003,-0.48999999999999999,0.070000000000000007
406,1782582373266,0.20999999999999999,-0.48999999999999999,0.070000000000000007
407,1782582373332,0.20999999999999999,-0.56000000000000005,0
408,1782582373383,0.20999999999999999,-0.48999999999999999,0
409,1782582373449,0.20999999999999999,-0.48999999999999999,0.070000000000000007
410,1782582373565,0.20999999999999999,-0.48999999999999999,0.070000000000000007
411,1782582373765,0.20999999999999999,-0.56000000000000005,0.070000000000000007
412,1782582373815,0.28000000000000003,-0.56000000000000005,0.070000000000000007
413,1782582373865,0.20999999999999999,-0.48999999999999999,0
414,1782582373932,0.20999999999999999,-0.48999999999999999,0.070000000000000007
415,1782582374015,0.20999999999999999,-0.48999999999999999,0.070000000000000007
416,1782582374115,0.20999999999999999,-0.48999999999999999,0.070000000000000007
417,1782582374165,0.20999999999999999,-0.48999999999999999,0.070000000000000007
418,1782582374181,0.20999999999999999,-0.56000000000000005,0
419,1782582374282,0.20999999999999999,-0.56000000000000005,0.070000000000000007
420,1782582374348,0.20999999999999999,-0.56000000000000005,0.070000000000000007
421,1782582374398,0.20999999999999999,-0.48999999999999999,0.070000000000000007
422,1782582374448,0.20999999999999999,-0.48999999999999999,0.070000000000000007
423,1782582374499,0.20999999999999999,-0.48999999999999999,0
424,1782582374631,0.20999999999999999,-0.56000000000000005,0
425,1782582374664,0.28000000000000003,-0.56000000000000005,0
426,1782582374715,0.28000000000000003,-0.56000000000000005,0.070000000000000007
427,1782582374731,0.28000000000000003,-0.56000000000000005,0.070000000000000007
428,1782582374764,0.28000000000000003,-0.56000000000000005,0.070000000000000007
429,1782582374781,0.20999999999999999,-0.48999999999999999,0
430,1782582374897,0.20999999999999999,-0.56000000000000005,0.070000000000000007
431,1782582374981,0.20999999999999999,-0.56000000000000005,0.070000000000000007
432,1782582375031,0.20999999999999999,-0.56000000000000005,0.070000000000000007
433,1782582375064,0.14000000000000001,-0.56000000000000005,0.070000000000000007
434,1782582375131,0.14000000000000001,-0.56000000000000005,0
435,1782582375198,0.14000000000000001,-0.48999999999999999,0
436,1782582375231,0.14000000000000001,-0.48999999999999999,0
437,1782582375280,0.070000000000000007,-0.56000000000000005,0
438,1782582375314,0.14000000000000001,-0.56000000000000005,0
439,1782582375347,0.14000000000000001,-0.56000000000000005,0
440,1782582375364,0.28000000000000003,-0.56000000000000005,0
441,1782582375414,0.28000000000000003,-0.56000000000000005,0
442,1782582375647,0.28000000000000003,-0.69999999999999996,0.14000000000000001
443,1782582375697,0.28000000000000003,-0.41999999999999998,0.14000000000000001
444,1782582375747,0.20999999999999999,-0.69999999999999996,0.14000000000000001
445,1782582375797,0.20999999999999999,-0.69999999999999996,0.14000000000000001
446,1782582375846,0.20999999999999999,-0.69999999999999996,0.14000000000000001
447,1782582375896,0.20999999999999999,-0.48999999999999999,0
448,1782582375947,0.20999999999999999,-0.41999999999999998,0
449,1782582375996,0.20999999999999999,-0.41999999999999998,0.070000000000000007
450,1782582376047,0.20999999999999999,-0.48999999999999999,0.070000000000000007
451,1782582376146,0.20999999999999999,-0.63,0.070000000000000007
452,1782582376180,0.28000000000000003,-0.48999999999999999,0.070000000000000007
453,1782582376247,0.28000000000000003,-0.48999999999999999,0.070000000000000007
454,1782582376296,0.28000000000000003,-0.48999999999999999,0
455,1782582376363,0.14000000000000001,-0.48999999999999999,0
456,1782582376447,0.14000000000000001,-0.48999999999999999,0
457,1782582376480,0.20999999999999999,-0.48999999999999999,0.14000000000000001
458,1782582376579,0.20999999999999999,-0.41999999999999998,0.14000000000000001
459,1782582376630,0.28000000000000003,-0.41999999999999998,0.14000000000000001
460,1782582376679,0.28000000000000003,-0.41999999999999998,0.20999999999999999
461,1782582376730,0.28000000000000003,-0.48999999999999999,0.20999999999999999
462,1782582376779,0.28000000000000003,-0.48999999999999999,0.14000000000000001
463,1782582376829,0.20999999999999999,-0.48999999999999999,0.14000000000000001
464,1782582376879,0.20999999999999999,-0.48999999999999999,0.14000000000000001
465,1782582376930,0.14000000000000001,-0.48999999999999999,0.14000000000000001
466,1782582376979,0.14000000000000001,-0.48999999999999999,0.14000000000000001
467,1782582377029,0.14000000000000001,-0.48999999999999999,0.14000000000000001
468,1782582377079,0.20999999999999999,-0.48999999999999999,0.070000000000000007
469,1782582377146,0.20999999999999999,-0.48999999999999999,0.070000000000000007
470,1782582377196,0.20999999999999999,-0.48999999999999999,-0.070000000000000007
471,1782582377262,0.14000000000000001,-0.41999999999999998,-0.070000000000000007
472,1782582377329,0.20999999999999999,-0.48999999999999999,0.070000000000000007
473,1782582377362,0.20999999999999999,-0.48999999999999999,0
474,1782582377429,0.20999999999999999,-0.48999999999999999,0
475,1782582377496,0.20999999999999999,-0.63,0.070000000000000007
476,1782582377595,0.20999999999999999,-0.63,0.070000000000000007
477,1782582377629,0.20999999999999999,-0.48999999999999999,0.070000000000000007
478,1782582377645,0.14000000000000001,-0.63,0.070000000000000007
479,1782582377678,0.14000000000000001,-0.48999999999999999,0.070000000000000007
480,1782582377712,0.14000000000000001,-0.41999999999999998,0.070000000000000007
481,1782582377779,0.14000000000000001,-0.48999999999999999,0.070000000000000007
482,1782582377829,0.20999999999999999,-0.48999999999999999,0.070000000000000007
483,1782582377928,0.14000000000000001,-0.41999999999999998,0
484,1782582378012,0.14000000000000001,-0.41999999999999998,0
485,1782582378045,0.14000000000000001,-0.48999999999999999,0
486,1782582378061,0.14000000000000001,-0.63,0
487,1782582378095,0.20999999999999999,-0.63,0.070000000000000007
488,1782582378145,0.20999999999999999,-0.63,0.070000000000000007
489,1782582378211,0.28000000000000003,-0.56000000000000005,0
490,1782582378261,0.28000000000000003,-0.41999999999999998,0
491,1782582378295,0.28000000000000003,-0.56000000000000005,0
492,1782582378394,0.28000000000000003,-0.48999999999999999,0
493,1782582378428,0.20999999999999999,-0.48999999999999999,0
494,1782582378461,0.20999999999999999,-0.56000000000000005,0
495,1782582378511,0.20999999999999999,-0.56000000000000005,0
496,1782582378561,0.20999999999999999,-0.56000000000000005,0
497,1782582378594,0.20999999999999999,-0.56000000000000005,0
498,1782582378611,0.20999999999999999,-0.56000000000000005,0
499,1782582378695,0.20999999999999999,-0.48999999999999999,0
500,1782582378744,0.20999999999999999,-0.77000000000000002,0
501,1782582378778,0.28000000000000003,-0.41999999999999998,0
502,1782582378878,0.28000000000000003,-0.48999999999999999,0.070000000000000007
503,1782582378927,0.20999999999999999,-0.41999999999999998,0.070000000000000007
504,1782582378978,0.14000000000000001,-0.41999999999999998,0.070000000000000007
505,1782582379027,0.20999999999999999,-0.56000000000000005,0
506,1782582379077,0.20999999999999999,-0.56000000000000005,0
507,1782582379144,0.20999999999999999,-0.41999999999999998,-0.070000000000000007
508,1782582379194,0.20999999999999999,-0.41999999999999998,-0.070000000000000007
509,1782582379227,0.28000000000000003,-0.41999999999999998,-0.070000000000000007
510,1782582379244,0.28000000000000003,-0.41999999999999998,0
511,1782582379277,0.28000000000000003,-0.41999999999999998,0
512,1782582379294,0.28000000000000003,-0.41999999999999998,0.070000000000000007
513,1782582379310,0.28000000000000003,-0.48999999999999999,0.070000000000000007
514,1782582379361,0.28000000000000003,-0.41999999999999998,0.070000000000000007
515,1782582379377,0.28000000000000003,-0.41999999999999998,0.070000000000000007
516,1782582379410,0.20999999999999999,-0.41999999999999998,0.070000000000000007
517,1782582379460,0.20999999999999999,-0.48999999999999999,0.070000000000000007
518,1782582379494,0.20999999999999999,-0.56000000000000005,0.070000000000000007
519,1782582379560,0.14000000000000001,-0.56000000000000005,0
520,1782582379627,0.20999999999999999,-0.48999999999999999,0.070000000000000007
521,1782582379710,0.20999999999999999,-0.56000000000000005,0.070000000000000007
522,1782582379760,0.14000000000000001,-0.48999999999999999,0.070000000000000007
523,1782582379777,0.14000000000000001,-0.48999999999999999,0
524,1782582379794,0.14000000000000001,-0.48999999999999999,0.070000000000000007
525,1782582379827,0.14000000000000001,-0.63,0.070000000000000007
526,1782582379860,0.14000000000000001,-0.56000000000000005,0.070000000000000007
527,1782582379926,0.20999999999999999,-0.56000000000000005,0.070000000000000007
528,1782582379943,0.20999999999999999,-0.56000000000000005,0.070000000000000007
529,1782582379960,0.14000000000000001,-0.56000000000000005,0.070000000000000007
530,1782582379994,0.14000000000000001,-0.56000000000000005,0.070000000000000007
531,1782582380043,0.14000000000000001,-0.48999999999999999,0
532,1782582380093,0.14000000000000001,-0.48999999999999999,0
533,1782582380177,0.20999999999999999,-0.48999999999999999,0
534,1782582380243,0.20999999999999999,-0.56000000000000005,0.070000000000000007
535,1782582380277,0.28000000000000003,-0.56000000000000005,0.070000000000000007
536,1782582380310,0.20999999999999999,-0.56000000000000005,0.070000000000000007
537,1782582380376,0.20999999999999999,-0.56000000000000005,0.070000000000000007
538,1782582380409,0.28000000000000003,-0.56000000000000005,0
539,1782582380443,0.20999999999999999,-0.48999999999999999,0
540,1782582380510,0.20999999999999999,-0.48999999999999999,0.070000000000000007
541,1782582380559,0.20999999999999999,-0.48999999999999999,0
542,1782582380577,0.20999999999999999,-0.56000000000000005,0
543,1782582380610,0.20999999999999999,-0.56000000000000005,0
544,1782582380626,0.28000000000000003,-0.56000000000000005,0.070000000000000007
545,1782582380643,0.20999999999999999,-0.48999999999999999,0
546,1782582380676,0.28000000000000003,-0.48999999999999999,0.070000000000000007
547,1782582380826,0.20999999999999999,-0.56000000000000005,0.070000000000000007
548,1782582380876,0.20999999999999999,-0.56000000000000005,0.070000000000000007
549,1782582380926,0.20999999999999999,-0.56000000000000005,0
550,1782582380943,0.20999999999999999,-0.56000000000000005,0
551,1782582380959,0.28000000000000003,-0.48999999999999999,0
552,1782582380992,0.28000000000000003,-0.48999999999999999,0
553,1782582381009,0.28000000000000003,-0.41999999999999998,0
554,1782582381059,0.28000000000000003,-0.41999999999999998,0
555,1782582381076,0.20999999999999999,-0.69999999999999996,0.070000000000000007
556,1782582381143,0.28000000000000003,-0.63,0.070000000000000007
557,1782582381159,0.28000000000000003,-0.63,0.070000000000000007
558,1782582381192,0.28000000000000003,-0.56000000000000005,0
559,1782582381209,0.28000000000000003,-0.41999999999999998,0
560,1782582381293,0.28000000000000003,-0.41999999999999998,0
561,1782582381408,0.20999999999999999,-0.48999999999999999,0.070000000000000007
562,1782582381443,0.20999999999999999,-0.56000000000000005,0.070000000000000007
563,1782582381476,0.28000000000000003,-0.48999999999999999,0.070000000000000007
564,1782582381508,0,-0.41999999999999998,0.070000000000000007
565,1782582381526,0,-0.48999999999999999,0.070000000000000007
566,1782582381542,0.14000000000000001,-0.48999999999999999,0.070000000000000007
567,1782582381592,0.14000000000000001,-0.48999999999999999,0.070000000000000007
568,1782582381642,0.14000000000000001,-0.48999999999999999,0
569,1782582381692,0.14000000000000001,-0.56000000000000005,0.070000000000000007
570,1782582381742,0.20999999999999999,-0.48999999999999999,0
571,1782582381792,0.20999999999999999,-0.48999999999999999,0
572,1782582381859,0.20999999999999999,-0.48999999999999999,0
573,1782582381942,0.20999999999999999,-0.48999999999999999,0
574,1782582381991,0.20999999999999999,-0.48999999999999999,0
575,1782582382075,0.20999999999999999,-0.56000000000000005,0.070000000000000007
576,1782582382125,0.20999999999999999,-0.56000000000000005,0.070000000000000007
577,1782582382158,0.20999999999999999,-0.56000000000000005,0.070000000000000007
578,1782582382225,0.20999999999999999,-0.56000000000000005,0
579,1782582382258,0.20999999999999999,-0.56000000000000005,0
580,1782582382326,0.14000000000000001,-0.63,0.070000000000000007
581,1782582382358,0.14000000000000001,-0.63,0.070000000000000007
582,1782582382409,0.14000000000000001,-0.48999999999999999,0
583,1782582382458,0.20999999999999999,-0.48999999999999999,0
584,1782582382508,0.20999999999999999,-0.48999999999999999,0
585,1782582382574,0.28000000000000003,-0.56000000000000005,0.070000000000000007
586,1782582382592,0.28000000000000003,-0.48999999999999999,0.070000000000000007
587,1782582382608,0.28000000000000003,-0.56000000000000005,0.070000000000000007
588,1782582382658,0.28000000000000003,-0.56000000000000005,0.070000000000000007
589,1782582382707,0.28000000000000003,-0.56000000000000005,0.070000000000000007
590,1782582382758,0.20999999999999999,-0.56000000000000005,0.070000000000000007
591,1782582382808,0.28000000000000003,-0.56000000000000005,0.070000000000000007
592,1782582382874,0.28000000000000003,-0.56000000000000005,0.070000000000000007
593,1782582382908,0.14000000000000001,-0.48999999999999999,0
594,1782582383057,0.14000000000000001,-0.48999999999999999,0.070000000000000007
595,1782582383091,0.14000000000000001,-0.56000000000000005,0.070000000000000007
596,1782582383140,0.14000000000000001,-0.56000000000000005,0
597,1782582383157,0.28000000000000003,-0.48999999999999999,0.070000000000000007
598,1782582383191,0.14000000000000001,-0.48999999999999999,0
599,1782582383224,0.20999999999999999,-0.48999999999999999,0
600,1782582383257,0.20999999999999999,-0.48999999999999999,0
601,1782582383308,0.20999999999999999,-0.48999999999999999,0
602,1782582383407,0.20999999999999999,-0.48999999999999999,0
603,1782582383441,0.20999999999999999,-0.56000000000000005,0.070000000000000007
604,1782582383457,0.20999999999999999,-0.48999999999999999,0.070000000000000007
605,1782582383490,0.20999999999999999,-0.48999999999999999,0.070000000000000007
606,1782582383524,0.20999999999999999,-0.48999999999999999,0
607,1782582383591,0.20999999999999999,-0.48999999999999999,0.070000000000000007
608,1782582383673,0.20999999999999999,-0.56000000000000005,0.070000000000000007
609,1782582383741,0.34999999999999998,-0.41999999999999998,0
610,1782582383757,0.34999999999999998,-0.41999999999999998,0.070000000000000007
611,1782582383774,0.28000000000000003,-0.48999999999999999,0.070000000000000007
612,1782582383824,0.20999999999999999,-0.48999999999999999,0.070000000000000007
613,1782582383874,0.20999999999999999,-0.41999999999999998,0.070000000000000007
614,1782582383907,0.14000000000000001,-0.48999999999999999,0.070000000000000007
615,1782582383956,0.14000000000000001,-0.48999999999999999,0.070000000000000007
616,1782582384006,0.20999999999999999,-0.56000000000000005,0
617,1782582384057,0.20999999999999999,-0.56000000000000005,0
618,1782582384140,0.20999999999999999,-0.56000000000000005,0.070000000000000007
619,1782582384173,0.20999999999999999,-0.56000000000000005,0.070000000000000007
620,1782582384223,0.28000000000000003,-0.56000000000000005,0.070000000000000007
621,1782582384324,0.28000000000000003,-0.56000000000000005,0.070000000000000007
622,1782582384390,0.20999999999999999,-0.48999999999999999,0
623,1782582384439,0.20999999999999999,-0.48999999999999999,0
624,1782582384490,0.20999999999999999,-0.48999999999999999,0
625,1782582384557,0.28000000000000003,-0.48999999999999999,0
626,1782582384589,0.28000000000000003,-0.48999999999999999,0
627,1782582384640,0.28000000000000003,-0.48999999999999999,0.070000000000000007
628,1782582384706,0.28000000000000003,-0.48999999999999999,0
629,1782582384756,0.28000000000000003,-0.41999999999999998,0
630,1782582384806,0.28000000000000003,-0.48999999999999999,0.070000000000000007
631,1782582384856,0.070000000000000007,-0.48999999999999999,0.070000000000000007
632,1782582384939,0.070000000000000007,-0.56000000000000005,0.070000000000000007
633,1782582384972,0.34999999999999998,-0.48999999999999999,-0.070000000000000007
634,1782582385056,0.34999999999999998,-0.48999999999999999,-0.070000000000000007
635,1782582385106,0.34999999999999998,-0.48999999999999999,-0.070000000000000007
636,1782582385155,0.34999999999999998,-0.48999999999999999,-0.070000000000000007
637,1782582385206,0.20999999999999999,-0.41999999999999998,-0.070000000000000007
638,1782582385256,0.20999999999999999,-0.48999999999999999,0.070000000000000007
639,1782582385306,0.20999999999999999,-0.56000000000000005,0.070000000000000007
640,1782582385339,0.14000000000000001,-0.63,0.070000000000000007
641,1782582385405,0.14000000000000001,-0.63,0.070000000000000007
642,1782582385455,0.14000000000000001,-0.56000000000000005,0.070000000000000007
643,1782582385522,0.14000000000000001,-0.56000000000000005,0.070000000000000007
644,1782582385656,0.20999999999999999,-0.63,0
645,1782582385722,0.20999999999999999,-0.63,0
646,1782582385755,0.20999999999999999,-0.56000000000000005,0.070000000000000007
647,1782582385806,0.28000000000000003,-0.56000000000000005,0.070000000000000007
648,1782582385839,0.28000000000000003,-0.48999999999999999,0.070000000000000007
649,1782582385888,0.28000000000000003,-0.48999999999999999,0
650,1782582386055,0.20999999999999999,-0.56000000000000005,0
651,1782582386105,0.20999999999999999,-0.56000000000000005,0
652,1782582386138,0.14000000000000001,-0.48999999999999999,0.070000000000000007
653,1782582386188,0.14000000000000001,-0.48999999999999999,0.070000000000000007
654,1782582386305,0.14000000000000001,-0.56000000000000005,0.070000000000000007
655,1782582386405,0.14000000000000001,-0.56000000000000005,0.070000000000000007
656,1782582386438,0.20999999999999999,-0.56000000000000005,0.070000000000000007
657,1782582386504,0.20999999999999999,-0.56000000000000005,0.070000000000000007
658,1782582386554,0.20999999999999999,-0.56000000000000005,0.070000000000000007
659,1782582386604,0.14000000000000001,-0.56000000000000005,0.070000000000000007
660,1782582386671,0.14000000000000001,-0.56000000000000005,0.070000000000000007
661,1782582386688,0.14000000000000001,-0.56000000000000005,0.070000000000000007
662,1782582386704,0.14000000000000001,-0.56000000000000005,0.070000000000000007
663,1782582386721,0.14000000000000001,-0.56000000000000005,0.070000000000000007
664,1782582386754,0.20999999999999999,-0.48999999999999999,0
665,1782582386821,0.20999999999999999,-0.48999999999999999,0
666,1782582386888,0.20999999999999999,-0.48999999999999999,0.070000000000000007
667,1782582386954,0.20999999999999999,-0.48999999999999999,0.070000000000000007
668,1782582387021,0.34999999999999998,-0.34999999999999998,0.14000000000000001
669,1782582387087,0.34999999999999998,-0.34999999999999998,0.070000000000000007
670,1782582387139,0.28000000000000003,-0.34999999999999998,0.14000000000000001
671,1782582387187,0.20999999999999999,-0.41999999999999998,0.070000000000000007
672,1782582387238,0.20999999999999999,-0.48999999999999999,0.070000000000000007
673,1782582387304,0.20999999999999999,-0.56000000000000005,0.070000000000000007
674,1782582387337,0.28000000000000003,-0.48999999999999999,0.070000000000000007
675,1782582387404,0.20999999999999999,-0.56000000000000005,0.070000000000000007
676,1782582387471,0.14000000000000001,-0.56000000000000005,0.070000000000000007
677,1782582387570,0.14000000000000001,-0.56000000000000005,0.070000000000000007
678,1782582387620,0.20999999999999999,-0.63,0.070000000000000007
679,1782582387671,0.14000000000000001,-0.48999999999999999,0.070000000000000007
680,1782582387737,0.14000000000000001,-0.48999999999999999,0.070000000000000007
681,1782582387770,0.14000000000000001,-0.48999999999999999,0.070000000000000007
682,1782582387820,0.20999999999999999,-0.48999999999999999,0.070000000000000007
683,1782582387870,0.070000000000000007,-0.63,0
684,1782582387920,0.070000000000000007,-0.48999999999999999,0
685,1782582387987,0.070000000000000007,-0.48999999999999999,0
686,1782582388037,0.14000000000000001,-0.41999999999999998,0
687,1782582388086,0.20999999999999999,-0.41999999999999998,0
688,1782582388153,0.20999999999999999,-0.56000000000000005,0.070000000000000007
689,1782582388203,0.20999999999999999,-0.56000000000000005,0.070000000000000007
690,1782582388253,0.20999999999999999,-0.48999999999999999,0.070000000000000007
691,1782582388319,0.28000000000000003,-0.48999999999999999,0
692,1782582388370,0.28000000000000003,-0.48999999999999999,0
693,1782582388436,0.20999999999999999,-0.48999999999999999,0
694,1782582388453,0.20999999999999999,-0.48999999999999999,0.070000000000000007
695,1782582388470,0.20999999999999999,-0.56000000000000005,0
696,1782582388519,0.20999999999999999,-0.56000000000000005,0
697,1782582388586,0.20999999999999999,-0.56000000000000005,0
698,1782582388619,0.20999999999999999,-0.56000000000000005,0
699,1782582388686,0.28000000000000003,-0.48999999999999999,0.070000000000000007
700,1782582388719,0.20999999999999999,-0.48999999999999999,0.070000000000000007
701,1782582388753,0.20999999999999999,-0.48999999999999999,0.070000000000000007
702,1782582388769,0.20999999999999999,-0.48999999999999999,0.070000000000000007
703,1782582388803,0.20999999999999999,-0.56000000000000005,0.070000000000000007
704,1782582388836,0.14000000000000001,-0.56000000000000005,0.070000000000000007
705,1782582388903,0.14000000000000001,-0.56000000000000005,0
706,1782582388953,0.14000000000000001,-0.56000000000000005,0
707,1782582389019,0.14000000000000001,-0.56000000000000005,0
708,1782582389152,0.28000000000000003,-0.56000000000000005,0.070000000000000007
709,1782582389220,0.28000000000000003,-0.56000000000000005,0.070000000000000007
710,1782582389319,0.28000000000000003,-0.56000000000000005,0
711,1782582389352,0.20999999999999999,-0.48999999999999999,0
712,1782582389419,0.20999999999999999,-0.56000000000000005,0
713,1782582389452,0.20999999999999999,-0.48999999999999999,0
714,1782582389518,0.20999999999999999,-0.56000000000000005,0
715,1782582389585,0.20999999999999999,-0.56000000000000005,0.070000000000000007
716,1782582389635,0.20999999999999999,-0.56000000000000005,0.070000000000000007
717,1782582389651,0.20999999999999999,-0.56000000000000005,0.14000000000000001
718,1782582389669,0.20999999999999999,-0.56000000000000005,0.14000000000000001
719,1782582389702,0.20999999999999999,-0.56000000000000005,0.070000000000000007
720,1782582389718,0.20999999999999999,-0.56000000000000005,0.070000000000000007
721,1782582389785,0.20999999999999999,-0.48999999999999999,0.070000000000000007
722,1782582389868,0.28000000000000003,-0.56000000000000005,0.070000000000000007
723,1782582389901,0.28000000000000003,-0.56000000000000005,0
724,1782582389935,0.28000000000000003,-0.56000000000000005,0
725,1782582390002,0.20999999999999999,-0.56000000000000005,0
726,1782582390068,0.20999999999999999,-0.48999999999999999,0.070000000000000007
727,1782582390102,0.20999999999999999,-0.48999999999999999,0.070000000000000007
728,1782582390134,0.28000000000000003,-0.56000000000000005,0.070000000000000007
729,1782582390185,0.28000000000000003,-0.56000000000000005,0.070000000000000007
730,1782582390268,0.28000000000000003,-0.56000000000000005,0.070000000000000007
731,1782582390318,0.28000000000000003,-0.56000000000000005,0.070000000000000007
732,1782582390335,0.20999999999999999,-0.56000000000000005,0.070000000000000007
733,1782582390401,0.20999999999999999,-0.63,0
734,1782582390451,0.20999999999999999,-0.63,0
735,1782582390518,0.20999999999999999,-0.56000000000000005,0
736,1782582390551,0.14000000000000001,-0.56000000000000005,-0.070000000000000007
737,1782582390635,0.20999999999999999,-0.56000000000000005,-0.070000000000000007
738,1782582390751,0.20999999999999999,-0.56000000000000005,0.14000000000000001
739,1782582390801,0.20999999999999999,-0.56000000000000005,0.070000000000000007
740,1782582390851,0.20999999999999999,-0.56000000000000005,0.070000000000000007
741,1782582390901,0.20999999999999999,-0.56000000000000005,0.070000000000000007
742,1782582390934,0.28000000000000003,-0.48999999999999999,0.070000000000000007
743,1782582391017,0.28000000000000003,-0.48999999999999999,0.070000000000000007
744,1782582391084,0.28000000000000003,-0.48999999999999999,0.070000000000000007
745,1782582391134,0.28000000000000003,-0.48999999999999999,0.070000000000000007
746,1782582391201,0.28000000000000003,-0.48999999999999999,0.070000000000000007
747,1782582391234,0.20999999999999999,-0.48999999999999999,0
748,1782582391267,0.20999999999999999,-0.48999999999999999,0.070000000000000007
749,1782582391334,0.14000000000000001,-0.56000000000000005,0.070000000000000007
750,1782582391384,0.14000000000000001,-0.56000000000000005,0.070000000000000007
751,1782582391450,0.14000000000000001,-0.48999999999999999,0.070000000000000007
752,1782582391484,0.14000000000000001,-0.48999999999999999,0.070000000000000007
753,1782582391534,0.20999999999999999,-0.56000000000000005,0.070000000000000007
754,1782582391600,0.28000000000000003,-0.56000000000000005,0.070000000000000007
755,1782582391716,0.28000000000000003,-0.41999999999999998,0.070000000000000007
756,1782582391750,0.28000000000000003,-0.41999999999999998,0
757,1782582391783,0.28000000000000003,-0.41999999999999998,0.070000000000000007
758,1782582391884,0.28000000000000003,-0.56000000000000005,0
759,1782582391917,0.28000000000000003,-0.56000000000000005,0
760,1782582391984,0.28000000000000003,-0.56000000000000005,0
761,1782582392033,0.28000000000000003,-0.56000000000000005,0
762,1782582392100,0.20999999999999999,-0.48999999999999999,0.070000000000000007
763,1782582392166,0.28000000000000003,-0.48999999999999999,0
764,1782582392300,0.28000000000000003,-0.48999999999999999,0
765,1782582392333,0.20999999999999999,-0.48999999999999999,0
766,1782582392383,0.20999999999999999,-0.48999999999999999,0
767,1782582392433,0.20999999999999999,-0.56000000000000005,0
768,1782582392483,0.20999999999999999,-0.56000000000000005,0
769,1782582392533,0.20999999999999999,-0.56000000000000005,0
770,1782582392583,0.20999999999999999,-0.56000000000000005,0.070000000000000007
771,1782582392633,0.20999999999999999,-0.48999999999999999,0
772,1782582392783,0.20999999999999999,-0.56000000000000005,0
773,1782582392832,0.20999999999999999,-0.48999999999999999,0
774,1782582392916,0.28000000000000003,-0.56000000000000005,0
775,1782582393082,0.20999999999999999,-0.48999999999999999,0.070000000000000007
776,1782582393232,0.20999999999999999,-0.41999999999999998,0.070000000000000007
777,1782582393315,0.20999999999999999,-0.48999999999999999,0.070000000000000007
778,1782582393399,0.20999999999999999,-0.56000000000000005,0.14000000000000001
779,1782582393465,0.20999999999999999,-0.56000000000000005,0.070000000000000007
780,1782582393516,0.28000000000000003,-0.56000000000000005,0
781,1782582393632,0.14000000000000001,-0.48999999999999999,0.070000000000000007
782,1782582393649,0.20999999999999999,-0.41999999999999998,0
783,1782582393699,0.14000000000000001,-0.41999999999999998,0
784,1782582393749,0.14000000000000001,-0.41999999999999998,0
785,1782582393815,0.14000000000000001,-0.48999999999999999,0
786,1782582393848,0.20999999999999999,-0.48999999999999999,0.070000000000000007
787,1782582393865,0.20999999999999999,-0.48999999999999999,0
788,1782582393915,0.20999999999999999,-0.48999999999999999,0
789,1782582393982,0.20999999999999999,-0.48999999999999999,0
790,1782582394015,0.20999999999999999,-0.48999999999999999,0
791,1782582394081,0.20999999999999999,-0.48999999999999999,0
792,1782582394181,0.20999999999999999,-0.48999999999999999,0
793,1782582394231,0.20999999999999999,-0.48999999999999999,0.070000000000000007
794,1782582394315,0.20999999999999999,-0.48999999999999999,0.070000000000000007
795,1782582394348,0.20999999999999999,-0.56000000000000005,0.070000000000000007
796,1782582394398,0.14000000000000001,-0.48999999999999999,0.070000000000000007
797,1782582394431,0.14000000000000001,-0.48999999999999999,0.070000000000000007
798,1782582394465,0.20999999999999999,-0.48999999999999999,0.070000000000000007
799,1782582394531,0.20999999999999999,-0.56000000000000005,0
800,1782582394631,0.14000000000000001,-0.56000000000000005,0
801,1782582394681,0.20999999999999999,-0.48999999999999999,0.070000000000000007
802,1782582394731,0.20999999999999999,-0.48999999999999999,0.070000000000000007
803,1782582394748,0.20999999999999999,-0.48999999999999999,0.070000000000000007
804,1782582394864,0.20999999999999999,-0.56000000000000005,0.070000000000000007
805,1782582394931,0.14000000000000001,-0.56000000000000005,0
806,1782582394981,0.28000000000000003,-0.56000000000000005,0
807,1782582395064,0.28000000000000003,-0.56000000000000005,0
808,1782582395080,0.28000000000000003,-0.56000000000000005,0.070000000000000007
809,1782582395114,0.28000000000000003,-0.48999999999999999,0.14000000000000001
810,1782582395130,0.20999999999999999,-0.48999999999999999,0.14000000000000001
811,1782582395164,0.20999999999999999,-0.48999999999999999,0.14000000000000001
812,1782582395247,0.20999999999999999,-0.63,0
813,1782582395347,0.20999999999999999,-0.48999999999999999,0
814,1782582395380,0.20999999999999999,-0.48999999999999999,0
815,1782582395447,0.20999999999999999,-0.41999999999999998,0
816,1782582395480,0.20999999999999999,-0.41999999999999998,0
817,1782582395514,0.20999999999999999,-0.41999999999999998,0
818,1782582395564,0.20999999999999999,-0.48999999999999999,0.070000000000000007
819,1782582395613,0.20999999999999999,-0.48999999999999999,0.070000000000000007
820,1782582395680,0.20999999999999999,-0.48999999999999999,0.070000000000000007
821,1782582395697,0.20999999999999999,-0.48999999999999999,0.070000000000000007
822,1782582395730,0.14000000000000001,-0.48999999999999999,0.070000000000000007
823,1782582395763,0.14000000000000001,-0.48999999999999999,0.070000000000000007
824,1782582395780,0.20999999999999999,-0.56000000000000005,0
825,1782582395830,0.14000000000000001,-0.56000000000000005,0
826,1782582395897,0.14000000000000001,-0.56000000000000005,0
827,1782582395946,0.14000000000000001,-0.56000000000000005,0
828,1782582395997,0.14000000000000001,-0.56000000000000005,0
829,1782582396047,0.14000000000000001,-0.56000000000000005,0
830,1782582396064,0.14000000000000001,-0.56000000000000005,0.070000000000000007
831,1782582396096,0.20999999999999999,-0.56000000000000005,0.070000000000000007
832,1782582396230,0.20999999999999999,-0.63,0.070000000000000007
833,1782582396280,0.20999999999999999,-0.56000000000000005,0.070000000000000007
834,1782582396313,0.20999999999999999,-0.56000000000000005,0.070000000000000007
835,1782582396329,0.20999999999999999,-0.48999999999999999,0.070000000000000007
836,1782582396347,0.20999999999999999,-0.48999999999999999,0.070000000000000007
837,1782582396380,0.28000000000000003,-0.48999999999999999,0.070000000000000007
838,1782582396413,0.28000000000000003,-0.48999999999999999,0.070000000000000007
839,1782582396446,0.28000000000000003,-0.56000000000000005,0.070000000000000007
840,1782582396512,0.34999999999999998,-0.56000000000000005,0.070000000000000007
841,1782582396563,0.34999999999999998,-0.56000000000000005,0.070000000000000007
842,1782582396579,0.20999999999999999,-0.56000000000000005,0.070000000000000007
843,1782582396613,0.28000000000000003,-0.56000000000000005,0.070000000000000007
844,1782582396646,0.20999999999999999,-0.56000000000000005,0
845,1782582396746,0.20999999999999999,-0.48999999999999999,0.070000000000000007
846,1782582396813,0.20999999999999999,-0.48999999999999999,0.070000000000000007
847,1782582396863,0.20999999999999999,-0.48999999999999999,0.070000000000000007
848,1782582396946,0.14000000000000001,-0.48999999999999999,0.070000000000000007
849,1782582396979,0.28000000000000003,-0.48999999999999999,0
850,1782582397029,0.20999999999999999,-0.48999999999999999,0
851,1782582397096,0.20999999999999999,-0.48999999999999999,0.070000000000000007
852,1782582397129,0.14000000000000001,-0.48999999999999999,0.070000000000000007
853,1782582397195,0.14000000000000001,-0.48999999999999999,0.070000000000000007
854,1782582397246,0.20999999999999999,-0.56000000000000005,0
855,1782582397312,0.20999999999999999,-0.56000000000000005,0
856,1782582397428,0.20999999999999999,-0.56000000000000005,0
857,1782582397479,0.20999999999999999,-0.56000000000000005,0.070000000000000007
858,1782582397512,0.20999999999999999,-0.48999999999999999,0.070000000000000007
859,1782582397628,0.28000000000000003,-0.56000000000000005,0.070000000000000007
860,1782582397712,0.28000000000000003,-0.56000000000000005,0.070000000000000007
861,1782582397761,0.28000000000000003,-0.56000000000000005,0.070000000000000007
862,1782582397811,0.34999999999999998,-0.41999999999999998,0
863,1782582397879,0.34999999999999998,-0.48999999999999999,0.070000000000000007
864,1782582397912,0.34999999999999998,-0.48999999999999999,0.070000000000000007
865,1782582397978,0.34999999999999998,-0.48999999999999999,0.070000000000000007
866,1782582398028,0.20999999999999999,-0.48999999999999999,0.070000000000000007
867,1782582398078,0.14000000000000001,-0.56000000000000005,0.070000000000000007
868,1782582398145,0.20999999999999999,-0.48999999999999999,0.070000000000000007
869,1782582398211,0.20999999999999999,-0.48999999999999999,0.070000000000000007
870,1782582398278,0.20999999999999999,-0.48999999999999999,0.070000000000000007
871,1782582398328,0.20999999999999999,-0.48999999999999999,0.070000000000000007
872,1782582398428,0.41999999999999998,-0.41999999999999998,0
873,1782582398494,0.28000000000000003,-0.41999999999999998,0
874,1782582398561,0.20999999999999999,-0.41999999999999998,0
875,1782582398611,0.14000000000000001,-0.41999999999999998,0
876,1782582398661,0.14000000000000001,-0.48999999999999999,0
877,1782582398794,0.14000000000000001,-0.48999999999999999,0
878,1782582398844,0.14000000000000001,-0.48999999999999999,0
879,1782582398894,0.14000000000000001,-0.56000000000000005,0
880,1782582398944,0.14000000000000001,-0.56000000000000005,0
881,1782582399010,0.14000000000000001,-0.56000000000000005,0.070000000000000007
882,1782582399094,0.14000000000000001,-0.48999999999999999,0.070000000000000007
883,1782582399177,0.14000000000000001,-0.48999999999999999,0.070000000000000007
884,1782582399227,0.14000000000000001,-0.48999999999999999,0.070000000000000007
885,1782582399344,0.20999999999999999,-0.48999999999999999,0.070000000000000007
886,1782582399427,0.20999999999999999,-0.48999999999999999,0
887,1782582399493,0.20999999999999999,-0.48999999999999999,0
888,1782582399510,0.20999999999999999,-0.48999999999999999,0
889,1782582399527,0.20999999999999999,-0.48999999999999999,0
890,1782582399560,0.20999999999999999,-0.48999999999999999,0.070000000000000007
891,1782582399660,0.20999999999999999,-0.48999999999999999,0.070000000000000007
892,1782582399777,0.20999999999999999,-0.48999999999999999,0.070000000000000007
893,1782582399793,0.20999999999999999,-0.48999999999999999,0
894,1782582399826,0.20999999999999999,-0.48999999999999999,0
895,1782582399877,0.20999999999999999,-0.48999999999999999,0
896,1782582399926,0.20999999999999999,-0.48999999999999999,0
897,1782582399976,0.20999999999999999,-0.48999999999999999,0
898,1782582400076,0.14000000000000001,-0.56000000000000005,0.070000000000000007
899,1782582400127,0.14000000000000001,-0.56000000000000005,0.070000000000000007
900,1782582400160,0.14000000000000001,-0.48999999999999999,0.070000000000000007
901,1782582400177,0.14000000000000001,-0.48999999999999999,0.070000000000000007
902,1782582400243,0.14000000000000001,-0.48999999999999999,0
903,1782582400277,0.14000000000000001,-0.48999999999999999,0
904,1782582400310,0.14000000000000001,-0.48999999999999999,0
905,1782582400343,0.20999999999999999,-0.48999999999999999,0.070000000000000007
906,1782582400393,0.20999999999999999,-0.48999999999999999,0.070000000000000007
907,1782582400443,0.20999999999999999,-0.56000000000000005,0.070000000000000007
908,1782582400526,0.20999999999999999,-0.48999999999999999,0
909,1782582400576,0.20999999999999999,-0.48999999999999999,0
910,1782582400593,0.20999999999999999,-0.56000000000000005,0
911,1782582400626,0.20999999999999999,-0.56000000000000005,0
912,1782582400659,0.20999999999999999,-0.48999999999999999,0
913,1782582400709,0.28000000000000003,-0.48999999999999999,0.070000000000000007
914,1782582400759,0.20999999999999999,-0.56000000000000005,0.070000000000000007
915,1782582400809,0.20999999999999999,-0.48999999999999999,0.070000000000000007
916,1782582400859,0.20999999999999999,-0.48999999999999999,0.070000000000000007
917,1782582400893,0.20999999999999999,-0.48999999999999999,0.070000000000000007
918,1782582400909,0.20999999999999999,-0.48999999999999999,0
919,1782582400959,0.20999999999999999,-0.48999999999999999,0
920,1782582401025,0.28000000000000003,-0.48999999999999999,0.070000000000000007
921,1782582401076,0.28000000000000003,-0.48999999999999999,0
922,1782582401109,0.20999999999999999,-0.48999999999999999,0.070000000000000007
923,1782582401125,0.20999999999999999,-0.48999999999999999,0.070000000000000007
924,1782582401142,0.20999999999999999,-0.48999999999999999,0.070000000000000007
925,1782582401176,0.20999999999999999,-0.48999999999999999,0.070000000000000007
926,1782582401209,0.28000000000000003,-0.48999999999999999,0.070000000000000007
927,1782582401309,0.20999999999999999,-0.56000000000000005,0.070000000000000007
928,1782582401342,0.20999999999999999,-0.56000000000000005,0.070000000000000007
929,1782582401375,0.20999999999999999,-0.56000000000000005,0.070000000000000007
930,1782582401443,0.20999999999999999,-0.48999999999999999,0.070000000000000007
931,1782582401642,0.20999999999999999,-0.56000000000000005,0.070000000000000007
932,1782582401675,0.20999999999999999,-0.56000000000000005,0.070000000000000007
933,1782582401692,0.20999999999999999,-0.56000000000000005,0.070000000000000007
934,1782582401725,0.20999999999999999,-0.56000000000000005,0.070000000000000007
935,1782582401741,0.20999999999999999,-0.56000000000000005,0.070000000000000007
936,1782582401758,0.20999999999999999,-0.56000000000000005,0.070000000000000007
937,1782582401792,0.20999999999999999,-0.56000000000000005,0
938,1782582401875,0.20999999999999999,-0.56000000000000005,0
939,1782582401958,0.28000000000000003,-0.48999999999999999,0
940,1782582401991,0.20999999999999999,-0.48999999999999999,0.070000000000000007
941,1782582402025,0.20999999999999999,-0.48999999999999999,0
942,1782582402042,0.20999999999999999,-0.48999999999999999,0.070000000000000007
943,1782582402075,0.20999999999999999,-0.48999999999999999,0.070000000000000007
944,1782582402125,0.20999999999999999,-0.48999999999999999,0
945,1782582402191,0.20999999999999999,-0.48999999999999999,0
946,1782582402241,0.20999999999999999,-0.48999999999999999,0.070000000000000007
947,1782582402291,0.20999999999999999,-0.48999999999999999,0.070000000000000007
948,1782582402358,0.20999999999999999,-0.48999999999999999,0.070000000000000007
949,1782582402391,0.28000000000000003,-0.48999999999999999,0.070000000000000007
950,1782582402441,0.28000000000000003,-0.48999999999999999,0.070000000000000007
951,1782582402508,0.28000000000000003,-0.48999999999999999,0.070000000000000007
952,1782582402575,0.28000000000000003,-0.48999999999999999,0.070000000000000007
953,1782582402608,0.28000000000000003,-0.48999999999999999,0.070000000000000007
954,1782582402625,0.28000000000000003,-0.48999999999999999,0
955,1782582402674,0.28000000000000003,-0.48999999999999999,0.070000000000000007
956,1782582402741,0.20999999999999999,-0.48999999999999999,0.070000000000000007
957,1782582402791,0.20999999999999999,-0.48999999999999999,0.070000000000000007
958,1782582402841,0.20999999999999999,-0.48999999999999999,0
959,1782582402890,0.20999999999999999,-0.48999999999999999,0.070000000000000007
960,1782582403024,0.28000000000000003,-0.48999999999999999,0
961,1782582403057,0.20999999999999999,-0.48999999999999999,0
962,1782582403124,0.20999999999999999,-0.48999999999999999,0
963,1782582403157,0.20999999999999999,-0.56000000000000005,0
964,1782582403190,0.20999999999999999,-0.56000000000000005,0
965,1782582403224,0.14000000000000001,-0.56000000000000005,0
966,1782582403273,0.20999999999999999,-0.56000000000000005,0
967,1782582403340,0.20999999999999999,-0.56000000000000005,0
968,1782582403390,0.20999999999999999,-0.48999999999999999,0
969,1782582403457,0.20999999999999999,-0.48999999999999999,0
970,1782582403490,0.20999999999999999,-0.48999999999999999,0
971,1782582403540,0.20999999999999999,-0.56000000000000005,0.070000000000000007
972,1782582403606,0.20999999999999999,-0.56000000000000005,0.070000000000000007
973,1782582403657,0.20999999999999999,-0.56000000000000005,0.070000000000000007
974,1782582403707,0.20999999999999999,-0.56000000000000005,0.070000000000000007
975,1782582403756,0.20999999999999999,-0.56000000000000005,0
976,1782582403840,0.28000000000000003,-0.48999999999999999,0.070000000000000007
977,1782582403873,0.28000000000000003,-0.48999999999999999,0.070000000000000007
978,1782582403923,0.20999999999999999,-0.56000000000000005,0.070000000000000007
979,1782582403990,0.20999999999999999,-0.56000000000000005,0.070000000000000007
980,1782582404040,0.20999999999999999,-0.56000000000000005,0
981,1782582404306,0.14000000000000001,-0.41999999999999998,0.070000000000000007
982,1782582404356,0.20999999999999999,-0.48999999999999999,0
983,1782582404456,0.20999999999999999,-0.48999999999999999,0
984,1782582404539,0.20999999999999999,-0.48999999999999999,0.070000000000000007
985,1782582404589,0.20999999999999999,-0.56000000000000005,0.070000000000000007
986,1782582404656,0.20999999999999999,-0.56000000000000005,0
987,1782582404673,0.20999999999999999,-0.56000000000000005,0
988,1782582404755,0.20999999999999999,-0.56000000000000005,0
989,1782582404889,0.28000000000000003,-0.56000000000000005,0
990,1782582404906,0.20999999999999999,-0.56000000000000005,0.070000000000000007
991,1782582405022,0.20999999999999999,-0.48999999999999999,0
992,1782582405039,0.20999999999999999,-0.48999999999999999,0
993,1782582405106,0.20999999999999999,-0.48999999999999999,0.070000000000000007
994,1782582405156,0.20999999999999999,-0.48999999999999999,0
995,1782582405205,0.20999999999999999,-0.48999999999999999,0
996,1782582405223,0.20999999999999999,-0.56000000000000005,0
997,1782582405256,0.20999999999999999,-0.56000000000000005,0.070000000000000007
998,1782582405272,0.14000000000000001,-0.56000000000000005,0.070000000000000007
999,1782582405305,0.14000000000000001,-0.56000000000000005,0.070000000000000007
1000,1782582405339,0.14000000000000001,-0.56000000000000005,0.070000000000000007
1001,1782582405389,0.20999999999999999,-0.56000000000000005,0.070000000000000007
1002,1782582405455,0.28000000000000003,-0.56000000000000005,0.070000000000000007
1003,1782582405455,0.20999999999999999,-0.56000000000000005,0
1004,1782582405555,0.20999999999999999,-0.56000000000000005,0.070000000000000007
1005,1782582405589,0.20999999999999999,-0.48999999999999999,0.070000000000000007
1006,1782582405622,0.20999999999999999,-0.48999999999999999,0
1007,1782582405688,0.20999999999999999,-0.48999999999999999,0.070000000000000007
1008,1782582405722,0.20999999999999999,-0.48999999999999999,0.070000000000000007
1009,1782582405788,0.20999999999999999,-0.48999999999999999,0
1010,1782582405839,0.20999999999999999,-0.48999999999999999,0
1011,1782582405855,0.20999999999999999,-0.48999999999999999,0.070000000000000007
1012,1782582405872,0.20999999999999999,-0.48999999999999999,0.070000000000000007
1013,1782582405905,0.20999999999999999,-0.48999999999999999,0.070000000000000007
1014,1782582405921,0.20999999999999999,-0.48999999999999999,0.070000000000000007
1015,1782582405955,0.20999999999999999,-0.48999999999999999,0
1016,1782582406006,0.20999999999999999,-0.48999999999999999,0
1017,1782582406056,0.20999999999999999,-0.48999999999999999,0.070000000000000007
1018,1782582406105,0.20999999999999999,-0.48999999999999999,0.070000000000000007
1019,1782582406172,0.20999999999999999,-0.56000000000000005,0
1020,1782582406205,0.20999999999999999,-0.41999999999999998,0
1021,1782582406271,0.20999999999999999,-0.56000000000000005,0
1022,1782582406388,0.20999999999999999,-0.48999999999999999,0
1023,1782582406439,0.20999999999999999,-0.48999999999999999,0.070000000000000007
1024,1782582406488,0.20999999999999999,-0.56000000000000005,0.070000000000000007
1025,1782582406538,0.20999999999999999,-0.56000000000000005,0.070000000000000007
1026,1782582406588,0.20999999999999999,-0.56000000000000005,0.070000000000000007
1027,1782582406638,0.20999999999999999,-0.56000000000000005,0.070000000000000007
1028,1782582406688,0.20999999999999999,-0.48999999999999999,0.070000000000000007
1029,1782582406771,0.14000000000000001,-0.48999999999999999,0.070000000000000007
1030,1782582406840,0.20999999999999999,-0.48999999999999999,0.070000000000000007
1031,1782582406887,0.20999999999999999,-0.48999999999999999,0.070000000000000007
1032,1782582406938,0.20999999999999999,-0.48999999999999999,0.070000000000000007
1033,1782582406987,0.20999999999999999,-0.56000000000000005,0.070000000000000007
1034,1782582407037,0.20999999999999999,-0.48999999999999999,0
1035,1782582407104,0.20999999999999999,-0.48999999999999999,0
1036,1782582407170,0.20999999999999999,-0.48999999999999999,0
1037,1782582407304,0.20999999999999999,-0.56000000000000005,0.070000000000000007
1038,1782582407370,0.28000000000000003,-0.56000000000000005,0.070000000000000007
1039,1782582407405,0.28000000000000003,-0.48999999999999999,0
1040,1782582407537,0.28000000000000003,-0.48999999999999999,0.070000000000000007
1041,1782582407553,0.20999999999999999,-0.48999999999999999,0.070000000000000007
1042,1782582407670,0.20999999999999999,-0.48999999999999999,0.070000000000000007
1043,1782582407721,0.28000000000000003,-0.56000000000000005,0.070000000000000007
1044,1782582407770,0.28000000000000003,-0.56000000000000005,0.070000000000000007
1045,1782582407820,0.28000000000000003,-0.56000000000000005,0
1046,1782582407887,0.20999999999999999,-0.48999999999999999,0.070000000000000007
1047,1782582407953,0.20999999999999999,-0.48999999999999999,0.070000000000000007
1048,1782582408087,0.20999999999999999,-0.56000000000000005,0
1049,1782582408120,0.14000000000000001,-0.48999999999999999,0.070000000000000007
1050,1782582408138,0.14000000000000001,-0.48999999999999999,0.070000000000000007
1051,1782582408222,0.14000000000000001,-0.48999999999999999,0.070000000000000007
1052,1782582408305,0.14000000000000001,-0.48999999999999999,0.070000000000000007
1053,1782582408370,0.20999999999999999,-0.48999999999999999,0.070000000000000007
1054,1782582408403,0.20999999999999999,-0.48999999999999999,0.070000000000000007
1055,1782582408470,0.28000000000000003,-0.48999999999999999,0.070000000000000007
1056,1782582408504,0.20999999999999999,-0.48999999999999999,0.070000000000000007
1057,1782582408554,0.20999999999999999,-0.48999999999999999,0.070000000000000007
1058,1782582408603,0.20999999999999999,-0.48999999999999999,0.070000000000000007
1059,1782582408652,0.20999999999999999,-0.48999999999999999,0.070000000000000007
1060,1782582408703,0.20999999999999999,-0.56000000000000005,0.070000000000000007
1061,1782582408753,0.20999999999999999,-0.56000000000000005,0.070000000000000007
1062,1782582408786,0.14000000000000001,-0.56000000000000005,0
1063,1782582408820,0.14000000000000001,-0.48999999999999999,0
1064,1782582408887,0.14000000000000001,-0.48999999999999999,0.070000000000000007
1065,1782582408920,0.14000000000000001,-0.48999999999999999,0.070000000000000007
1066,1782582408986,0.14000000000000001,-0.48999999999999999,0.070000000000000007
1067,1782582409036,0.14000000000000001,-0.48999999999999999,0.070000000000000007
1068,1782582409052,0.20999999999999999,-0.56000000000000005,0.070000000000000007
1069,1782582409119,0.20999999999999999,-0.56000000000000005,0.070000000000000007
1070,1782582409203,0.20999999999999999,-0.56000000000000005,0.070000000000000007
1071,1782582409253,0.20999999999999999,-0.56000000000000005,0.070000000000000007
1072,1782582409319,0.20999999999999999,-0.48999999999999999,0.070000000000000007
1073,1782582409352,0.28000000000000003,-0.48999999999999999,0.070000000000000007
1074,1782582409469,0.28000000000000003,-0.48999999999999999,0.070000000000000007
1075,1782582409519,0.28000000000000003,-0.48999999999999999,0.070000000000000007
1076,1782582409586,0.28000000000000003,-0.48999999999999999,0
1077,1782582409602,0.20999999999999999,-0.56000000000000005,0
1078,1782582409668,0.14000000000000001,-0.56000000000000005,0
1079,1782582409702,0.20999999999999999,-0.56000000000000005,0
1080,1782582409768,0.20999999999999999,-0.56000000000000005,0.070000000000000007
1081,1782582409802,0.20999999999999999,-0.56000000000000005,0.070000000000000007
1082,1782582409902,0.20999999999999999,-0.48999999999999999,0.070000000000000007
1083,1782582409935,0.14000000000000001,-0.48999999999999999,0.070000000000000007
1084,1782582409969,0.20999999999999999,-0.48999999999999999,0.070000000000000007
1085,1782582410019,0.20999999999999999,-0.48999999999999999,0.070000000000000007
1086,1782582410085,0.20999999999999999,-0.48999999999999999,0.070000000000000007
1087,1782582410119,0.20999999999999999,-0.56000000000000005,0.070000000000000007
1088,1782582410169,0.20999999999999999,-0.56000000000000005,0
1089,1782582410186,0.20999999999999999,-0.48999999999999999,0.070000000000000007
1090,1782582410219,0.20999999999999999,-0.56000000000000005,0.070000000000000007
1091,1782582410285,0.20999999999999999,-0.56000000000000005,0.070000000000000007
1092,1782582410319,0.20999999999999999,-0.56000000000000005,0.070000000000000007
1093,1782582410369,0.20999999999999999,-0.48999999999999999,0.070000000000000007
1094,1782582410452,0.20999999999999999,-0.48999999999999999,0.070000000000000007
1095,1782582410485,0.28000000000000003,-0.48999999999999999,0.070000000000000007
1096,1782582410584,0.20999999999999999,-0.48999999999999999,0.070000000000000007
1097,1782582410634,0.20999999999999999,-0.48999999999999999,0.070000000000000007
1098,1782582410668,0.20999999999999999,-0.48999999999999999,0.070000000000000007
1099,1782582410735,0.14000000000000001,-0.48999999999999999,0.070000000000000007
1100,1782582410785,0.14000000000000001,-0.48999999999999999,0.070000000000000007
1101,1782582410801,0.28000000000000003,-0.56000000000000005,0.070000000000000007
1102,1782582410851,0.20999999999999999,-0.56000000000000005,0.070000000000000007
1103,1782582410917,0.20999999999999999,-0.56000000000000005,0
1104,1782582410967,0.20999999999999999,-0.56000000000000005,0
1105,1782582411018,0.20999999999999999,-0.56000000000000005,0
1106,1782582411067,0.20999999999999999,-0.56000000000000005,0.070000000000000007
1107,1782582411151,0.20999999999999999,-0.56000000000000005,0
1108,1782582411233,0.28000000000000003,-0.56000000000000005,0
1109,1782582411300,0.28000000000000003,-0.56000000000000005,0
1110,1782582411350,0.28000000000000003,-0.56000000000000005,0
1111,1782582411417,0.34999999999999998,-0.48999999999999999,0.070000000000000007
1112,1782582411467,0.34999999999999998,-0.56000000000000005,0.070000000000000007
1113,1782582411517,0.28000000000000003,-0.56000000000000005,0.070000000000000007
1114,1782582411567,0.20999999999999999,-0.56000000000000005,0.070000000000000007
1115,1782582411618,0.20999999999999999,-0.56000000000000005,0.070000000000000007
1116,1782582411716,0.20999999999999999,-0.48999999999999999,0
1117,1782582411767,0.20999999999999999,-0.48999999999999999,0.070000000000000007
1118,1782582411818,0.14000000000000001,-0.48999999999999999,0.070000000000000007
1119,1782582411867,0.14000000000000001,-0.48999999999999999,0.070000000000000007
1120,1782582411917,0.14000000000000001,-0.48999999999999999,0.070000000000000007
1121,1782582411966,0.28000000000000003,-0.41999999999999998,-0.070000000000000007
1122,1782582412033,0.28000000000000003,-0.28000000000000003,-0.070000000000000007
1123,1782582412100,0.28000000000000003,-0.28000000000000003,0
1124,1782582412134,-0.20999999999999999,-0.28000000000000003,0
1125,1782582412183,-0.20999999999999999,-0.28000000000000003,0.070000000000000007
1126,1782582412234,-0.20999999999999999,-0.41999999999999998,0.070000000000000007
1127,1782582412300,0,-0.41999999999999998,0
1128,1782582412366,0.28000000000000003,-0.41999999999999998,0
1129,1782582412401,0.56000000000000005,-0.41999999999999998,0
1130,1782582412516,0.56000000000000005,-0.41999999999999998,0
1131,1782582412549,0.28000000000000003,-0.63,0.070000000000000007
1132,1782582412616,0.20999999999999999,-0.63,0.070000000000000007
1133,1782582412666,0.20999999999999999,-0.63,0.070000000000000007
1134,1782582412716,0.20999999999999999,-0.56000000000000005,0.070000000000000007
1135,1782582412766,0.20999999999999999,-0.56000000000000005,0.070000000000000007
1136,1782582412883,0.070000000000000007,-0.48999999999999999,0
1137,1782582412982,0.14000000000000001,-0.48999999999999999,0
1138,1782582413049,0.14000000000000001,-0.48999999999999999,0
1139,1782582413082,0.14000000000000001,-0.56000000000000005,0
1140,1782582413100,0.14000000000000001,-0.56000000000000005,0.070000000000000007
1141,1782582413132,0.20999999999999999,-0.48999999999999999,0.070000000000000007
1142,1782582413166,0.20999999999999999,-0.48999999999999999,0.070000000000000007
1143,1782582413232,0.20999999999999999,-0.48999999999999999,0
1144,1782582413265,0.20999999999999999,-0.48999999999999999,0
1145,1782582413332,0.20999999999999999,-0.56000000000000005,0
1146,1782582413365,0.20999999999999999,-0.56000000000000005,0
1147,1782582413466,0.28000000000000003,-0.48999999999999999,0.070000000000000007
1148,1782582413531,0.28000000000000003,-0.48999999999999999,0
1149,1782582413599,0.28000000000000003,-0.48999999999999999,0.070000000000000007
1150,1782582413649,0.28000000000000003,-0.48999999999999999,0.070000000000000007
1151,1782582413682,0.28000000000000003,-0.48999999999999999,0.070000000000000007
1152,1782582413748,0.28000000000000003,-0.48999999999999999,0.070000000000000007
1153,1782582413782,0.28000000000000003,-0.48999999999999999,0.070000000000000007
1154,1782582413848,0.28000000000000003,-0.48999999999999999,0.070000000000000007
1155,1782582413883,0.28000000000000003,-0.48999999999999999,0.070000000000000007
1156,1782582414015,0.20999999999999999,-0.56000000000000005,0.070000000000000007
1157,1782582414115,0.20999999999999999,-0.56000000000000005,0.070000000000000007
1158,1782582414198,0.20999999999999999,-0.56000000000000005,0
1159,1782582414248,0.20999999999999999,-0.41999999999999998,0.070000000000000007
1160,1782582414281,0.20999999999999999,-0.48999999999999999,0.070000000000000007
1161,1782582414332,0.28000000000000003,-0.48999999999999999,0.070000000000000007
1162,1782582414348,0.28000000000000003,-0.48999999999999999,0.070000000000000007
1163,1782582414381,0.28000000000000003,-0.56000000000000005,0.070000000000000007
1164,1782582414432,0.28000000000000003,-0.56000000000000005,0.070000000000000007
1165,1782582414515,0.28000000000000003,-0.56000000000000005,0.070000000000000007
1166,1782582414531,0.20999999999999999,-0.48999999999999999,0.070000000000000007
1167,1782582414564,0.20999999999999999,-0.48999999999999999,0.070000000000000007
1168,1782582414581,0.20999999999999999,-0.48999999999999999,0.070000000000000007
1169,1782582414599,0.20999999999999999,-0.48999999999999999,0
1170,1782582414764,0.20999999999999999,-0.48999999999999999,0
1171,1782582414798,0.20999999999999999,-0.48999999999999999,0
1172,1782582414815,0.20999999999999999,-0.56000000000000005,0.070000000000000007
1173,1782582414864,0.14000000000000001,-0.56000000000000005,0.070000000000000007
1174,1782582414897,0.14000000000000001,-0.56000000000000005,0.070000000000000007
1175,1782582414931,0.20999999999999999,-0.56000000000000005,0.070000000000000007
1176,1782582414965,0.20999999999999999,-0.56000000000000005,0.070000000000000007
1177,1782582415014,0.20999999999999999,-0.56000000000000005,0.070000000000000007
1178,1782582415031,0.20999999999999999,-0.48999999999999999,0.070000000000000007
1179,1782582415082,0.20999999999999999,-0.48999999999999999,0.070000000000000007
1180,1782582415114,0.20999999999999999,-0.48999999999999999,0
1181,1782582415180,0.28000000000000003,-0.48999999999999999,0
1182,1782582415247,0.28000000000000003,-0.48999999999999999,0
1183,1782582415280,0.28000000000000003,-0.48999999999999999,0
1184,1782582415297,0.28000000000000003,-0.48999999999999999,0
1185,1782582415347,0.28000000000000003,-0.48999999999999999,0
1186,1782582415380,0.20999999999999999,-0.56000000000000005,0.070000000000000007
1187,1782582415414,0.20999999999999999,-0.56000000000000005,0.070000000000000007
1188,1782582415480,0.20999999999999999,-0.48999999999999999,0.070000000000000007
1189,1782582415498,0.20999999999999999,-0.56000000000000005,0.070000000000000007
1190,1782582415531,0.20999999999999999,-0.56000000000000005,0.070000000000000007
1191,1782582415547,0.20999999999999999,-0.48999999999999999,0.070000000000000007
1192,1782582415580,0.20999999999999999,-0.56000000000000005,0.070000000000000007
1193,1782582415697,0.20999999999999999,-0.48999999999999999,0.070000000000000007
1194,1782582415713,0.20999999999999999,-0.48999999999999999,0.070000000000000007
1195,1782582415730,0.20999999999999999,-0.48999999999999999,0.070000000000000007
1196,1782582415763,0.20999999999999999,-0.56000000000000005,0.070000000000000007
1197,1782582415781,0.20999999999999999,-0.48999999999999999,0
1198,1782582415830,0.20999999999999999,-0.48999999999999999,0
1199,1782582415880,0.20999999999999999,-0.48999999999999999,0
1200,1782582415947,0.28000000000000003,-0.48999999999999999,0
1201,1782582415998,0.28000000000000003,-0.48999999999999999,0
1202,1782582415998,0.20999999999999999,-0.56000000000000005,0
1203,1782582416030,0.20999999999999999,-0.41999999999999998,0.070000000000000007
1204,1782582416047,0.20999999999999999,-0.56000000000000005,0.070000000000000007
1205,1782582416114,0.20999999999999999,-0.48999999999999999,0.070000000000000007
1206,1782582416213,0.20999999999999999,-0.34999999999999998,0.070000000000000007
1207,1782582416346,0.28000000000000003,-0.48999999999999999,0.070000000000000007
1208,1782582416362,0.28000000000000003,-0.41999999999999998,0.070000000000000007
1209,1782582416379,0.28000000000000003,-0.48999999999999999,0.070000000000000007
1210,1782582416413,0.28000000000000003,-0.48999999999999999,0.070000000000000007
1211,1782582416429,0.20999999999999999,-0.48999999999999999,0.070000000000000007
1212,1782582416462,0.20999999999999999,-0.56000000000000005,0.070000000000000007
1213,1782582416530,0.20999999999999999,-0.56000000000000005,0.070000000000000007
1214,1782582416562,0.20999999999999999,-0.48999999999999999,0.070000000000000007
1215,1782582416612,0.20999999999999999,-0.48999999999999999,0.070000000000000007
1216,1782582416629,0.20999999999999999,-0.48999999999999999,0.070000000000000007
1217,1782582416646,0.20999999999999999,-0.48999999999999999,0.070000000000000007
1218,1782582416730,0.28000000000000003,-0.56000000000000005,0.070000000000000007
1219,1782582416795,0.28000000000000003,-0.56000000000000005,0
1220,1782582416896,0.20999999999999999,-0.56000000000000005,0.070000000000000007
1221,1782582416946,0.28000000000000003,-0.69999999999999996,0.070000000000000007
1222,1782582417012,0.34999999999999998,-0.69999999999999996,0.070000000000000007
1223,1782582417045,0.34999999999999998,-0.69999999999999996,0.070000000000000007
1224,1782582417062,0.28000000000000003,-0.69999999999999996,0
1225,1782582417095,0.20999999999999999,-0.63,0
1226,1782582417128,0.20999999999999999,-0.69999999999999996,0.070000000000000007
1227,1782582417263,0.20999999999999999,-0.63,0.070000000000000007
1228,1782582417296,0.20999999999999999,-0.48999999999999999,0.070000000000000007
1229,1782582417345,0,-0.48999999999999999,0.070000000000000007
1230,1782582417362,0,-0.48999999999999999,0.070000000000000007
1231,1782582417379,0,-0.48999999999999999,0.070000000000000007
1232,1782582417478,0.20999999999999999,-0.41999999999999998,-0.070000000000000007
1233,1782582417562,0.20999999999999999,-0.48999999999999999,0
1234,1782582417612,0.070000000000000007,-0.69999999999999996,0
1235,1782582417712,0.28000000000000003,-0.63,0.070000000000000007
1236,1782582417762,0.20999999999999999,-0.56000000000000005,0.070000000000000007
1237,1782582417812,0.20999999999999999,-0.48999999999999999,0.070000000000000007
1238,1782582417862,0.28000000000000003,-0.48999999999999999,0
1239,1782582417930,0.28000000000000003,-0.41999999999999998,0
1240,1782582417964,0.28000000000000003,-0.41999999999999998,0
1241,1782582418029,0.28000000000000003,-0.63,0.070000000000000007
1242,1782582418078,0.28000000000000003,-0.63,0.070000000000000007
1243,1782582418129,0.28000000000000003,-0.63,0.070000000000000007
1244,1782582418195,0.14000000000000001,-0.56000000000000005,0
1245,1782582418245,0.20999999999999999,-0.56000000000000005,0
1246,1782582418295,0.20999999999999999,-0.56000000000000005,0
1247,1782582418312,6.9299999999999997,-0.56000000000000005,0
1248,1782582418327,0,-0.63,0.070000000000000007
1249,1782582418428,0.28000000000000003,-0.48999999999999999,0.070000000000000007
1250,1782582418511,0.28000000000000003,-0.34999999999999998,0.070000000000000007
1251,1782582418545,0.28000000000000003,-0.34999999999999998,0
1252,1782582418562,0.28000000000000003,-0.34999999999999998,0
1253,1782582418629,0.20999999999999999,-0.48999999999999999,0
1254,1782582418694,0.20999999999999999,-0.48999999999999999,0
1255,1782582418711,0.20999999999999999,-0.48999999999999999,0
1256,1782582418777,0.14000000000000001,-0.48999999999999999,0
1257,1782582418811,0.14000000000000001,-0.48999999999999999,0.070000000000000007
1258,1782582418845,0.14000000000000001,-0.48999999999999999,0.070000000000000007
1259,1782582418860,0.14000000000000001,-0.48999999999999999,0.070000000000000007
1260,1782582418877,0.20999999999999999,-0.48999999999999999,0.14000000000000001
1261,1782582418929,0.20999999999999999,-0.48999999999999999,0.14000000000000001
1262,1782582418977,0.20999999999999999,-0.56000000000000005,0.070000000000000007
1263,1782582419044,0.20999999999999999,-0.56000000000000005,0.070000000000000007
1264,1782582419127,0.20999999999999999,-0.56000000000000005,0.070000000000000007
1265,1782582419161,0.20999999999999999,-0.56000000000000005,0.070000000000000007
1266,1782582419261,0.20999999999999999,-0.56000000000000005,0.070000000000000007
1267,1782582419327,0.20999999999999999,-0.56000000000000005,0.070000000000000007
1268,1782582419377,0.20999999999999999,-0.56000000000000005,0.070000000000000007
1269,1782582419410,0.20999999999999999,-0.56000000000000005,0.070000000000000007
1270,1782582419427,0.20999999999999999,-0.56000000000000005,0
1271,1782582419493,0.28000000000000003,-0.48999999999999999,0
1272,1782582419560,0.28000000000000003,-0.48999999999999999,0
1273,1782582419610,0.28000000000000003,-0.56000000000000005,0.070000000000000007
1274,1782582419660,0.20999999999999999,-0.56000000000000005,0.070000000000000007
1275,1782582419710,0.14000000000000001,-0.48999999999999999,0
1276,1782582419727,0.14000000000000001,-0.48999999999999999,0.070000000000000007
1277,1782582419893,0.20999999999999999,-0.56000000000000005,0
1278,1782582419944,0.20999999999999999,-0.56000000000000005,0
1279,1782582420015,0.20999999999999999,-0.48999999999999999,0
1280,1782582420060,0.20999999999999999,-0.56000000000000005,0.070000000000000007
1281,1782582420143,0.20999999999999999,-0.48999999999999999,0.070000000000000007
1282,1782582420211,0.28000000000000003,-0.48999999999999999,0.070000000000000007
1283,1782582420294,0.28000000000000003,-0.48999999999999999,0
1284,1782582420344,0.28000000000000003,-0.48999999999999999,0
1285,1782582420426,0.20999999999999999,-0.48999999999999999,0.070000000000000007
1286,1782582420493,0.20999999999999999,-0.48999999999999999,0.070000000000000007
1287,1782582420526,0.20999999999999999,-0.48999999999999999,0.070000000000000007
1288,1782582420593,0.20999999999999999,-0.48999999999999999,0.070000000000000007
1289,1782582420676,0.34999999999999998,-0.48999999999999999,0.070000000000000007
1290,1782582420726,0.14000000000000001,-0.48999999999999999,0.070000000000000007
1291,1782582420793,0.14000000000000001,-0.48999999999999999,0.070000000000000007
1292,1782582420810,0.14000000000000001,-0.48999999999999999,0.070000000000000007
1293,1782582420826,0.34999999999999998,-0.41999999999999998,0
1294,1782582420859,0.34999999999999998,-0.41999999999999998,0
1295,1782582420893,0.34999999999999998,-0.41999999999999998,0
1296,1782582420911,0.14000000000000001,-0.56000000000000005,0
1297,1782582420961,0.34999999999999998,-0.56000000000000005,0
1298,1782582421026,0.34999999999999998,-0.56000000000000005,0
1299,1782582421076,0.34999999999999998,-0.56000000000000005,0
1300,1782582421159,0.070000000000000007,-0.48999999999999999,0.070000000000000007
1301,1782582421192,0.070000000000000007,-0.48999999999999999,0.070000000000000007
1302,1782582421242,0.14000000000000001,-0.77000000000000002,0
1303,1782582421277,0.56000000000000005,-0.83999999999999997,0
1304,1782582421376,0.56000000000000005,-0.77000000000000002,0
1305,1782582421493,0.070000000000000007,-0.34999999999999998,0.20999999999999999
1306,1782582421559,0.070000000000000007,-0.77000000000000002,0.20999999999999999
1307,1782582421592,0.070000000000000007,-0.77000000000000002,0.20999999999999999
1308,1782582421710,0.070000000000000007,-0.77000000000000002,0.070000000000000007
1309,1782582421842,0.20999999999999999,-0.56000000000000005,0.20999999999999999
1310,1782582421892,0.20999999999999999,-0.56000000000000005,0.20999999999999999
1311,1782582421942,0.20999999999999999,-0.56000000000000005,0.14000000000000001
1312,1782582421992,0.28000000000000003,-0.56000000000000005,0.14000000000000001
1313,1782582422058,0.20999999999999999,-0.48999999999999999,0
1314,1782582422175,0.20999999999999999,-0.48999999999999999,0
1315,1782582422225,0.20999999999999999,-0.41999999999999998,0.070000000000000007
1316,1782582422275,0.20999999999999999,-0.41999999999999998,0.070000000000000007
1317,1782582422358,0.14000000000000001,-0.56000000000000005,0
1318,1782582422408,0.14000000000000001,-0.56000000000000005,0
1319,1782582422491,0.14000000000000001,-0.56000000000000005,0
1320,1782582422542,0.14000000000000001,-0.56000000000000005,0
1321,1782582422592,0.14000000000000001,-0.48999999999999999,0.070000000000000007
1322,1782582422691,0.14000000000000001,-0.48999999999999999,0
1323,1782582422741,0.20999999999999999,-0.48999999999999999,0
1324,1782582422792,0.20999999999999999,-0.48999999999999999,0
1325,1782582422858,0.20999999999999999,-0.48999999999999999,0
1326,1782582422925,0.20999999999999999,-0.48999999999999999,0.070000000000000007
1327,1782582422941,0.20999999999999999,-0.48999999999999999,0
1328,1782582422991,0.20999999999999999,-0.48999999999999999,0.070000000000000007
1329,1782582423041,0.20999999999999999,-0.48999999999999999,0.070000000000000007
1330,1782582423107,0.20999999999999999,-0.48999999999999999,0.14000000000000001
1331,1782582423158,0.20999999999999999,-0.48999999999999999,0.14000000000000001
1332,1782582423207,0.20999999999999999,-0.48999999999999999,0.14000000000000001
1333,1782582423274,0.28000000000000003,-0.48999999999999999,0
1334,1782582423341,0.28000000000000003,-0.56000000000000005,0.070000000000000007
1335,1782582423441,0.28000000000000003,-0.56000000000000005,0.070000000000000007
1336,1782582423491,0.20999999999999999,-0.56000000000000005,0.070000000000000007
1337,1782582423540,0.14000000000000001,-0.48999999999999999,0
1338,1782582423607,0.14000000000000001,-0.56000000000000005,0
1339,1782582423658,0.20999999999999999,-0.56000000000000005,0.070000000000000007
1340,1782582423707,0.20999999999999999,-0.56000000000000005,0.070000000000000007
1341,1782582423774,0.28000000000000003,-0.48999999999999999,0.070000000000000007
1342,1782582423807,0.28000000000000003,-0.48999999999999999,0.070000000000000007
1343,1782582423858,0.20999999999999999,-0.48999999999999999,0
1344,1782582423957,0.20999999999999999,-0.56000000000000005,0
1345,1782582424074,0.20999999999999999,-0.56000000000000005,-0.070000000000000007
1346,1782582424157,0.20999999999999999,-0.48999999999999999,0.070000000000000007
1347,1782582424206,0.14000000000000001,-0.48999999999999999,0.070000000000000007
1348,1782582424257,0.14000000000000001,-0.41999999999999998,0.070000000000000007
1349,1782582424307,0.14000000000000001,-0.41999999999999998,0.070000000000000007
1350,1782582424356,0.14000000000000001,-0.48999999999999999,0.070000000000000007
1351,1782582424423,0.28000000000000003,-0.48999999999999999,0
1352,1782582424489,0.28000000000000003,-0.56000000000000005,0.070000000000000007
1353,1782582424573,0.20999999999999999,-0.48999999999999999,0.070000000000000007
1354,1782582424656,0.20999999999999999,-0.41999999999999998,0.070000000000000007
1355,1782582424673,0.20999999999999999,-0.56000000000000005,0.070000000000000007
1356,1782582424706,0.20999999999999999,-0.56000000000000005,0.070000000000000007
1357,1782582424772,0.20999999999999999,-0.56000000000000005,0
1358,1782582424823,0.20999999999999999,-0.56000000000000005,0
1359,1782582424872,0.20999999999999999,-0.56000000000000005,0
1360,1782582424939,0.20999999999999999,-0.56000000000000005,0
1361,1782582424956,0.20999999999999999,-0.56000000000000005,0
1362,1782582425007,0.070000000000000007,-0.56000000000000005,0
1363,1782582425073,0.070000000000000007,-0.56000000000000005,0
1364,1782582425123,0.070000000000000007,-0.56000000000000005,0
1365,1782582425173,0.14000000000000001,-0.56000000000000005,0
1366,1782582425289,0.20999999999999999,-0.48999999999999999,0.070000000000000007
1367,1782582425355,0.20999999999999999,-0.48999999999999999,0.070000000000000007
1368,1782582425406,0.20999999999999999,-0.83999999999999997,0.070000000000000007
1369,1782582425456,0.070000000000000007,0.070000000000000007,0.070000000000000007
1370,1782582425507,0.070000000000000007,-1.54,0.070000000000000007
1371,1782582425556,0.20999999999999999,-1.54,0.14000000000000001
1372,1782582425622,0.20999999999999999,-0.56000000000000005,0
1373,1782582425672,0.20999999999999999,-0.56000000000000005,0
1374,1782582425739,0.20999999999999999,-0.56000000000000005,0
1375,1782582425806,0.20999999999999999,-0.48999999999999999,0.070000000000000007
1376,1782582425855,0.20999999999999999,-0.41999999999999998,0.070000000000000007
1377,1782582425905,0.20999999999999999,-0.56000000000000005,0.070000000000000007
1378,1782582425989,0.20999999999999999,-0.56000000000000005,0.070000000000000007
1379,1782582426072,0.20999999999999999,-0.48999999999999999,0.070000000000000007
1380,1782582426138,0.28000000000000003,-0.56000000000000005,0
1381,1782582426205,0.28000000000000003,-0.56000000000000005,0
1382,1782582426271,0.28000000000000003,-0.56000000000000005,0
1383,1782582426305,0.28000000000000003,-0.56000000000000005,0.070000000000000007
1384,1782582426372,0.28000000000000003,-0.48999999999999999,0.070000000000000007
1385,1782582426554,0.20999999999999999,-0.48999999999999999,0.070000000000000007
1386,1782582426655,0.14000000000000001,-0.56000000000000005,0.070000000000000007
1387,1782582426788,0.20999999999999999,-0.56000000000000005,0.070000000000000007
1388,1782582426838,0.20999999999999999,-0.56000000000000005,0.070000000000000007
1389,1782582426887,0.20999999999999999,-0.56000000000000005,0
1390,1782582426921,0.20999999999999999,-0.56000000000000005,0.070000000000000007
1391,1782582427021,0.20999999999999999,-0.48999999999999999,0.070000000000000007
1392,1782582427072,0.20999999999999999,-0.48999999999999999,0.070000000000000007
1393,1782582427170,0.20999999999999999,-0.48999999999999999,0.070000000000000007
1394,1782582427220,0.20999999999999999,-0.48999999999999999,0.070000000000000007
1395,1782582427303,0.28000000000000003,-0.56000000000000005,0.070000000000000007
1396,1782582427437,0.20999999999999999,-0.56000000000000005,0.070000000000000007
1397,1782582427487,0.20999999999999999,-0.48999999999999999,0.070000000000000007
1398,1782582427537,0.28000000000000003,-0.48999999999999999,0.070000000000000007
1399,1782582427555,0.20999999999999999,-0.48999999999999999,0.070000000000000007
1400,1782582427586,0.28000000000000003,-0.48999999999999999,0.070000000000000007
1401,1782582427636,0.20999999999999999,-0.56000000000000005,0.070000000000000007
1402,1782582427687,0.28000000000000003,-0.56000000000000005,0.070000000000000007
1403,1782582427720,0.20999999999999999,-0.56000000000000005,0.070000000000000007
1404,1782582427803,0.20999999999999999,-0.56000000000000005,0.070000000000000007
1405,1782582427822,0.14000000000000001,-0.56000000000000005,0.070000000000000007
1406,1782582427838,0.14000000000000001,-0.56000000000000005,0.070000000000000007
1407,1782582427853,0.20999999999999999,-0.48999999999999999,0.070000000000000007
1408,1782582427886,0.20999999999999999,-0.48999999999999999,0
1409,1782582427919,0.20999999999999999,-0.56000000000000005,0
1410,1782582427953,0.20999999999999999,-0.48999999999999999,0
1411,1782582428003,0.20999999999999999,-0.48999999999999999,0
1412,1782582428087,0.20999999999999999,-0.48999999999999999,0
1413,1782582428136,0.20999999999999999,-0.48999999999999999,0
1414,1782582428270,0.20999999999999999,-0.48999999999999999,0
1415,1782582428338,0.20999999999999999,-0.48999999999999999,0.070000000000000007
1416,1782582428420,0.14000000000000001,-0.56000000000000005,0
1417,1782582428436,0.20999999999999999,-0.56000000000000005,0.14000000000000001
1418,1782582428469,0.14000000000000001,-0.56000000000000005,0.14000000000000001
1419,1782582428503,0.20999999999999999,-0.48999999999999999,0.070000000000000007
1420,1782582428602,0.14000000000000001,-0.48999999999999999,0.070000000000000007
1421,1782582428685,0.20999999999999999,-0.48999999999999999,0
1422,1782582428703,0.14000000000000001,-0.56000000000000005,0.070000000000000007
1423,1782582428735,0.20999999999999999,-0.56000000000000005,0.070000000000000007
1424,1782582428753,0.20999999999999999,-0.56000000000000005,0.070000000000000007
1425,1782582428803,0.20999999999999999,-0.56000000000000005,0
1426,1782582428852,0.20999999999999999,-0.56000000000000005,0
1427,1782582428887,0.20999999999999999,-0.56000000000000005,0
1428,1782582428953,0.20999999999999999,-0.56000000000000005,0
1429,1782582429003,0.28000000000000003,-0.56000000000000005,0.070000000000000007
1430,1782582429035,0.28000000000000003,-0.48999999999999999,0.070000000000000007
1431,1782582429069,0.20999999999999999,-0.48999999999999999,0.14000000000000001
1432,1782582429135,0.20999999999999999,-0.48999999999999999,0.14000000000000001
1433,1782582429252,0.20999999999999999,-0.48999999999999999,0.14000000000000001
1434,1782582429286,0.20999999999999999,-0.56000000000000005,0.070000000000000007
1435,1782582429318,0.34999999999999998,-0.48999999999999999,0
1436,1782582429337,0.20999999999999999,-0.48999999999999999,0
1437,1782582429369,0.34999999999999998,-0.48999999999999999,0
1438,1782582429386,0.34999999999999998,-0.48999999999999999,0
1439,1782582429420,0.34999999999999998,-0.48999999999999999,0
1440,1782582429469,0.28000000000000003,-0.48999999999999999,0
1441,1782582429535,0.28000000000000003,-0.48999999999999999,0
1442,1782582429569,0.20999999999999999,-0.56000000000000005,0.070000000000000007
1443,1782582429602,0.28000000000000003,-0.56000000000000005,0.070000000000000007
1444,1782582429670,0.28000000000000003,-0.56000000000000005,0.070000000000000007
1445,1782582429719,0.28000000000000003,-0.56000000000000005,0.070000000000000007
1446,1782582429768,0.20999999999999999,-0.48999999999999999,0.070000000000000007
1447,1782582429836,0.20999999999999999,-0.48999999999999999,0.070000000000000007
1448,1782582429868,0.20999999999999999,-0.56000000000000005,0.070000000000000007
1449,1782582429935,0.28000000000000003,-0.56000000000000005,0.070000000000000007
1450,1782582430018,0.14000000000000001,-0.56000000000000005,0.070000000000000007
1451,1782582430051,0.28000000000000003,-0.56000000000000005,0.070000000000000007
1452,1782582430068,0.28000000000000003,-0.56000000000000005,0.070000000000000007
1453,1782582430085,0.28000000000000003,-0.48999999999999999,0.070000000000000007
1454,1782582430151,0.28000000000000003,-0.56000000000000005,0
1455,1782582430202,0.28000000000000003,-0.56000000000000005,0
1456,1782582430235,0.28000000000000003,-0.48999999999999999,0
1457,1782582430251,0.20999999999999999,-0.48999999999999999,0.070000000000000007
1458,1782582430284,0.20999999999999999,-0.48999999999999999,0.070000000000000007
1459,1782582430318,0.20999999999999999,-0.48999999999999999,0.070000000000000007
1460,1782582430385,0.20999999999999999,-0.48999999999999999,0.070000000000000007
1461,1782582430435,0.20999999999999999,-0.48999999999999999,0.14000000000000001
1462,1782582430484,0.28000000000000003,-0.48999999999999999,0.070000000000000007
1463,1782582430535,0.28000000000000003,-0.48999999999999999,0
1464,1782582430634,0.20999999999999999,-0.48999999999999999,0
1465,1782582430701,0.20999999999999999,-0.48999999999999999,0
1466,1782582430784,0.20999999999999999,-0.48999999999999999,0
1467,1782582430834,0.20999999999999999,-0.48999999999999999,0.070000000000000007
1468,1782582430867,0.20999999999999999,-0.48999999999999999,0.070000000000000007
1469,1782582430934,0.20999999999999999,-0.48999999999999999,0.070000000000000007
1470,1782582431001,0.20999999999999999,-0.48999999999999999,0
1471,1782582431050,0.20999999999999999,-0.48999999999999999,0
1472,1782582431068,0.28000000000000003,-0.48999999999999999,0
1473,1782582431084,0.28000000000000003,-0.48999999999999999,0
1474,1782582431152,0.20999999999999999,-0.48999999999999999,0
1475,1782582431250,0.20999999999999999,-0.48999999999999999,0.070000000000000007
1476,1782582431334,0.20999999999999999,-0.48999999999999999,0
1477,1782582431383,0.20999999999999999,-0.48999999999999999,0.070000000000000007
1478,1782582431400,0.20999999999999999,-0.48999999999999999,0
1479,1782582431451,0.20999999999999999,-0.48999999999999999,0.070000000000000007
1480,1782582431484,0.20999999999999999,-0.48999999999999999,0.070000000000000007
1481,1782582431568,0.28000000000000003,-0.48999999999999999,0.14000000000000001
1482,1782582431633,0.28000000000000003,-0.48999999999999999,0.070000000000000007
1483,1782582431684,0.20999999999999999,-0.56000000000000005,0.070000000000000007
1484,1782582431717,0.20999999999999999,-0.56000000000000005,0
1485,1782582431734,0.20999999999999999,-0.56000000000000005,0
1486,1782582431749,0.20999999999999999,-0.48999999999999999,0
1487,1782582431767,0.14000000000000001,-0.48999999999999999,0
1488,1782582431817,0.20999999999999999,-0.48999999999999999,0
1489,1782582431934,0.14000000000000001,-0.56000000000000005,0.070000000000000007
1490,1782582432000,0.14000000000000001,-0.56000000000000005,0.070000000000000007
1491,1782582432066,0.14000000000000001,-0.56000000000000005,0.070000000000000007
1492,1782582432099,0.20999999999999999,-0.56000000000000005,0.070000000000000007
1493,1782582432116,0.20999999999999999,-0.56000000000000005,0.070000000000000007
1494,1782582432149,0.20999999999999999,-0.56000000000000005,0.070000000000000007
1495,1782582432232,0.20999999999999999,-0.56000000000000005,0.070000000000000007
1496,1782582432349,0.20999999999999999,-0.56000000000000005,0.070000000000000007
1497,1782582432399,0.20999999999999999,-0.56000000000000005,0.070000000000000007
1498,1782582432433,0.20999999999999999,-0.56000000000000005,0
1499,1782582432500,0.20999999999999999,-0.56000000000000005,0
1500,1782582432549,0.20999999999999999,-0.56000000000000005,0
1501,1782582432600,0.14000000000000001,-0.56000000000000005,0
1502,1782582432650,0.14000000000000001,-0.56000000000000005,0.070000000000000007
1503,1782582432715,0.20999999999999999,-0.56000000000000005,0.070000000000000007
1504,1782582432765,0.20999999999999999,-0.48999999999999999,0.070000000000000007
1505,1782582432816,0.20999999999999999,-0.48999999999999999,0.070000000000000007
1506,1782582432851,0.20999999999999999,-0.48999999999999999,0.070000000000000007
1507,1782582432899,0.20999999999999999,-0.48999999999999999,0.070000000000000007
1508,1782582432934,0.20999999999999999,-0.48999999999999999,0.070000000000000007
1509,1782582432966,0.20999999999999999,-0.56000000000000005,0.070000000000000007
1510,1782582432982,0.20999999999999999,-0.56000000000000005,0
1511,1782582433032,0.14000000000000001,-0.48999999999999999,0.070000000000000007
1512,1782582433082,0.20999999999999999,-0.48999999999999999,0.070000000000000007
1513,1782582433149,0.20999999999999999,-0.48999999999999999,0.070000000000000007
1514,1782582433165,0.20999999999999999,-0.48999999999999999,0.070000000000000007
1515,1782582433233,0.20999999999999999,-0.48999999999999999,0.070000000000000007
1516,1782582433282,0.20999999999999999,-0.48999999999999999,0.070000000000000007
1517,1782582433298,0.20999999999999999,-0.48999999999999999,0.070000000000000007
1518,1782582433332,0.14000000000000001,-0.48999999999999999,0.070000000000000007
1519,1782582433382,0.20999999999999999,-0.56000000000000005,0.070000000000000007
1520,1782582433433,0.20999999999999999,-0.56000000000000005,0.070000000000000007
1521,1782582433449,0.14000000000000001,-0.56000000000000005,0.070000000000000007
1522,1782582433483,0.14000000000000001,-0.56000000000000005,0.070000000000000007
1523,1782582433532,0.20999999999999999,-0.56000000000000005,0.070000000000000007
1524,1782582433550,0.14000000000000001,-0.56000000000000005,0.070000000000000007
1525,1782582433598,0.20999999999999999,-0.56000000000000005,0.070000000000000007
1526,1782582433665,0.20999999999999999,-0.56000000000000005,0.070000000000000007
1527,1782582433764,0.20999999999999999,-0.48999999999999999,0.070000000000000007
1528,1782582433831,0.20999999999999999,-0.56000000000000005,0
1529,1782582433848,0.20999999999999999,-0.56000000000000005,0
1530,1782582433881,0.20999999999999999,-0.56000000000000005,0
1531,1782582433914,0.20999999999999999,-0.56000000000000005,0
1532,1782582433965,0.20999999999999999,-0.48999999999999999,0
1533,1782582434014,0.28000000000000003,-0.48999999999999999,0
1534,1782582434031,0.20999999999999999,-0.48999999999999999,0
1535,1782582434064,0.20999999999999999,-0.48999999999999999,0
1536,1782582434097,0.20999999999999999,-0.48999999999999999,0
1537,1782582434198,0.28000000000000003,-0.48999999999999999,0.070000000000000007
1538,1782582434265,0.28000000000000003,-0.48999999999999999,0.070000000000000007
1539,1782582434331,0.28000000000000003,-0.48999999999999999,0.070000000000000007
1540,1782582434365,0.28000000000000003,-0.48999999999999999,0.070000000000000007
1541,1782582434398,0.28000000000000003,-0.56000000000000005,0.070000000000000007
1542,1782582434431,0.28000000000000003,-0.56000000000000005,0.070000000000000007
1543,1782582434447,0.28000000000000003,-0.56000000000000005,0.070000000000000007
1544,1782582434481,0.28000000000000003,-0.56000000000000005,0.070000000000000007
1545,1782582434548,0.20999999999999999,-0.56000000000000005,0.070000000000000007
1546,1782582434597,0.20999999999999999,-0.56000000000000005,0.070000000000000007
1547,1782582434647,0.20999999999999999,-0.56000000000000005,0.070000000000000007
1548,1782582434697,0.20999999999999999,-0.56000000000000005,0.070000000000000007
1549,1782582434714,0.20999999999999999,-0.56000000000000005,0.070000000000000007
1550,1782582434731,0.20999999999999999,-0.56000000000000005,0.070000000000000007
1551,1782582434748,0.20999999999999999,-0.48999999999999999,0.070000000000000007
1552,1782582434781,0.20999999999999999,-0.48999999999999999,0.070000000000000007
1553,1782582434797,0.20999999999999999,-0.48999999999999999,0.070000000000000007
1554,1782582434864,0.20999999999999999,-0.48999999999999999,0
1555,1782582434914,0.20999999999999999,-0.48999999999999999,0
1556,1782582434981,0.20999999999999999,-0.48999999999999999,0
1557,1782582435063,0.14000000000000001,-0.48999999999999999,0
1558,1782582435114,0.14000000000000001,-0.56000000000000005,0.070000000000000007
1559,1782582435147,0.14000000000000001,-0.48999999999999999,0.070000000000000007
1560,1782582435180,0.14000000000000001,-0.48999999999999999,0.070000000000000007
1561,1782582435213,0.20999999999999999,-0.48999999999999999,0.070000000000000007
1562,1782582435247,0.20999999999999999,-0.48999999999999999,0.070000000000000007
1563,1782582435280,0.20999999999999999,-0.56000000000000005,0.070000000000000007
1564,1782582435363,0.20999999999999999,-0.56000000000000005,0.070000000000000007
1565,1782582435413,0.20999999999999999,-0.48999999999999999,0.070000000000000007
1566,1782582435430,0.20999999999999999,-0.56000000000000005,0.070000000000000007
1567,1782582435463,0.20999999999999999,-0.56000000000000005,0.070000000000000007
1568,1782582435480,0.20999999999999999,-0.48999999999999999,0.070000000000000007
1569,1782582435498,0.20999999999999999,-0.56000000000000005,0.070000000000000007
1570,1782582435547,0.20999999999999999,-0.48999999999999999,0.070000000000000007
1571,1782582435664,0.20999999999999999,-0.48999999999999999,0.070000000000000007
1572,1782582435763,0.20999999999999999,-0.48999999999999999,0.070000000000000007
1573,1782582435830,0.20999999999999999,-0.48999999999999999,0
1574,1782582435864,0.20999999999999999,-0.48999999999999999,0
1575,1782582435897,0.20999999999999999,-0.48999999999999999,0
1576,1782582435947,0.20999999999999999,-0.48999999999999999,0
1577,1782582435997,0.28000000000000003,-0.48999999999999999,0.070000000000000007
1578,1782582436013,0.20999999999999999,-0.48999999999999999,0
1579,1782582436047,0.20999999999999999,-0.56000000000000005,0
1580,1782582436080,0.28000000000000003,-0.56000000000000005,0.070000000000000007
1581,1782582436096,0.20999999999999999,-0.48999999999999999,0.070000000000000007
1582,1782582436146,0.20999999999999999,-0.56000000000000005,0.070000000000000007
1583,1782582436196,0.20999999999999999,-0.56000000000000005,0.070000000000000007
1584,1782582436246,0.20999999999999999,-0.48999999999999999,0
1585,1782582436312,0.28000000000000003,-0.48999999999999999,0
1586,1782582436380,0.20999999999999999,-0.48999999999999999,0
1587,1782582436397,0.20999999999999999,-0.48999999999999999,0
1588,1782582436429,0.20999999999999999,-0.48999999999999999,0
1589,1782582436479,0.14000000000000001,-0.48999999999999999,0
1590,1782582436546,0.14000000000000001,-0.48999999999999999,0
1591,1782582436562,0.20999999999999999,-0.48999999999999999,0.14000000000000001
1592,1782582436630,0.20999999999999999,-0.48999999999999999,0.14000000000000001
1593,1782582436663,0.20999999999999999,-0.48999999999999999,0.14000000000000001
1594,1782582436696,0.20999999999999999,-0.48999999999999999,0.070000000000000007
1595,1782582436712,0.20999999999999999,-0.48999999999999999,0.070000000000000007
1596,1782582436729,0.28000000000000003,-0.48999999999999999,0.070000000000000007
1597,1782582436780,0.28000000000000003,-0.56000000000000005,0.070000000000000007
1598,1782582436830,0.28000000000000003,-0.48999999999999999,0.070000000000000007
1599,1782582436879,0.14000000000000001,-0.48999999999999999,0
1600,1782582436928,0.20999999999999999,-0.48999999999999999,0
1601,1782582436963,0.20999999999999999,-0.48999999999999999,0
1602,1782582436979,0.28000000000000003,-0.48999999999999999,0
1603,1782582436996,0.28000000000000003,-0.48999999999999999,0
1604,1782582437029,0.20999999999999999,-0.48999999999999999,0
1605,1782582437062,0.20999999999999999,-0.48999999999999999,0
1606,1782582437146,0.20999999999999999,-0.48999999999999999,0.070000000000000007
1607,1782582437195,0.20999999999999999,-0.56000000000000005,0.070000000000000007
1608,1782582437245,0.20999999999999999,-0.48999999999999999,0.070000000000000007
1609,1782582437329,0.14000000000000001,-0.48999999999999999,0.070000000000000007
1610,1782582437378,0.14000000000000001,-0.48999999999999999,0.070000000000000007
1611,1782582437445,0.20999999999999999,-0.56000000000000005,0.070000000000000007
1612,1782582437495,0.20999999999999999,-0.48999999999999999,0.070000000000000007
1613,1782582437529,0.20999999999999999,-0.48999999999999999,0.070000000000000007
1614,1782582437561,0.20999999999999999,-0.48999999999999999,0.070000000000000007
1615,1782582437578,0.20999999999999999,-0.48999999999999999,0.070000000000000007
1616,1782582437611,0.20999999999999999,-0.48999999999999999,0.070000000000000007
1617,1782582437678,0.20999999999999999,-0.48999999999999999,0.070000000000000007
